trial_number,trial_type,mask_present,cycle_number,first_color,first_orientation,correct_response,visual_field,spatial_frequency,first_stim,second_stim,stimulus_frame_duration,answer,rt,accuracy,frame_rate,participant,psychopyVersion,frame_rate_detected
0,"['high', 2, 2, True]",TRUE,2,black,45,right,up,high,black_high_45_up,white_high_135_up,2,right,0.7981088,1,120,4,3.2.2021,120.0252533
1,"['low', 64, 2, True]",TRUE,64,white,45,left,down,low,white_low_45_down,black_low_135_down,2,left,0.1348457,1,120,4,3.2.2021,120.0252533
2,"['high', 4, 2, True]",TRUE,4,black,135,left,down,high,black_high_135_down,white_high_45_down,2,right,0.3990993,0,120,4,3.2.2021,120.0252533
3,"['low', 4, 2, True]",TRUE,4,white,45,left,up,low,white_low_45_up,black_low_135_up,2,left,0.224974,1,120,4,3.2.2021,120.0252533
4,"['low', 2, 2, True]",TRUE,2,white,45,left,up,low,white_low_45_up,black_low_135_up,2,left,0.2112671,1,120,4,3.2.2021,120.0252533
5,"['high', 32, 2, True]",TRUE,32,white,135,right,up,high,white_high_135_up,black_high_45_up,2,right,0.1702468,1,120,4,3.2.2021,120.0252533
6,"['low', 4, 2, True]",TRUE,4,black,135,left,down,low,black_low_135_down,white_low_45_down,2,right,0.1474784,0,120,4,3.2.2021,120.0252533
7,"['high', 64, 2, True]",TRUE,64,white,135,right,down,high,white_high_135_down,black_high_45_down,2,right,0.3926123,1,120,4,3.2.2021,120.0252533
8,"['low', 1, 2, False]",FALSE,1,white,45,left,down,low,white_low_45_down,black_low_135_down,2,left,0.7125336,1,120,4,3.2.2021,120.0252533
9,"['low', 32, 2, True]",TRUE,32,white,45,left,down,low,white_low_45_down,black_low_135_down,2,left,0.0666974,1,120,4,3.2.2021,120.0252533
10,"['low', 64, 2, True]",TRUE,64,white,135,right,down,low,white_low_135_down,black_low_45_down,2,right,0.6034911,1,120,4,3.2.2021,120.0252533
11,"['high', 3, 60, False]",FALSE,3,black,135,left,down,high,black_high_135_down,white_high_45_down,60,left,0.2576963,1,120,4,3.2.2021,120.0252533
12,"['low', 2, 2, True]",TRUE,2,white,45,left,down,low,white_low_45_down,black_low_135_down,2,left,0.1927917,1,120,4,3.2.2021,120.0252533
13,"['high', 1, 2, True]",TRUE,1,black,45,right,down,high,black_high_45_down,white_high_135_down,2,left,0.1733546,0,120,4,3.2.2021,120.0252533
14,"['low', 16, 2, True]",TRUE,16,black,135,left,down,low,black_low_135_down,white_low_45_down,2,left,0.4095192,1,120,4,3.2.2021,120.0252533
15,"['low', 1, 2, False]",FALSE,1,black,45,right,up,low,black_low_45_up,white_low_135_up,2,left,0.6420973,0,120,4,3.2.2021,120.0252533
16,"['high', 3, 60, False]",FALSE,3,black,45,right,down,high,black_high_45_down,white_high_135_down,60,right,0.1841894,1,120,4,3.2.2021,120.0252533
17,"['high', 16, 2, True]",TRUE,16,black,135,left,up,high,black_high_135_up,white_high_45_up,2,left,0.7150515,1,120,4,3.2.2021,120.0252533
18,"['low', 3, 2, True]",TRUE,3,white,135,right,up,low,white_low_135_up,black_low_45_up,2,right,0.2245068,1,120,4,3.2.2021,120.0252533
19,"['high', 3, 2, True]",TRUE,3,white,135,right,up,high,white_high_135_up,black_high_45_up,2,right,0.1829281,1,120,4,3.2.2021,120.0252533
20,"['low', 16, 2, True]",TRUE,16,white,45,left,up,low,white_low_45_up,black_low_135_up,2,left,0.2086259,1,120,4,3.2.2021,120.0252533
21,"['high', 4, 2, True]",TRUE,4,black,135,left,down,high,black_high_135_down,white_high_45_down,2,left,0.1392825,1,120,4,3.2.2021,120.0252533
22,"['high', 1, 2, True]",TRUE,1,black,135,left,down,high,black_high_135_down,white_high_45_down,2,right,0.2771599,0,120,4,3.2.2021,120.0252533
23,"['low', 2, 2, True]",TRUE,2,black,45,right,down,low,black_low_45_down,white_low_135_down,2,left,0.1586838,0,120,4,3.2.2021,120.0252533
24,"['high', 8, 2, True]",TRUE,8,black,45,right,up,high,black_high_45_up,white_high_135_up,2,right,0.3922329,1,120,4,3.2.2021,120.0252533
25,"['low', 64, 2, True]",TRUE,64,black,135,left,up,low,black_low_135_up,white_low_45_up,2,left,2.0592713,1,120,4,3.2.2021,120.0252533
26,"['low', 32, 2, True]",TRUE,32,black,45,right,down,low,black_low_45_down,white_low_135_down,2,right,0.397951,1,120,4,3.2.2021,120.0252533
27,"['low', 1, 2, True]",TRUE,1,white,45,left,down,low,white_low_45_down,black_low_135_down,2,left,0.2842265,1,120,4,3.2.2021,120.0252533
28,"['high', 1, 2, False]",FALSE,1,black,45,right,up,high,black_high_45_up,white_high_135_up,2,right,0.5614554,1,120,4,3.2.2021,120.0252533
29,"['high', 8, 2, True]",TRUE,8,white,135,right,up,high,white_high_135_up,black_high_45_up,2,right,0.1749698,1,120,4,3.2.2021,120.0252533
30,"['low', 32, 2, True]",TRUE,32,black,45,right,down,low,black_low_45_down,white_low_135_down,2,right,0.2112504,1,120,4,3.2.2021,120.0252533
31,"['high', 1, 2, True]",TRUE,1,black,45,right,up,high,black_high_45_up,white_high_135_up,2,right,0.5131377,1,120,4,3.2.2021,120.0252533
32,"['high', 1, 2, True]",TRUE,1,white,45,left,up,high,white_high_45_up,black_high_135_up,2,left,0.1458369,1,120,4,3.2.2021,120.0252533
33,"['low', 2, 2, True]",TRUE,2,white,45,left,down,low,white_low_45_down,black_low_135_down,2,left,0.1686815,1,120,4,3.2.2021,120.0252533
34,"['high', 1, 2, True]",TRUE,1,black,135,left,down,high,black_high_135_down,white_high_45_down,2,right,0.1884817,0,120,4,3.2.2021,120.0252533
35,"['high', 32, 2, True]",TRUE,32,white,135,right,up,high,white_high_135_up,black_high_45_up,2,right,0.4792324,1,120,4,3.2.2021,120.0252533
36,"['high', 8, 2, True]",TRUE,8,white,135,right,up,high,white_high_135_up,black_high_45_up,2,right,0.5346144,1,120,4,3.2.2021,120.0252533
37,"['low', 32, 2, True]",TRUE,32,white,135,right,up,low,white_low_135_up,black_low_45_up,2,right,0.3967616,1,120,4,3.2.2021,120.0252533
38,"['high', 32, 2, True]",TRUE,32,black,45,right,down,high,black_high_45_down,white_high_135_down,2,right,0.435683,1,120,4,3.2.2021,120.0252533
39,"['low', 1, 2, True]",TRUE,1,white,45,left,up,low,white_low_45_up,black_low_135_up,2,left,0.1184123,1,120,4,3.2.2021,120.0252533
40,"['low', 3, 2, True]",TRUE,3,black,135,left,down,low,black_low_135_down,white_low_45_down,2,right,0.1203396,0,120,4,3.2.2021,120.0252533
41,"['high', 4, 2, True]",TRUE,4,white,135,right,down,high,white_high_135_down,black_high_45_down,2,right,0.2902804,1,120,4,3.2.2021,120.0252533
42,"['high', 3, 2, True]",TRUE,3,black,45,right,up,high,black_high_45_up,white_high_135_up,2,right,0.2112411,1,120,4,3.2.2021,120.0252533
43,"['low', 2, 2, True]",TRUE,2,white,135,right,down,low,white_low_135_down,black_low_45_down,2,right,0.1541791,1,120,4,3.2.2021,120.0252533
44,"['low', 16, 2, True]",TRUE,16,black,135,left,up,low,black_low_135_up,white_low_45_up,2,left,0.7137529,1,120,4,3.2.2021,120.0252533
45,"['low', 2, 2, True]",TRUE,2,white,45,left,down,low,white_low_45_down,black_low_135_down,2,right,0.1574808,0,120,4,3.2.2021,120.0252533
46,"['low', 3, 2, True]",TRUE,3,white,45,left,up,low,white_low_45_up,black_low_135_up,2,left,0.4795056,1,120,4,3.2.2021,120.0252533
47,"['high', 4, 2, True]",TRUE,4,white,45,left,up,high,white_high_45_up,black_high_135_up,2,left,0.0875854,1,120,4,3.2.2021,120.0252533
48,"['low', 32, 2, True]",TRUE,32,black,135,left,up,low,black_low_135_up,white_low_45_up,2,left,0.0500544,1,120,4,3.2.2021,120.0252533
49,"['low', 2, 2, True]",TRUE,2,black,45,right,up,low,black_low_45_up,white_low_135_up,2,right,0.1089645,1,120,4,3.2.2021,120.0252533
50,"['low', 16, 2, True]",TRUE,16,white,45,left,up,low,white_low_45_up,black_low_135_up,2,left,0.510514,1,120,4,3.2.2021,120.0252533
51,"['low', 4, 2, True]",TRUE,4,white,135,right,up,low,white_low_135_up,black_low_45_up,2,right,0.448491,1,120,4,3.2.2021,120.0252533
52,"['high', 8, 2, True]",TRUE,8,white,135,right,down,high,white_high_135_down,black_high_45_down,2,right,0.2343237,1,120,4,3.2.2021,120.0252533
53,"['low', 3, 2, True]",TRUE,3,black,45,right,up,low,black_low_45_up,white_low_135_up,2,left,0.0989228,0,120,4,3.2.2021,120.0252533
54,"['high', 8, 2, True]",TRUE,8,white,135,right,down,high,white_high_135_down,black_high_45_down,2,right,0.802129,1,120,4,3.2.2021,120.0252533
55,"['low', 16, 2, True]",TRUE,16,black,135,left,up,low,black_low_135_up,white_low_45_up,2,left,0.0341746,1,120,4,3.2.2021,120.0252533
56,"['low', 64, 2, True]",TRUE,64,black,135,left,up,low,black_low_135_up,white_low_45_up,2,left,0.3174067,1,120,4,3.2.2021,120.0252533
57,"['low', 8, 2, True]",TRUE,8,white,135,right,down,low,white_low_135_down,black_low_45_down,2,right,0.8290935,1,120,4,3.2.2021,120.0252533
58,"['high', 4, 2, True]",TRUE,4,black,135,left,up,high,black_high_135_up,white_high_45_up,2,left,0.1587974,1,120,4,3.2.2021,120.0252533
59,"['low', 16, 2, True]",TRUE,16,white,135,right,up,low,white_low_135_up,black_low_45_up,2,right,0.6431678,1,120,4,3.2.2021,120.0252533
60,"['high', 2, 2, True]",TRUE,2,black,135,left,down,high,black_high_135_down,white_high_45_down,2,right,0.1379834,0,120,4,3.2.2021,120.0252533
61,"['high', 64, 2, True]",TRUE,64,black,45,right,up,high,black_high_45_up,white_high_135_up,2,right,0.4682456,1,120,4,3.2.2021,120.0252533
62,"['low', 32, 2, True]",TRUE,32,white,45,left,up,low,white_low_45_up,black_low_135_up,2,left,0.7951625,1,120,4,3.2.2021,120.0252533
63,"['low', 32, 2, True]",TRUE,32,black,135,left,down,low,black_low_135_down,white_low_45_down,2,left,0.5416714,1,120,4,3.2.2021,120.0252533
64,"['high', 16, 2, True]",TRUE,16,black,45,right,up,high,black_high_45_up,white_high_135_up,2,right,0.0341028,1,120,4,3.2.2021,120.0252533
65,"['low', 8, 2, True]",TRUE,8,white,45,left,down,low,white_low_45_down,black_low_135_down,2,left,0.0506821,1,120,4,3.2.2021,120.0252533
66,"['low', 3, 2, True]",TRUE,3,white,45,left,down,low,white_low_45_down,black_low_135_down,2,left,0.0713855,1,120,4,3.2.2021,120.0252533
67,"['low', 1, 2, True]",TRUE,1,black,135,left,up,low,black_low_135_up,white_low_45_up,2,right,0.3199443,0,120,4,3.2.2021,120.0252533
68,"['low', 1, 2, True]",TRUE,1,black,45,right,up,low,black_low_45_up,white_low_135_up,2,left,0.0934414,0,120,4,3.2.2021,120.0252533
69,"['high', 32, 2, True]",TRUE,32,white,135,right,up,high,white_high_135_up,black_high_45_up,2,right,0.8743256,1,120,4,3.2.2021,120.0252533
70,"['high', 3, 60, False]",FALSE,3,white,135,right,up,high,white_high_135_up,black_high_45_up,60,right,0.2531347,1,120,4,3.2.2021,120.0252533
71,"['high', 4, 2, True]",TRUE,4,white,135,right,up,high,white_high_135_up,black_high_45_up,2,right,0.0452952,1,120,4,3.2.2021,120.0252533
72,"['high', 1, 2, False]",FALSE,1,black,135,left,up,high,black_high_135_up,white_high_45_up,2,right,0.2964751,0,120,4,3.2.2021,120.0252533
73,"['high', 3, 2, True]",TRUE,3,white,135,right,down,high,white_high_135_down,black_high_45_down,2,right,0.2413378,1,120,4,3.2.2021,120.0252533
74,"['high', 16, 2, True]",TRUE,16,white,45,left,down,high,white_high_45_down,black_high_135_down,2,left,0.2803534,1,120,4,3.2.2021,120.0252533
75,"['low', 4, 2, True]",TRUE,4,white,135,right,up,low,white_low_135_up,black_low_45_up,2,right,0.3769378,1,120,4,3.2.2021,120.0252533
76,"['low', 16, 2, True]",TRUE,16,black,135,left,down,low,black_low_135_down,white_low_45_down,2,left,0.3530006,1,120,4,3.2.2021,120.0252533
77,"['high', 2, 2, True]",TRUE,2,black,45,right,down,high,black_high_45_down,white_high_135_down,2,right,0.073563,1,120,4,3.2.2021,120.0252533
78,"['high', 3, 2, True]",TRUE,3,black,45,right,up,high,black_high_45_up,white_high_135_up,2,right,0.4151073,1,120,4,3.2.2021,120.0252533
79,"['low', 32, 2, True]",TRUE,32,black,135,left,down,low,black_low_135_down,white_low_45_down,2,left,0.6128997,1,120,4,3.2.2021,120.0252533
80,"['high', 16, 2, True]",TRUE,16,white,45,left,down,high,white_high_45_down,black_high_135_down,2,left,0.2010249,1,120,4,3.2.2021,120.0252533
81,"['low', 16, 2, True]",TRUE,16,black,135,left,down,low,black_low_135_down,white_low_45_down,2,left,0.1532811,1,120,4,3.2.2021,120.0252533
82,"['low', 64, 2, True]",TRUE,64,white,135,right,up,low,white_low_135_up,black_low_45_up,2,right,0.4721432,1,120,4,3.2.2021,120.0252533
83,"['low', 1, 2, True]",TRUE,1,white,45,left,up,low,white_low_45_up,black_low_135_up,2,left,0.4612398,1,120,4,3.2.2021,120.0252533
84,"['high', 16, 2, True]",TRUE,16,white,45,left,down,high,white_high_45_down,black_high_135_down,2,left,0.6452627,1,120,4,3.2.2021,120.0252533
85,"['low', 3, 2, True]",TRUE,3,black,45,right,down,low,black_low_45_down,white_low_135_down,2,right,0.1120812,1,120,4,3.2.2021,120.0252533
86,"['low', 1, 2, True]",TRUE,1,black,45,right,up,low,black_low_45_up,white_low_135_up,2,left,0.838658,0,120,4,3.2.2021,120.0252533
87,"['high', 1, 2, False]",FALSE,1,black,45,right,down,high,black_high_45_down,white_high_135_down,2,right,0.4574965,1,120,4,3.2.2021,120.0252533
88,"['high', 32, 2, True]",TRUE,32,white,135,right,up,high,white_high_135_up,black_high_45_up,2,left,0.3890499,0,120,4,3.2.2021,120.0252533
89,"['low', 3, 2, True]",TRUE,3,white,135,right,down,low,white_low_135_down,black_low_45_down,2,right,0.1515152,1,120,4,3.2.2021,120.0252533
90,"['high', 32, 2, True]",TRUE,32,black,45,right,up,high,black_high_45_up,white_high_135_up,2,left,0.3515051,0,120,4,3.2.2021,120.0252533
91,"['low', 2, 2, True]",TRUE,2,white,45,left,up,low,white_low_45_up,black_low_135_up,2,right,0.2612993,0,120,4,3.2.2021,120.0252533
92,"['low', 32, 2, True]",TRUE,32,black,135,left,up,low,black_low_135_up,white_low_45_up,2,left,0.6931513,1,120,4,3.2.2021,120.0252533
93,"['high', 3, 2, True]",TRUE,3,white,135,right,down,high,white_high_135_down,black_high_45_down,2,right,0.2173342,1,120,4,3.2.2021,120.0252533
94,"['high', 8, 2, True]",TRUE,8,white,135,right,down,high,white_high_135_down,black_high_45_down,2,right,0.2465877,1,120,4,3.2.2021,120.0252533
95,"['high', 64, 2, True]",TRUE,64,black,135,left,up,high,black_high_135_up,white_high_45_up,2,left,0.0084712,1,120,4,3.2.2021,120.0252533
96,"['high', 1, 2, True]",TRUE,1,black,45,right,down,high,black_high_45_down,white_high_135_down,2,right,0.2496552,1,120,4,3.2.2021,120.0252533
97,"['high', 2, 2, True]",TRUE,2,white,135,right,up,high,white_high_135_up,black_high_45_up,2,right,0.4562537,1,120,4,3.2.2021,120.0252533
98,"['low', 32, 2, True]",TRUE,32,black,45,right,up,low,black_low_45_up,white_low_135_up,2,right,0.1461544,1,120,4,3.2.2021,120.0252533
99,"['low', 8, 2, True]",TRUE,8,white,45,left,up,low,white_low_45_up,black_low_135_up,2,left,0.2409199,1,120,4,3.2.2021,120.0252533
100,"['low', 64, 2, True]",TRUE,64,black,45,right,down,low,black_low_45_down,white_low_135_down,2,right,0.9086609,1,120,4,3.2.2021,120.0252533
101,"['high', 8, 2, True]",TRUE,8,white,45,left,up,high,white_high_45_up,black_high_135_up,2,left,0.2243936,1,120,4,3.2.2021,120.0252533
102,"['low', 64, 2, True]",TRUE,64,black,135,left,up,low,black_low_135_up,white_low_45_up,2,left,0.5695158,1,120,4,3.2.2021,120.0252533
103,"['high', 3, 2, True]",TRUE,3,white,135,right,down,high,white_high_135_down,black_high_45_down,2,right,0.1970164,1,120,4,3.2.2021,120.0252533
104,"['low', 1, 2, False]",FALSE,1,white,135,right,up,low,white_low_135_up,black_low_45_up,2,right,0.3897594,1,120,4,3.2.2021,120.0252533
105,"['high', 1, 2, False]",FALSE,1,black,135,left,up,high,black_high_135_up,white_high_45_up,2,right,0.3644391,0,120,4,3.2.2021,120.0252533
106,"['high', 3, 60, False]",FALSE,3,black,135,left,up,high,black_high_135_up,white_high_45_up,60,left,0.3386155,1,120,4,3.2.2021,120.0252533
107,"['high', 2, 2, True]",TRUE,2,white,135,right,down,high,white_high_135_down,black_high_45_down,2,right,0.0942219,1,120,4,3.2.2021,120.0252533
108,"['low', 1, 2, True]",TRUE,1,white,135,right,down,low,white_low_135_down,black_low_45_down,2,right,0.1704698,1,120,4,3.2.2021,120.0252533
109,"['high', 16, 2, True]",TRUE,16,white,45,left,down,high,white_high_45_down,black_high_135_down,2,left,0.1912486,1,120,4,3.2.2021,120.0252533
110,"['high', 1, 2, False]",FALSE,1,black,135,left,down,high,black_high_135_down,white_high_45_down,2,right,0.2687503,0,120,4,3.2.2021,120.0252533
111,"['high', 32, 2, True]",TRUE,32,black,135,left,up,high,black_high_135_up,white_high_45_up,2,left,0.4577692,1,120,4,3.2.2021,120.0252533
112,"['low', 1, 2, True]",TRUE,1,white,45,left,down,low,white_low_45_down,black_low_135_down,2,right,0.1288262,0,120,4,3.2.2021,120.0252533
113,"['high', 64, 2, True]",TRUE,64,white,45,left,down,high,white_high_45_down,black_high_135_down,2,left,0.6151059,1,120,4,3.2.2021,120.0252533
114,"['high', 4, 2, True]",TRUE,4,white,45,left,up,high,white_high_45_up,black_high_135_up,2,left,0.459231,1,120,4,3.2.2021,120.0252533
115,"['high', 1, 2, True]",TRUE,1,black,135,left,up,high,black_high_135_up,white_high_45_up,2,right,0.2403448,0,120,4,3.2.2021,120.0252533
116,"['high', 3, 2, True]",TRUE,3,black,135,left,down,high,black_high_135_down,white_high_45_down,2,right,0.820506,0,120,4,3.2.2021,120.0252533
117,"['low', 64, 2, True]",TRUE,64,black,135,left,up,low,black_low_135_up,white_low_45_up,2,left,0.6452832,1,120,4,3.2.2021,120.0252533
118,"['high', 3, 2, True]",TRUE,3,white,45,left,up,high,white_high_45_up,black_high_135_up,2,right,0.2798822,0,120,4,3.2.2021,120.0252533
119,"['low', 3, 2, True]",TRUE,3,white,45,left,down,low,white_low_45_down,black_low_135_down,2,left,0.19007,1,120,4,3.2.2021,120.0252533
120,"['low', 1, 2, False]",FALSE,1,black,135,left,down,low,black_low_135_down,white_low_45_down,2,left,0.4318226,1,120,4,3.2.2021,120.0252533
121,"['high', 1, 2, False]",FALSE,1,white,135,right,up,high,white_high_135_up,black_high_45_up,2,right,0.5304192,1,120,4,3.2.2021,120.0252533
122,"['high', 64, 2, True]",TRUE,64,white,45,left,up,high,white_high_45_up,black_high_135_up,2,left,0.2170012,1,120,4,3.2.2021,120.0252533
123,"['low', 32, 2, True]",TRUE,32,white,45,left,up,low,white_low_45_up,black_low_135_up,2,left,0.0149367,1,120,4,3.2.2021,120.0252533
124,"['high', 64, 2, True]",TRUE,64,white,45,left,down,high,white_high_45_down,black_high_135_down,2,left,0.3555495,1,120,4,3.2.2021,120.0252533
125,"['low', 1, 2, True]",TRUE,1,black,45,right,up,low,black_low_45_up,white_low_135_up,2,right,0.4205705,1,120,4,3.2.2021,120.0252533
126,"['high', 4, 2, True]",TRUE,4,white,45,left,up,high,white_high_45_up,black_high_135_up,2,left,0.2245744,1,120,4,3.2.2021,120.0252533
127,"['high', 1, 2, False]",FALSE,1,white,135,right,down,high,white_high_135_down,black_high_45_down,2,left,0.6812612,0,120,4,3.2.2021,120.0252533
128,"['high', 1, 2, False]",FALSE,1,white,45,left,up,high,white_high_45_up,black_high_135_up,2,left,0.4475147,1,120,4,3.2.2021,120.0252533
129,"['low', 1, 2, False]",FALSE,1,black,135,left,up,low,black_low_135_up,white_low_45_up,2,left,0.4091143,1,120,4,3.2.2021,120.0252533
130,"['low', 8, 2, True]",TRUE,8,white,45,left,down,low,white_low_45_down,black_low_135_down,2,left,0.1352785,1,120,4,3.2.2021,120.0252533
131,"['low', 8, 2, True]",TRUE,8,white,45,left,up,low,white_low_45_up,black_low_135_up,2,left,0.177517,1,120,4,3.2.2021,120.0252533
132,"['high', 32, 2, True]",TRUE,32,white,45,left,down,high,white_high_45_down,black_high_135_down,2,left,0.4369587,1,120,4,3.2.2021,120.0252533
133,"['high', 2, 2, True]",TRUE,2,black,135,left,down,high,black_high_135_down,white_high_45_down,2,left,0.2723845,1,120,4,3.2.2021,120.0252533
134,"['high', 2, 2, True]",TRUE,2,black,45,right,down,high,black_high_45_down,white_high_135_down,2,left,0.1810123,0,120,4,3.2.2021,120.0252533
135,"['high', 8, 2, True]",TRUE,8,white,135,right,down,high,white_high_135_down,black_high_45_down,2,left,0.0997641,0,120,4,3.2.2021,120.0252533
136,"['low', 1, 2, False]",FALSE,1,black,45,right,up,low,black_low_45_up,white_low_135_up,2,left,0.3672989,0,120,4,3.2.2021,120.0252533
137,"['low', 2, 2, True]",TRUE,2,black,135,left,up,low,black_low_135_up,white_low_45_up,2,left,0.0481713,1,120,4,3.2.2021,120.0252533
138,"['low', 4, 2, True]",TRUE,4,white,45,left,down,low,white_low_45_down,black_low_135_down,2,left,0.0676606,1,120,4,3.2.2021,120.0252533
139,"['low', 1, 2, True]",TRUE,1,white,135,right,down,low,white_low_135_down,black_low_45_down,2,right,0.3689219,1,120,4,3.2.2021,120.0252533
140,"['high', 1, 2, True]",TRUE,1,black,45,right,down,high,black_high_45_down,white_high_135_down,2,right,0.3644326,1,120,4,3.2.2021,120.0252533
141,"['low', 2, 2, True]",TRUE,2,black,45,right,up,low,black_low_45_up,white_low_135_up,2,right,0.7161318,1,120,4,3.2.2021,120.0252533
142,"['low', 1, 2, True]",TRUE,1,black,135,left,down,low,black_low_135_down,white_low_45_down,2,right,0.2494376,0,120,4,3.2.2021,120.0252533
143,"['low', 2, 2, True]",TRUE,2,black,45,right,down,low,black_low_45_down,white_low_135_down,2,right,0.0662446,1,120,4,3.2.2021,120.0252533
144,"['high', 32, 2, True]",TRUE,32,white,45,left,up,high,white_high_45_up,black_high_135_up,2,left,0.0261101,1,120,4,3.2.2021,120.0252533
145,"['low', 4, 2, True]",TRUE,4,white,135,right,up,low,white_low_135_up,black_low_45_up,2,right,0.4629505,1,120,4,3.2.2021,120.0252533
146,"['low', 2, 2, True]",TRUE,2,white,135,right,down,low,white_low_135_down,black_low_45_down,2,right,0.0738382,1,120,4,3.2.2021,120.0252533
147,"['low', 2, 2, True]",TRUE,2,black,45,right,up,low,black_low_45_up,white_low_135_up,2,right,0.1294898,1,120,4,3.2.2021,120.0252533
148,"['low', 32, 2, True]",TRUE,32,black,135,left,down,low,black_low_135_down,white_low_45_down,2,left,0.2704849,1,120,4,3.2.2021,120.0252533
149,"['high', 2, 2, True]",TRUE,2,white,135,right,up,high,white_high_135_up,black_high_45_up,2,right,0.0993224,1,120,4,3.2.2021,120.0252533
150,"['high', 64, 2, True]",TRUE,64,white,45,left,up,high,white_high_45_up,black_high_135_up,2,left,0.483662,1,120,4,3.2.2021,120.0252533
151,"['high', 4, 2, True]",TRUE,4,white,135,right,up,high,white_high_135_up,black_high_45_up,2,right,0.1586071,1,120,4,3.2.2021,120.0252533
152,"['high', 64, 2, True]",TRUE,64,black,45,right,down,high,black_high_45_down,white_high_135_down,2,right,0.6459868,1,120,4,3.2.2021,120.0252533
153,"['high', 2, 2, True]",TRUE,2,black,45,right,down,high,black_high_45_down,white_high_135_down,2,right,0.4678241,1,120,4,3.2.2021,120.0252533
154,"['low', 3, 2, True]",TRUE,3,white,135,right,down,low,white_low_135_down,black_low_45_down,2,right,0.3691146,1,120,4,3.2.2021,120.0252533
155,"['low', 2, 2, True]",TRUE,2,white,135,right,down,low,white_low_135_down,black_low_45_down,2,right,0.3233224,1,120,4,3.2.2021,120.0252533
156,"['low', 64, 2, True]",TRUE,64,white,45,left,up,low,white_low_45_up,black_low_135_up,2,left,0.0778773,1,120,4,3.2.2021,120.0252533
157,"['high', 4, 2, True]",TRUE,4,black,45,right,up,high,black_high_45_up,white_high_135_up,2,right,1.0521273,1,120,4,3.2.2021,120.0252533
158,"['low', 32, 2, True]",TRUE,32,white,135,right,down,low,white_low_135_down,black_low_45_down,2,right,0.1701138,1,120,4,3.2.2021,120.0252533
159,"['high', 32, 2, True]",TRUE,32,white,45,left,up,high,white_high_45_up,black_high_135_up,2,left,0.465231,1,120,4,3.2.2021,120.0252533
160,"['low', 16, 2, True]",TRUE,16,white,135,right,up,low,white_low_135_up,black_low_45_up,2,right,0.2382184,1,120,4,3.2.2021,120.0252533
161,"['low', 32, 2, True]",TRUE,32,white,45,left,up,low,white_low_45_up,black_low_135_up,2,left,0.5744933,1,120,4,3.2.2021,120.0252533
162,"['low', 16, 2, True]",TRUE,16,black,45,right,up,low,black_low_45_up,white_low_135_up,2,right,0.1261697,1,120,4,3.2.2021,120.0252533
163,"['high', 64, 2, True]",TRUE,64,white,45,left,down,high,white_high_45_down,black_high_135_down,2,left,0.3203634,1,120,4,3.2.2021,120.0252533
164,"['low', 32, 2, True]",TRUE,32,white,135,right,up,low,white_low_135_up,black_low_45_up,2,right,0.5318217,1,120,4,3.2.2021,120.0252533
165,"['low', 32, 2, True]",TRUE,32,black,45,right,down,low,black_low_45_down,white_low_135_down,2,right,0.3761907,1,120,4,3.2.2021,120.0252533
166,"['high', 3, 2, True]",TRUE,3,white,135,right,up,high,white_high_135_up,black_high_45_up,2,right,0.2641195,1,120,4,3.2.2021,120.0252533
167,"['low', 1, 2, False]",FALSE,1,white,45,left,down,low,white_low_45_down,black_low_135_down,2,left,0.7612883,1,120,4,3.2.2021,120.0252533
168,"['high', 1, 2, False]",FALSE,1,white,135,right,up,high,white_high_135_up,black_high_45_up,2,right,0.4307152,1,120,4,3.2.2021,120.0252533
169,"['high', 16, 2, True]",TRUE,16,black,135,left,up,high,black_high_135_up,white_high_45_up,2,left,0.5361217,1,120,4,3.2.2021,120.0252533
170,"['low', 32, 2, True]",TRUE,32,white,45,left,up,low,white_low_45_up,black_low_135_up,2,left,0.1783824,1,120,4,3.2.2021,120.0252533
171,"['low', 2, 2, True]",TRUE,2,white,45,left,up,low,white_low_45_up,black_low_135_up,2,left,0.4688433,1,120,4,3.2.2021,120.0252533
172,"['high', 1, 2, False]",FALSE,1,black,45,right,up,high,black_high_45_up,white_high_135_up,2,right,0.3573687,1,120,4,3.2.2021,120.0252533
173,"['high', 8, 2, True]",TRUE,8,black,45,right,up,high,black_high_45_up,white_high_135_up,2,right,0.3311053,1,120,4,3.2.2021,120.0252533
174,"['high', 32, 2, True]",TRUE,32,white,135,right,up,high,white_high_135_up,black_high_45_up,2,right,0.330632,1,120,4,3.2.2021,120.0252533
175,"['high', 8, 2, True]",TRUE,8,black,135,left,down,high,black_high_135_down,white_high_45_down,2,left,0.3535945,1,120,4,3.2.2021,120.0252533
176,"['high', 2, 2, True]",TRUE,2,white,45,left,down,high,white_high_45_down,black_high_135_down,2,right,0.1425512,0,120,4,3.2.2021,120.0252533
177,"['low', 4, 2, True]",TRUE,4,white,135,right,up,low,white_low_135_up,black_low_45_up,2,right,0.3223446,1,120,4,3.2.2021,120.0252533
178,"['high', 1, 2, False]",FALSE,1,white,135,right,up,high,white_high_135_up,black_high_45_up,2,right,0.2456497,1,120,4,3.2.2021,120.0252533
179,"['high', 32, 2, True]",TRUE,32,black,135,left,up,high,black_high_135_up,white_high_45_up,2,left,0.2204499,1,120,4,3.2.2021,120.0252533
180,"['low', 1, 2, False]",FALSE,1,black,45,right,down,low,black_low_45_down,white_low_135_down,2,right,0.3203577,1,120,4,3.2.2021,120.0252533
181,"['high', 64, 2, True]",TRUE,64,white,135,right,down,high,white_high_135_down,black_high_45_down,2,right,0.5099526,1,120,4,3.2.2021,120.0252533
182,"['low', 64, 2, True]",TRUE,64,white,45,left,up,low,white_low_45_up,black_low_135_up,2,left,0.3353118,1,120,4,3.2.2021,120.0252533
183,"['low', 4, 2, True]",TRUE,4,black,135,left,down,low,black_low_135_down,white_low_45_down,2,left,0.1965364,1,120,4,3.2.2021,120.0252533
184,"['low', 16, 2, True]",TRUE,16,black,45,right,up,low,black_low_45_up,white_low_135_up,2,right,0.2005653,1,120,4,3.2.2021,120.0252533
185,"['low', 16, 2, True]",TRUE,16,black,45,right,down,low,black_low_45_down,white_low_135_down,2,right,0.0530237,1,120,4,3.2.2021,120.0252533
186,"['low', 8, 2, True]",TRUE,8,black,45,right,down,low,black_low_45_down,white_low_135_down,2,right,0.2300906,1,120,4,3.2.2021,120.0252533
187,"['high', 8, 2, True]",TRUE,8,white,45,left,up,high,white_high_45_up,black_high_135_up,2,left,0.2227203,1,120,4,3.2.2021,120.0252533
188,"['high', 2, 2, True]",TRUE,2,black,135,left,down,high,black_high_135_down,white_high_45_down,2,right,0.0846804,0,120,4,3.2.2021,120.0252533
189,"['low', 8, 2, True]",TRUE,8,black,135,left,up,low,black_low_135_up,white_low_45_up,2,left,0.1453689,1,120,4,3.2.2021,120.0252533
190,"['low', 4, 2, True]",TRUE,4,white,45,left,up,low,white_low_45_up,black_low_135_up,2,left,0.1823954,1,120,4,3.2.2021,120.0252533
191,"['high', 2, 2, True]",TRUE,2,black,135,left,up,high,black_high_135_up,white_high_45_up,2,right,0.252404,0,120,4,3.2.2021,120.0252533
192,"['low', 3, 2, True]",TRUE,3,white,45,left,down,low,white_low_45_down,black_low_135_down,2,left,0.095815,1,120,4,3.2.2021,120.0252533
193,"['high', 16, 2, True]",TRUE,16,black,45,right,down,high,black_high_45_down,white_high_135_down,2,right,0.0099098,1,120,4,3.2.2021,120.0252533
194,"['high', 1, 2, True]",TRUE,1,white,45,left,down,high,white_high_45_down,black_high_135_down,2,left,0.0720754,1,120,4,3.2.2021,120.0252533
195,"['low', 3, 2, True]",TRUE,3,white,45,left,down,low,white_low_45_down,black_low_135_down,2,left,0.3171357,1,120,4,3.2.2021,120.0252533
196,"['low', 64, 2, True]",TRUE,64,white,135,right,up,low,white_low_135_up,black_low_45_up,2,right,0.0611217,1,120,4,3.2.2021,120.0252533
197,"['low', 32, 2, True]",TRUE,32,white,45,left,up,low,white_low_45_up,black_low_135_up,2,left,0.0388095,1,120,4,3.2.2021,120.0252533
198,"['high', 64, 2, True]",TRUE,64,black,135,left,up,high,black_high_135_up,white_high_45_up,2,left,0.5892531,1,120,4,3.2.2021,120.0252533
199,"['high', 1, 2, False]",FALSE,1,white,135,right,down,high,white_high_135_down,black_high_45_down,2,right,0.2738673,1,120,4,3.2.2021,120.0252533
200,"['low', 2, 2, True]",TRUE,2,black,45,right,down,low,black_low_45_down,white_low_135_down,2,right,0.0883155,1,120,4,3.2.2021,120.0252533
201,"['high', 3, 2, True]",TRUE,3,black,45,right,up,high,black_high_45_up,white_high_135_up,2,right,0.2833717,1,120,4,3.2.2021,120.0252533
202,"['high', 4, 2, True]",TRUE,4,white,45,left,up,high,white_high_45_up,black_high_135_up,2,left,0.1955002,1,120,4,3.2.2021,120.0252533
203,"['high', 1, 2, True]",TRUE,1,black,45,right,down,high,black_high_45_down,white_high_135_down,2,right,0.3958566,1,120,4,3.2.2021,120.0252533
204,"['low', 8, 2, True]",TRUE,8,white,45,left,up,low,white_low_45_up,black_low_135_up,2,left,0.5443855,1,120,4,3.2.2021,120.0252533
205,"['low', 1, 2, False]",FALSE,1,black,45,right,up,low,black_low_45_up,white_low_135_up,2,left,0.6889282,0,120,4,3.2.2021,120.0252533
206,"['high', 16, 2, True]",TRUE,16,white,135,right,up,high,white_high_135_up,black_high_45_up,2,right,0.362207,1,120,4,3.2.2021,120.0252533
207,"['high', 8, 2, True]",TRUE,8,black,135,left,up,high,black_high_135_up,white_high_45_up,2,left,0.1767571,1,120,4,3.2.2021,120.0252533
208,"['high', 16, 2, True]",TRUE,16,black,135,left,up,high,black_high_135_up,white_high_45_up,2,left,0.0754559,1,120,4,3.2.2021,120.0252533
209,"['high', 32, 2, True]",TRUE,32,black,45,right,down,high,black_high_45_down,white_high_135_down,2,right,0.0863906,1,120,4,3.2.2021,120.0252533
210,"['high', 16, 2, True]",TRUE,16,white,45,left,down,high,white_high_45_down,black_high_135_down,2,left,0.1330157,1,120,4,3.2.2021,120.0252533
211,"['high', 4, 2, True]",TRUE,4,black,135,left,down,high,black_high_135_down,white_high_45_down,2,left,0.3840299,1,120,4,3.2.2021,120.0252533
212,"['low', 1, 2, False]",FALSE,1,white,135,right,down,low,white_low_135_down,black_low_45_down,2,right,0.447809,1,120,4,3.2.2021,120.0252533
213,"['high', 16, 2, True]",TRUE,16,white,135,right,down,high,white_high_135_down,black_high_45_down,2,right,0.1459538,1,120,4,3.2.2021,120.0252533
214,"['low', 64, 2, True]",TRUE,64,black,45,right,up,low,black_low_45_up,white_low_135_up,2,right,0.137082,1,120,4,3.2.2021,120.0252533
215,"['high', 64, 2, True]",TRUE,64,white,135,right,up,high,white_high_135_up,black_high_45_up,2,right,0.1400277,1,120,4,3.2.2021,120.0252533
216,"['low', 2, 2, True]",TRUE,2,white,45,left,down,low,white_low_45_down,black_low_135_down,2,left,0.1383322,1,120,4,3.2.2021,120.0252533
217,"['high', 32, 2, True]",TRUE,32,black,135,left,up,high,black_high_135_up,white_high_45_up,2,left,0.1693519,1,120,4,3.2.2021,120.0252533
218,"['high', 3, 2, True]",TRUE,3,white,45,left,down,high,white_high_45_down,black_high_135_down,2,right,0.287261,0,120,4,3.2.2021,120.0252533
219,"['low', 8, 2, True]",TRUE,8,white,45,left,up,low,white_low_45_up,black_low_135_up,2,left,0.2188456,1,120,4,3.2.2021,120.0252533
220,"['high', 4, 2, True]",TRUE,4,white,45,left,down,high,white_high_45_down,black_high_135_down,2,left,0.395181,1,120,4,3.2.2021,120.0252533
221,"['high', 32, 2, True]",TRUE,32,black,135,left,down,high,black_high_135_down,white_high_45_down,2,left,0.0518979,1,120,4,3.2.2021,120.0252533
222,"['low', 4, 2, True]",TRUE,4,black,135,left,down,low,black_low_135_down,white_low_45_down,2,left,0.1314885,1,120,4,3.2.2021,120.0252533
223,"['high', 8, 2, True]",TRUE,8,white,45,left,down,high,white_high_45_down,black_high_135_down,2,left,0.1679072,1,120,4,3.2.2021,120.0252533
224,"['high', 8, 2, True]",TRUE,8,black,135,left,up,high,black_high_135_up,white_high_45_up,2,left,0.3849991,1,120,4,3.2.2021,120.0252533
225,"['high', 64, 2, True]",TRUE,64,white,45,left,down,high,white_high_45_down,black_high_135_down,2,left,0.4385737,1,120,4,3.2.2021,120.0252533
226,"['low', 4, 2, True]",TRUE,4,black,135,left,down,low,black_low_135_down,white_low_45_down,2,left,0.8877685,1,120,4,3.2.2021,120.0252533
227,"['high', 3, 2, True]",TRUE,3,white,45,left,down,high,white_high_45_down,black_high_135_down,2,left,0.269674,1,120,4,3.2.2021,120.0252533
228,"['high', 3, 2, True]",TRUE,3,white,135,right,up,high,white_high_135_up,black_high_45_up,2,left,0.2440972,0,120,4,3.2.2021,120.0252533
229,"['low', 2, 2, True]",TRUE,2,black,45,right,down,low,black_low_45_down,white_low_135_down,2,right,0.7878297,1,120,4,3.2.2021,120.0252533
230,"['high', 32, 2, True]",TRUE,32,white,135,right,down,high,white_high_135_down,black_high_45_down,2,right,0.39228,1,120,4,3.2.2021,120.0252533
231,"['high', 4, 2, True]",TRUE,4,black,135,left,up,high,black_high_135_up,white_high_45_up,2,right,0.0504355,0,120,4,3.2.2021,120.0252533
232,"['high', 64, 2, True]",TRUE,64,white,135,right,down,high,white_high_135_down,black_high_45_down,2,right,0.091478,1,120,4,3.2.2021,120.0252533
233,"['low', 1, 2, True]",TRUE,1,white,135,right,up,low,white_low_135_up,black_low_45_up,2,left,0.3802193,0,120,4,3.2.2021,120.0252533
234,"['high', 3, 60, False]",FALSE,3,black,135,left,down,high,black_high_135_down,white_high_45_down,60,left,0.2503472,1,120,4,3.2.2021,120.0252533
235,"['low', 32, 2, True]",TRUE,32,black,45,right,down,low,black_low_45_down,white_low_135_down,2,right,0.2359042,1,120,4,3.2.2021,120.0252533
236,"['high', 3, 2, True]",TRUE,3,white,135,right,up,high,white_high_135_up,black_high_45_up,2,right,2.077711,1,120,4,3.2.2021,120.0252533
237,"['high', 2, 2, True]",TRUE,2,white,135,right,down,high,white_high_135_down,black_high_45_down,2,right,0.2844113,1,120,4,3.2.2021,120.0252533
238,"['high', 1, 2, True]",TRUE,1,white,45,left,up,high,white_high_45_up,black_high_135_up,2,left,0.3354519,1,120,4,3.2.2021,120.0252533
239,"['high', 1, 2, True]",TRUE,1,black,45,right,up,high,black_high_45_up,white_high_135_up,2,left,0.3779383,0,120,4,3.2.2021,120.0252533
240,"['high', 2, 2, True]",TRUE,2,black,135,left,up,high,black_high_135_up,white_high_45_up,2,right,0.147249,0,120,4,3.2.2021,120.0252533
241,"['high', 3, 60, False]",FALSE,3,black,135,left,down,high,black_high_135_down,white_high_45_down,60,left,0.2548187,1,120,4,3.2.2021,120.0252533
242,"['high', 1, 2, True]",TRUE,1,white,45,left,down,high,white_high_45_down,black_high_135_down,2,right,0.1869455,0,120,4,3.2.2021,120.0252533
243,"['high', 2, 2, True]",TRUE,2,white,45,left,down,high,white_high_45_down,black_high_135_down,2,right,0.2791481,0,120,4,3.2.2021,120.0252533
244,"['high', 64, 2, True]",TRUE,64,black,45,right,up,high,black_high_45_up,white_high_135_up,2,right,0.1252365,1,120,4,3.2.2021,120.0252533
245,"['high', 32, 2, True]",TRUE,32,white,45,left,up,high,white_high_45_up,black_high_135_up,2,left,0.0949852,1,120,4,3.2.2021,120.0252533
246,"['high', 8, 2, True]",TRUE,8,white,135,right,down,high,white_high_135_down,black_high_45_down,2,right,0.6039411,1,120,4,3.2.2021,120.0252533
247,"['low', 16, 2, True]",TRUE,16,white,135,right,up,low,white_low_135_up,black_low_45_up,2,right,1.0029205,1,120,4,3.2.2021,120.0252533
248,"['high', 1, 2, True]",TRUE,1,white,45,left,up,high,white_high_45_up,black_high_135_up,2,right,0.2503463,0,120,4,3.2.2021,120.0252533
249,"['low', 3, 2, True]",TRUE,3,white,45,left,down,low,white_low_45_down,black_low_135_down,2,left,0.3409601,1,120,4,3.2.2021,120.0252533
250,"['high', 3, 2, True]",TRUE,3,white,45,left,down,high,white_high_45_down,black_high_135_down,2,right,0.1487125,0,120,4,3.2.2021,120.0252533
251,"['high', 1, 2, False]",FALSE,1,white,45,left,down,high,white_high_45_down,black_high_135_down,2,left,0.4496309,1,120,4,3.2.2021,120.0252533
252,"['high', 4, 2, True]",TRUE,4,white,135,right,down,high,white_high_135_down,black_high_45_down,2,right,0.1041368,1,120,4,3.2.2021,120.0252533
253,"['high', 1, 2, True]",TRUE,1,white,135,right,up,high,white_high_135_up,black_high_45_up,2,left,0.1361698,0,120,4,3.2.2021,120.0252533
254,"['high', 64, 2, True]",TRUE,64,white,135,right,up,high,white_high_135_up,black_high_45_up,2,right,0.3170542,1,120,4,3.2.2021,120.0252533
255,"['high', 1, 2, False]",FALSE,1,black,45,right,down,high,black_high_45_down,white_high_135_down,2,right,0.4669438,1,120,4,3.2.2021,120.0252533
256,"['low', 1, 2, False]",FALSE,1,white,45,left,up,low,white_low_45_up,black_low_135_up,2,left,0.3561425,1,120,4,3.2.2021,120.0252533
257,"['low', 2, 2, True]",TRUE,2,black,45,right,down,low,black_low_45_down,white_low_135_down,2,right,0.1400904,1,120,4,3.2.2021,120.0252533
258,"['low', 1, 2, True]",TRUE,1,black,135,left,up,low,black_low_135_up,white_low_45_up,2,right,0.5992693,0,120,4,3.2.2021,120.0252533
259,"['high', 4, 2, True]",TRUE,4,black,45,right,up,high,black_high_45_up,white_high_135_up,2,right,0.1530174,1,120,4,3.2.2021,120.0252533
260,"['high', 3, 2, True]",TRUE,3,black,45,right,up,high,black_high_45_up,white_high_135_up,2,right,0.3544141,1,120,4,3.2.2021,120.0252533
261,"['high', 64, 2, True]",TRUE,64,black,45,right,up,high,black_high_45_up,white_high_135_up,2,right,0.8823042,1,120,4,3.2.2021,120.0252533
262,"['high', 1, 2, True]",TRUE,1,black,45,right,up,high,black_high_45_up,white_high_135_up,2,right,0.1050487,1,120,4,3.2.2021,120.0252533
263,"['low', 3, 2, True]",TRUE,3,white,135,right,up,low,white_low_135_up,black_low_45_up,2,right,0.2084916,1,120,4,3.2.2021,120.0252533
264,"['low', 1, 2, True]",TRUE,1,white,45,left,up,low,white_low_45_up,black_low_135_up,2,left,0.1109139,1,120,4,3.2.2021,120.0252533
265,"['low', 16, 2, True]",TRUE,16,white,135,right,up,low,white_low_135_up,black_low_45_up,2,right,0.377675,1,120,4,3.2.2021,120.0252533
266,"['low', 1, 2, True]",TRUE,1,white,135,right,up,low,white_low_135_up,black_low_45_up,2,right,0.1777476,1,120,4,3.2.2021,120.0252533
267,"['high', 8, 2, True]",TRUE,8,black,135,left,up,high,black_high_135_up,white_high_45_up,2,right,0.1914636,0,120,4,3.2.2021,120.0252533
268,"['high', 1, 2, True]",TRUE,1,white,135,right,down,high,white_high_135_down,black_high_45_down,2,right,0.1256668,1,120,4,3.2.2021,120.0252533
269,"['low', 8, 2, True]",TRUE,8,white,135,right,down,low,white_low_135_down,black_low_45_down,2,right,0.1159497,1,120,4,3.2.2021,120.0252533
270,"['high', 16, 2, True]",TRUE,16,white,135,right,down,high,white_high_135_down,black_high_45_down,2,right,0.114539,1,120,4,3.2.2021,120.0252533
271,"['high', 4, 2, True]",TRUE,4,white,45,left,up,high,white_high_45_up,black_high_135_up,2,right,0.3457939,0,120,4,3.2.2021,120.0252533
272,"['high', 16, 2, True]",TRUE,16,black,135,left,down,high,black_high_135_down,white_high_45_down,2,right,0.346686,0,120,4,3.2.2021,120.0252533
273,"['high', 4, 2, True]",TRUE,4,black,45,right,down,high,black_high_45_down,white_high_135_down,2,right,0.248219,1,120,4,3.2.2021,120.0252533
274,"['low', 2, 2, True]",TRUE,2,white,45,left,up,low,white_low_45_up,black_low_135_up,2,left,0.2713921,1,120,4,3.2.2021,120.0252533
275,"['low', 64, 2, True]",TRUE,64,black,45,right,down,low,black_low_45_down,white_low_135_down,2,right,0.0871212,1,120,4,3.2.2021,120.0252533
276,"['low', 3, 2, True]",TRUE,3,black,45,right,up,low,black_low_45_up,white_low_135_up,2,right,0.2467614,1,120,4,3.2.2021,120.0252533
277,"['low', 1, 2, False]",FALSE,1,white,135,right,up,low,white_low_135_up,black_low_45_up,2,right,0.4801472,1,120,4,3.2.2021,120.0252533
278,"['low', 16, 2, True]",TRUE,16,black,135,left,down,low,black_low_135_down,white_low_45_down,2,left,0.0862954,1,120,4,3.2.2021,120.0252533
279,"['low', 2, 2, True]",TRUE,2,white,45,left,down,low,white_low_45_down,black_low_135_down,2,left,0.159032,1,120,4,3.2.2021,120.0252533
280,"['high', 4, 2, True]",TRUE,4,white,45,left,up,high,white_high_45_up,black_high_135_up,2,left,0.2272212,1,120,4,3.2.2021,120.0252533
281,"['high', 1, 2, False]",FALSE,1,black,45,right,up,high,black_high_45_up,white_high_135_up,2,right,0.3906566,1,120,4,3.2.2021,120.0252533
282,"['low', 3, 2, True]",TRUE,3,white,45,left,up,low,white_low_45_up,black_low_135_up,2,left,0.2350505,1,120,4,3.2.2021,120.0252533
283,"['high', 16, 2, True]",TRUE,16,black,135,left,down,high,black_high_135_down,white_high_45_down,2,left,0.1428766,1,120,4,3.2.2021,120.0252533
284,"['high', 64, 2, True]",TRUE,64,black,135,left,up,high,black_high_135_up,white_high_45_up,2,left,0.3633088,1,120,4,3.2.2021,120.0252533
285,"['low', 1, 2, False]",FALSE,1,white,45,left,up,low,white_low_45_up,black_low_135_up,2,left,0.2853227,1,120,4,3.2.2021,120.0252533
286,"['high', 64, 2, True]",TRUE,64,white,45,left,up,high,white_high_45_up,black_high_135_up,2,left,0.2730242,1,120,4,3.2.2021,120.0252533
287,"['high', 2, 2, True]",TRUE,2,white,135,right,up,high,white_high_135_up,black_high_45_up,2,left,0.1722838,0,120,4,3.2.2021,120.0252533
288,"['high', 2, 2, True]",TRUE,2,black,45,right,up,high,black_high_45_up,white_high_135_up,2,right,0.0093793,1,120,4,3.2.2021,120.0252533
289,"['low', 64, 2, True]",TRUE,64,black,135,left,down,low,black_low_135_down,white_low_45_down,2,left,0.0931634,1,120,4,3.2.2021,120.0252533
290,"['high', 4, 2, True]",TRUE,4,white,135,right,down,high,white_high_135_down,black_high_45_down,2,left,0.2006173,0,120,4,3.2.2021,120.0252533
291,"['low', 64, 2, True]",TRUE,64,white,135,right,down,low,white_low_135_down,black_low_45_down,2,right,0.173232,1,120,4,3.2.2021,120.0252533
292,"['high', 8, 2, True]",TRUE,8,white,135,right,down,high,white_high_135_down,black_high_45_down,2,right,0.1680298,1,120,4,3.2.2021,120.0252533
293,"['low', 16, 2, True]",TRUE,16,black,135,left,down,low,black_low_135_down,white_low_45_down,2,left,0.3741712,1,120,4,3.2.2021,120.0252533
294,"['high', 3, 2, True]",TRUE,3,black,135,left,up,high,black_high_135_up,white_high_45_up,2,right,0.1583876,0,120,4,3.2.2021,120.0252533
295,"['high', 4, 2, True]",TRUE,4,black,45,right,up,high,black_high_45_up,white_high_135_up,2,right,0.2163909,1,120,4,3.2.2021,120.0252533
296,"['high', 1, 2, True]",TRUE,1,black,45,right,down,high,black_high_45_down,white_high_135_down,2,right,0.2162778,1,120,4,3.2.2021,120.0252533
297,"['low', 32, 2, True]",TRUE,32,black,45,right,down,low,black_low_45_down,white_low_135_down,2,right,0.056582,1,120,4,3.2.2021,120.0252533
298,"['high', 16, 2, True]",TRUE,16,black,135,left,up,high,black_high_135_up,white_high_45_up,2,left,0.1293699,1,120,4,3.2.2021,120.0252533
299,"['high', 64, 2, True]",TRUE,64,white,135,right,down,high,white_high_135_down,black_high_45_down,2,right,0.6831378,1,120,4,3.2.2021,120.0252533
300,"['low', 8, 2, True]",TRUE,8,white,45,left,up,low,white_low_45_up,black_low_135_up,2,left,0.7846049,1,120,4,3.2.2021,120.0252533
301,"['high', 3, 2, True]",TRUE,3,white,45,left,down,high,white_high_45_down,black_high_135_down,2,left,0.5990221,1,120,4,3.2.2021,120.0252533
302,"['high', 2, 2, True]",TRUE,2,white,45,left,down,high,white_high_45_down,black_high_135_down,2,right,0.6565787,0,120,4,3.2.2021,120.0252533
303,"['high', 3, 2, True]",TRUE,3,white,45,left,up,high,white_high_45_up,black_high_135_up,2,left,1.0017537,1,120,4,3.2.2021,120.0252533
304,"['high', 3, 2, True]",TRUE,3,white,135,right,down,high,white_high_135_down,black_high_45_down,2,right,0.8463176,1,120,4,3.2.2021,120.0252533
305,"['low', 16, 2, True]",TRUE,16,black,135,left,down,low,black_low_135_down,white_low_45_down,2,left,0.8094822,1,120,4,3.2.2021,120.0252533
306,"['low', 32, 2, True]",TRUE,32,white,45,left,up,low,white_low_45_up,black_low_135_up,2,left,0.9232934,1,120,4,3.2.2021,120.0252533
307,"['high', 2, 2, True]",TRUE,2,black,135,left,up,high,black_high_135_up,white_high_45_up,2,right,1.1452363,0,120,4,3.2.2021,120.0252533
308,"['high', 3, 2, True]",TRUE,3,black,45,right,down,high,black_high_45_down,white_high_135_down,2,right,1.1432891,1,120,4,3.2.2021,120.0252533
309,"['high', 1, 2, False]",FALSE,1,black,135,left,down,high,black_high_135_down,white_high_45_down,2,right,1.3464001,0,120,4,3.2.2021,120.0252533
310,"['low', 64, 2, True]",TRUE,64,black,135,left,down,low,black_low_135_down,white_low_45_down,2,left,0.9241628,1,120,4,3.2.2021,120.0252533
311,"['low', 2, 2, True]",TRUE,2,white,45,left,up,low,white_low_45_up,black_low_135_up,2,left,0.2292803,1,120,4,3.2.2021,120.0252533
312,"['low', 16, 2, True]",TRUE,16,white,45,left,down,low,white_low_45_down,black_low_135_down,2,left,0.4207812,1,120,4,3.2.2021,120.0252533
313,"['high', 32, 2, True]",TRUE,32,white,45,left,up,high,white_high_45_up,black_high_135_up,2,left,0.8876404,1,120,4,3.2.2021,120.0252533
314,"['low', 1, 2, True]",TRUE,1,white,135,right,down,low,white_low_135_down,black_low_45_down,2,right,0.1263102,1,120,4,3.2.2021,120.0252533
315,"['low', 16, 2, True]",TRUE,16,white,135,right,down,low,white_low_135_down,black_low_45_down,2,right,0.3127011,1,120,4,3.2.2021,120.0252533
316,"['low', 3, 2, True]",TRUE,3,white,135,right,down,low,white_low_135_down,black_low_45_down,2,right,0.3561468,1,120,4,3.2.2021,120.0252533
317,"['low', 1, 2, False]",FALSE,1,black,45,right,up,low,black_low_45_up,white_low_135_up,2,right,0.4524883,1,120,4,3.2.2021,120.0252533
318,"['high', 2, 2, True]",TRUE,2,black,45,right,up,high,black_high_45_up,white_high_135_up,2,right,0.1888934,1,120,4,3.2.2021,120.0252533
319,"['low', 2, 2, True]",TRUE,2,white,135,right,up,low,white_low_135_up,black_low_45_up,2,right,0.228877,1,120,4,3.2.2021,120.0252533
320,"['high', 32, 2, True]",TRUE,32,black,45,right,up,high,black_high_45_up,white_high_135_up,2,right,0.3938615,1,120,4,3.2.2021,120.0252533
321,"['low', 3, 2, True]",TRUE,3,black,135,left,down,low,black_low_135_down,white_low_45_down,2,right,0.2383463,0,120,4,3.2.2021,120.0252533
322,"['low', 3, 2, True]",TRUE,3,black,135,left,up,low,black_low_135_up,white_low_45_up,2,right,0.8102098,0,120,4,3.2.2021,120.0252533
323,"['low', 64, 2, True]",TRUE,64,black,135,left,up,low,black_low_135_up,white_low_45_up,2,left,0.5211298,1,120,4,3.2.2021,120.0252533
324,"['high', 64, 2, True]",TRUE,64,white,45,left,down,high,white_high_45_down,black_high_135_down,2,left,0.0132191,1,120,4,3.2.2021,120.0252533
325,"['high', 3, 2, True]",TRUE,3,white,45,left,up,high,white_high_45_up,black_high_135_up,2,right,0.0960562,0,120,4,3.2.2021,120.0252533
326,"['low', 1, 2, False]",FALSE,1,white,45,left,up,low,white_low_45_up,black_low_135_up,2,left,0.3711859,1,120,4,3.2.2021,120.0252533
327,"['low', 2, 2, True]",TRUE,2,white,135,right,up,low,white_low_135_up,black_low_45_up,2,right,0.1867824,1,120,4,3.2.2021,120.0252533
328,"['high', 2, 2, True]",TRUE,2,white,45,left,up,high,white_high_45_up,black_high_135_up,2,left,0.1230264,1,120,4,3.2.2021,120.0252533
329,"['high', 1, 2, True]",TRUE,1,black,45,right,up,high,black_high_45_up,white_high_135_up,2,right,0.0761289,1,120,4,3.2.2021,120.0252533
330,"['low', 1, 2, True]",TRUE,1,white,135,right,up,low,white_low_135_up,black_low_45_up,2,right,0.2212228,1,120,4,3.2.2021,120.0252533
331,"['low', 8, 2, True]",TRUE,8,white,45,left,down,low,white_low_45_down,black_low_135_down,2,left,0.4918195,1,120,4,3.2.2021,120.0252533
332,"['high', 1, 2, True]",TRUE,1,black,135,left,up,high,black_high_135_up,white_high_45_up,2,right,0.5465909,0,120,4,3.2.2021,120.0252533
333,"['low', 64, 2, True]",TRUE,64,black,135,left,up,low,black_low_135_up,white_low_45_up,2,left,0.1803329,1,120,4,3.2.2021,120.0252533
334,"['low', 64, 2, True]",TRUE,64,black,135,left,up,low,black_low_135_up,white_low_45_up,2,left,1.7733651,1,120,4,3.2.2021,120.0252533
335,"['low', 8, 2, True]",TRUE,8,white,135,right,up,low,white_low_135_up,black_low_45_up,2,right,0.7566161,1,120,4,3.2.2021,120.0252533
336,"['high', 1, 2, False]",FALSE,1,black,135,left,down,high,black_high_135_down,white_high_45_down,2,left,0.892461,1,120,4,3.2.2021,120.0252533
337,"['high', 64, 2, True]",TRUE,64,white,45,left,down,high,white_high_45_down,black_high_135_down,2,left,0.2924558,1,120,4,3.2.2021,120.0252533
338,"['high', 3, 2, True]",TRUE,3,white,135,right,down,high,white_high_135_down,black_high_45_down,2,right,0.0814252,1,120,4,3.2.2021,120.0252533
339,"['high', 4, 2, True]",TRUE,4,white,45,left,up,high,white_high_45_up,black_high_135_up,2,left,0.0556337,1,120,4,3.2.2021,120.0252533
340,"['low', 64, 2, True]",TRUE,64,white,45,left,up,low,white_low_45_up,black_low_135_up,2,left,0.0477021,1,120,4,3.2.2021,120.0252533
341,"['low', 1, 2, True]",TRUE,1,black,135,left,up,low,black_low_135_up,white_low_45_up,2,right,0.2281349,0,120,4,3.2.2021,120.0252533
342,"['low', 64, 2, True]",TRUE,64,white,45,left,up,low,white_low_45_up,black_low_135_up,2,left,0.2354399,1,120,4,3.2.2021,120.0252533
343,"['high', 16, 2, True]",TRUE,16,white,45,left,up,high,white_high_45_up,black_high_135_up,2,left,0.0632863,1,120,4,3.2.2021,120.0252533
344,"['low', 8, 2, True]",TRUE,8,white,45,left,down,low,white_low_45_down,black_low_135_down,2,left,0.0360055,1,120,4,3.2.2021,120.0252533
345,"['low', 64, 2, True]",TRUE,64,white,45,left,up,low,white_low_45_up,black_low_135_up,2,left,0.0196625,1,120,4,3.2.2021,120.0252533
346,"['low', 64, 2, True]",TRUE,64,black,45,right,down,low,black_low_45_down,white_low_135_down,2,right,0.0657246,1,120,4,3.2.2021,120.0252533
347,"['low', 32, 2, True]",TRUE,32,black,135,left,down,low,black_low_135_down,white_low_45_down,2,left,0.1007244,1,120,4,3.2.2021,120.0252533
348,"['high', 3, 60, False]",FALSE,3,black,45,right,down,high,black_high_45_down,white_high_135_down,60,right,0.3588603,1,120,4,3.2.2021,120.0252533
349,"['low', 64, 2, True]",TRUE,64,white,135,right,down,low,white_low_135_down,black_low_45_down,2,right,0.5104998,1,120,4,3.2.2021,120.0252533
350,"['low', 32, 2, True]",TRUE,32,white,135,right,down,low,white_low_135_down,black_low_45_down,2,right,0.2836837,1,120,4,3.2.2021,120.0252533
351,"['high', 64, 2, True]",TRUE,64,black,135,left,up,high,black_high_135_up,white_high_45_up,2,left,0.4274549,1,120,4,3.2.2021,120.0252533
352,"['high', 64, 2, True]",TRUE,64,white,135,right,up,high,white_high_135_up,black_high_45_up,2,right,0.084245,1,120,4,3.2.2021,120.0252533
353,"['low', 4, 2, True]",TRUE,4,white,135,right,down,low,white_low_135_down,black_low_45_down,2,right,0.2051599,1,120,4,3.2.2021,120.0252533
354,"['high', 2, 2, True]",TRUE,2,white,45,left,up,high,white_high_45_up,black_high_135_up,2,right,0.1855476,0,120,4,3.2.2021,120.0252533
355,"['high', 2, 2, True]",TRUE,2,white,135,right,down,high,white_high_135_down,black_high_45_down,2,right,0.5157771,1,120,4,3.2.2021,120.0252533
356,"['high', 3, 2, True]",TRUE,3,white,135,right,down,high,white_high_135_down,black_high_45_down,2,right,0.2325724,1,120,4,3.2.2021,120.0252533
357,"['high', 16, 2, True]",TRUE,16,black,135,left,up,high,black_high_135_up,white_high_45_up,2,left,0.0263413,1,120,4,3.2.2021,120.0252533
358,"['low', 2, 2, True]",TRUE,2,white,135,right,down,low,white_low_135_down,black_low_45_down,2,right,0.1366896,1,120,4,3.2.2021,120.0252533
359,"['high', 1, 2, False]",FALSE,1,white,45,left,down,high,white_high_45_down,black_high_135_down,2,right,0.4621547,0,120,4,3.2.2021,120.0252533
360,"['low', 32, 2, True]",TRUE,32,black,45,right,up,low,black_low_45_up,white_low_135_up,2,right,0.0657467,1,120,4,3.2.2021,120.0252533
361,"['low', 32, 2, True]",TRUE,32,black,135,left,up,low,black_low_135_up,white_low_45_up,2,left,0.9103131,1,120,4,3.2.2021,120.0252533
362,"['low', 1, 2, False]",FALSE,1,black,135,left,down,low,black_low_135_down,white_low_45_down,2,right,0.4294138,0,120,4,3.2.2021,120.0252533
363,"['high', 3, 2, True]",TRUE,3,white,135,right,down,high,white_high_135_down,black_high_45_down,2,right,0.2562608,1,120,4,3.2.2021,120.0252533
364,"['low', 8, 2, True]",TRUE,8,black,45,right,down,low,black_low_45_down,white_low_135_down,2,right,0.2577349,1,120,4,3.2.2021,120.0252533
365,"['high', 16, 2, True]",TRUE,16,white,135,right,down,high,white_high_135_down,black_high_45_down,2,right,0.0844373,1,120,4,3.2.2021,120.0252533
366,"['high', 32, 2, True]",TRUE,32,white,45,left,down,high,white_high_45_down,black_high_135_down,2,left,0.4631003,1,120,4,3.2.2021,120.0252533
367,"['high', 1, 2, True]",TRUE,1,white,45,left,up,high,white_high_45_up,black_high_135_up,2,right,0.257868,0,120,4,3.2.2021,120.0252533
368,"['high', 3, 60, False]",FALSE,3,black,135,left,up,high,black_high_135_up,white_high_45_up,60,left,0.3329124,1,120,4,3.2.2021,120.0252533
369,"['high', 32, 2, True]",TRUE,32,white,45,left,down,high,white_high_45_down,black_high_135_down,2,left,0.0202068,1,120,4,3.2.2021,120.0252533
370,"['low', 8, 2, True]",TRUE,8,white,135,right,down,low,white_low_135_down,black_low_45_down,2,right,0.4844896,1,120,4,3.2.2021,120.0252533
371,"['high', 1, 2, False]",FALSE,1,white,135,right,down,high,white_high_135_down,black_high_45_down,2,right,0.391783,1,120,4,3.2.2021,120.0252533
372,"['high', 4, 2, True]",TRUE,4,white,135,right,down,high,white_high_135_down,black_high_45_down,2,right,0.8566461,1,120,4,3.2.2021,120.0252533
373,"['high', 2, 2, True]",TRUE,2,white,45,left,up,high,white_high_45_up,black_high_135_up,2,left,0.0705943,1,120,4,3.2.2021,120.0252533
374,"['low', 8, 2, True]",TRUE,8,black,135,left,down,low,black_low_135_down,white_low_45_down,2,left,0.2455922,1,120,4,3.2.2021,120.0252533
375,"['high', 64, 2, True]",TRUE,64,black,45,right,up,high,black_high_45_up,white_high_135_up,2,right,0.3374984,1,120,4,3.2.2021,120.0252533
376,"['high', 4, 2, True]",TRUE,4,white,45,left,down,high,white_high_45_down,black_high_135_down,2,left,0.2561631,1,120,4,3.2.2021,120.0252533
377,"['high', 32, 2, True]",TRUE,32,black,45,right,up,high,black_high_45_up,white_high_135_up,2,right,0.8327029,1,120,4,3.2.2021,120.0252533
378,"['high', 3, 60, False]",FALSE,3,black,135,left,down,high,black_high_135_down,white_high_45_down,60,left,0.6412399,1,120,4,3.2.2021,120.0252533
379,"['high', 1, 2, False]",FALSE,1,white,135,right,up,high,white_high_135_up,black_high_45_up,2,left,0.6015984,0,120,4,3.2.2021,120.0252533
380,"['high', 4, 2, True]",TRUE,4,white,45,left,down,high,white_high_45_down,black_high_135_down,2,left,0.2301867,1,120,4,3.2.2021,120.0252533
381,"['high', 1, 2, False]",FALSE,1,white,135,right,up,high,white_high_135_up,black_high_45_up,2,right,0.4650495,1,120,4,3.2.2021,120.0252533
382,"['low', 4, 2, True]",TRUE,4,white,45,left,up,low,white_low_45_up,black_low_135_up,2,left,0.0726837,1,120,4,3.2.2021,120.0252533
383,"['low', 2, 2, True]",TRUE,2,white,45,left,down,low,white_low_45_down,black_low_135_down,2,left,0.1869952,1,120,4,3.2.2021,120.0252533
384,"['high', 16, 2, True]",TRUE,16,white,135,right,down,high,white_high_135_down,black_high_45_down,2,right,0.2130214,1,120,4,3.2.2021,120.0252533
385,"['low', 2, 2, True]",TRUE,2,black,45,right,down,low,black_low_45_down,white_low_135_down,2,right,0.1151787,1,120,4,3.2.2021,120.0252533
386,"['low', 2, 2, True]",TRUE,2,white,135,right,up,low,white_low_135_up,black_low_45_up,2,right,0.0202625,1,120,4,3.2.2021,120.0252533
387,"['low', 8, 2, True]",TRUE,8,white,45,left,up,low,white_low_45_up,black_low_135_up,2,left,0.2656133,1,120,4,3.2.2021,120.0252533
388,"['low', 16, 2, True]",TRUE,16,black,45,right,up,low,black_low_45_up,white_low_135_up,2,right,0.461329,1,120,4,3.2.2021,120.0252533
389,"['low', 1, 2, False]",FALSE,1,black,135,left,up,low,black_low_135_up,white_low_45_up,2,left,0.3139581,1,120,4,3.2.2021,120.0252533
390,"['high', 3, 2, True]",TRUE,3,black,45,right,up,high,black_high_45_up,white_high_135_up,2,right,0.2424906,1,120,4,3.2.2021,120.0252533
391,"['high', 3, 2, True]",TRUE,3,black,135,left,down,high,black_high_135_down,white_high_45_down,2,right,0.1780858,0,120,4,3.2.2021,120.0252533
392,"['low', 64, 2, True]",TRUE,64,black,45,right,up,low,black_low_45_up,white_low_135_up,2,right,0.2770412,1,120,4,3.2.2021,120.0252533
393,"['low', 1, 2, True]",TRUE,1,white,45,left,up,low,white_low_45_up,black_low_135_up,2,left,1.0115824,1,120,4,3.2.2021,120.0252533
394,"['low', 4, 2, True]",TRUE,4,black,135,left,up,low,black_low_135_up,white_low_45_up,2,left,0.254343,1,120,4,3.2.2021,120.0252533
395,"['high', 3, 60, False]",FALSE,3,white,135,right,down,high,white_high_135_down,black_high_45_down,60,right,0.5231555,1,120,4,3.2.2021,120.0252533
396,"['low', 16, 2, True]",TRUE,16,white,45,left,down,low,white_low_45_down,black_low_135_down,2,left,0.2480345,1,120,4,3.2.2021,120.0252533
397,"['high', 4, 2, True]",TRUE,4,black,45,right,down,high,black_high_45_down,white_high_135_down,2,right,0.1720875,1,120,4,3.2.2021,120.0252533
398,"['high', 64, 2, True]",TRUE,64,white,135,right,down,high,white_high_135_down,black_high_45_down,2,right,0.0357394,1,120,4,3.2.2021,120.0252533
399,"['low', 16, 2, True]",TRUE,16,white,135,right,up,low,white_low_135_up,black_low_45_up,2,right,0.0953966,1,120,4,3.2.2021,120.0252533
400,"['high', 16, 2, True]",TRUE,16,white,45,left,down,high,white_high_45_down,black_high_135_down,2,left,0.1047345,1,120,4,3.2.2021,120.0252533
401,"['low', 32, 2, True]",TRUE,32,black,135,left,up,low,black_low_135_up,white_low_45_up,2,left,0.2530866,1,120,4,3.2.2021,120.0252533
402,"['high', 16, 2, True]",TRUE,16,black,135,left,down,high,black_high_135_down,white_high_45_down,2,left,0.0929929,1,120,4,3.2.2021,120.0252533
403,"['low', 3, 2, True]",TRUE,3,black,135,left,up,low,black_low_135_up,white_low_45_up,2,left,0.1813823,1,120,4,3.2.2021,120.0252533
404,"['low', 32, 2, True]",TRUE,32,white,45,left,down,low,white_low_45_down,black_low_135_down,2,left,0.3988458,1,120,4,3.2.2021,120.0252533
405,"['high', 16, 2, True]",TRUE,16,black,45,right,down,high,black_high_45_down,white_high_135_down,2,right,0.1495964,1,120,4,3.2.2021,120.0252533
406,"['low', 16, 2, True]",TRUE,16,black,45,right,up,low,black_low_45_up,white_low_135_up,2,right,0.2672871,1,120,4,3.2.2021,120.0252533
407,"['low', 64, 2, True]",TRUE,64,white,135,right,up,low,white_low_135_up,black_low_45_up,2,right,0.1698516,1,120,4,3.2.2021,120.0252533
408,"['low', 64, 2, True]",TRUE,64,black,45,right,down,low,black_low_45_down,white_low_135_down,2,right,0.0453091,1,120,4,3.2.2021,120.0252533
409,"['high', 3, 60, False]",FALSE,3,white,45,left,up,high,white_high_45_up,black_high_135_up,60,left,0.2340672,1,120,4,3.2.2021,120.0252533
410,"['low', 4, 2, True]",TRUE,4,black,45,right,down,low,black_low_45_down,white_low_135_down,2,right,0.4619217,1,120,4,3.2.2021,120.0252533
411,"['high', 64, 2, True]",TRUE,64,white,45,left,up,high,white_high_45_up,black_high_135_up,2,left,0.2853454,1,120,4,3.2.2021,120.0252533
412,"['low', 32, 2, True]",TRUE,32,black,45,right,down,low,black_low_45_down,white_low_135_down,2,right,0.271551,1,120,4,3.2.2021,120.0252533
413,"['low', 3, 2, True]",TRUE,3,black,135,left,down,low,black_low_135_down,white_low_45_down,2,right,0.1363133,0,120,4,3.2.2021,120.0252533
414,"['high', 8, 2, True]",TRUE,8,black,45,right,up,high,black_high_45_up,white_high_135_up,2,right,0.4186354,1,120,4,3.2.2021,120.0252533
415,"['low', 3, 2, True]",TRUE,3,white,45,left,up,low,white_low_45_up,black_low_135_up,2,left,0.9692729,1,120,4,3.2.2021,120.0252533
416,"['low', 1, 2, False]",FALSE,1,black,45,right,down,low,black_low_45_down,white_low_135_down,2,right,0.3621987,1,120,4,3.2.2021,120.0252533
417,"['high', 64, 2, True]",TRUE,64,black,135,left,up,high,black_high_135_up,white_high_45_up,2,left,0.2183649,1,120,4,3.2.2021,120.0252533
418,"['high', 32, 2, True]",TRUE,32,white,135,right,up,high,white_high_135_up,black_high_45_up,2,right,0.3881071,1,120,4,3.2.2021,120.0252533
419,"['low', 32, 2, True]",TRUE,32,black,45,right,up,low,black_low_45_up,white_low_135_up,2,right,0.2419632,1,120,4,3.2.2021,120.0252533
420,"['high', 3, 2, True]",TRUE,3,black,135,left,down,high,black_high_135_down,white_high_45_down,2,right,0.1049157,0,120,4,3.2.2021,120.0252533
421,"['low', 16, 2, True]",TRUE,16,black,135,left,up,low,black_low_135_up,white_low_45_up,2,left,0.132652,1,120,4,3.2.2021,120.0252533
422,"['high', 8, 2, True]",TRUE,8,white,135,right,down,high,white_high_135_down,black_high_45_down,2,right,0.2723465,1,120,4,3.2.2021,120.0252533
423,"['low', 64, 2, True]",TRUE,64,black,135,left,up,low,black_low_135_up,white_low_45_up,2,left,0.0667328,1,120,4,3.2.2021,120.0252533
424,"['low', 16, 2, True]",TRUE,16,white,45,left,up,low,white_low_45_up,black_low_135_up,2,left,0.8416203,1,120,4,3.2.2021,120.0252533
425,"['high', 2, 2, True]",TRUE,2,white,45,left,up,high,white_high_45_up,black_high_135_up,2,left,0.1863505,1,120,4,3.2.2021,120.0252533
426,"['high', 8, 2, True]",TRUE,8,black,135,left,up,high,black_high_135_up,white_high_45_up,2,left,0.1822253,1,120,4,3.2.2021,120.0252533
427,"['high', 3, 2, True]",TRUE,3,black,45,right,up,high,black_high_45_up,white_high_135_up,2,right,0.1451634,1,120,4,3.2.2021,120.0252533
428,"['high', 3, 60, False]",FALSE,3,black,135,left,down,high,black_high_135_down,white_high_45_down,60,left,0.3486733,1,120,4,3.2.2021,120.0252533
429,"['high', 16, 2, True]",TRUE,16,white,45,left,up,high,white_high_45_up,black_high_135_up,2,left,0.2047419,1,120,4,3.2.2021,120.0252533
430,"['high', 3, 2, True]",TRUE,3,black,45,right,up,high,black_high_45_up,white_high_135_up,2,right,0.078727,1,120,4,3.2.2021,120.0252533
431,"['high', 8, 2, True]",TRUE,8,white,135,right,up,high,white_high_135_up,black_high_45_up,2,right,0.2593023,1,120,4,3.2.2021,120.0252533
432,"['low', 3, 2, True]",TRUE,3,white,45,left,up,low,white_low_45_up,black_low_135_up,2,left,0.171381,1,120,4,3.2.2021,120.0252533
433,"['low', 4, 2, True]",TRUE,4,black,45,right,down,low,black_low_45_down,white_low_135_down,2,right,0.219114,1,120,4,3.2.2021,120.0252533
434,"['low', 1, 2, False]",FALSE,1,black,135,left,up,low,black_low_135_up,white_low_45_up,2,left,0.4029168,1,120,4,3.2.2021,120.0252533
435,"['high', 3, 2, True]",TRUE,3,black,45,right,down,high,black_high_45_down,white_high_135_down,2,right,0.0339454,1,120,4,3.2.2021,120.0252533
436,"['high', 8, 2, True]",TRUE,8,white,45,left,up,high,white_high_45_up,black_high_135_up,2,left,0.1646726,1,120,4,3.2.2021,120.0252533
437,"['high', 32, 2, True]",TRUE,32,black,45,right,down,high,black_high_45_down,white_high_135_down,2,right,0.0567173,1,120,4,3.2.2021,120.0252533
438,"['high', 16, 2, True]",TRUE,16,black,45,right,down,high,black_high_45_down,white_high_135_down,2,right,0.2057774,1,120,4,3.2.2021,120.0252533
439,"['high', 3, 2, True]",TRUE,3,white,135,right,down,high,white_high_135_down,black_high_45_down,2,right,0.0198125,1,120,4,3.2.2021,120.0252533
440,"['low', 64, 2, True]",TRUE,64,black,135,left,up,low,black_low_135_up,white_low_45_up,2,left,0.1827348,1,120,4,3.2.2021,120.0252533
441,"['low', 3, 2, True]",TRUE,3,white,135,right,up,low,white_low_135_up,black_low_45_up,2,right,0.1632629,1,120,4,3.2.2021,120.0252533
442,"['low', 16, 2, True]",TRUE,16,black,45,right,down,low,black_low_45_down,white_low_135_down,2,right,0.2821321,1,120,4,3.2.2021,120.0252533
443,"['low', 8, 2, True]",TRUE,8,white,45,left,up,low,white_low_45_up,black_low_135_up,2,left,0.2091037,1,120,4,3.2.2021,120.0252533
444,"['high', 3, 2, True]",TRUE,3,black,45,right,up,high,black_high_45_up,white_high_135_up,2,right,0.1881094,1,120,4,3.2.2021,120.0252533
445,"['low', 3, 2, True]",TRUE,3,black,135,left,up,low,black_low_135_up,white_low_45_up,2,right,0.2176636,0,120,4,3.2.2021,120.0252533
446,"['high', 64, 2, True]",TRUE,64,white,135,right,down,high,white_high_135_down,black_high_45_down,2,right,0.0506392,1,120,4,3.2.2021,120.0252533
447,"['high', 4, 2, True]",TRUE,4,black,135,left,down,high,black_high_135_down,white_high_45_down,2,right,0.4680442,0,120,4,3.2.2021,120.0252533
448,"['high', 32, 2, True]",TRUE,32,white,135,right,up,high,white_high_135_up,black_high_45_up,2,right,0.6018895,1,120,4,3.2.2021,120.0252533
449,"['low', 2, 2, True]",TRUE,2,black,45,right,down,low,black_low_45_down,white_low_135_down,2,right,0.2020536,1,120,4,3.2.2021,120.0252533
450,"['low', 16, 2, True]",TRUE,16,black,135,left,down,low,black_low_135_down,white_low_45_down,2,left,0.732194,1,120,4,3.2.2021,120.0252533
451,"['high', 8, 2, True]",TRUE,8,white,135,right,down,high,white_high_135_down,black_high_45_down,2,right,0.2696525,1,120,4,3.2.2021,120.0252533
452,"['low', 1, 2, False]",FALSE,1,black,135,left,up,low,black_low_135_up,white_low_45_up,2,left,1.3439211,1,120,4,3.2.2021,120.0252533
453,"['high', 16, 2, True]",TRUE,16,black,45,right,down,high,black_high_45_down,white_high_135_down,2,right,0.3773081,1,120,4,3.2.2021,120.0252533
454,"['high', 3, 60, False]",FALSE,3,black,135,left,up,high,black_high_135_up,white_high_45_up,60,left,0.3737744,1,120,4,3.2.2021,120.0252533
455,"['high', 3, 2, True]",TRUE,3,white,45,left,up,high,white_high_45_up,black_high_135_up,2,right,0.0754765,0,120,4,3.2.2021,120.0252533
456,"['low', 2, 2, True]",TRUE,2,white,45,left,up,low,white_low_45_up,black_low_135_up,2,left,0.1377742,1,120,4,3.2.2021,120.0252533
457,"['low', 4, 2, True]",TRUE,4,black,135,left,up,low,black_low_135_up,white_low_45_up,2,left,0.2043218,1,120,4,3.2.2021,120.0252533
458,"['low', 1, 2, True]",TRUE,1,white,135,right,up,low,white_low_135_up,black_low_45_up,2,right,0.2032031,1,120,4,3.2.2021,120.0252533
459,"['high', 64, 2, True]",TRUE,64,white,45,left,up,high,white_high_45_up,black_high_135_up,2,left,0.4727723,1,120,4,3.2.2021,120.0252533
460,"['low', 1, 2, True]",TRUE,1,black,135,left,up,low,black_low_135_up,white_low_45_up,2,right,0.1290887,0,120,4,3.2.2021,120.0252533
461,"['high', 8, 2, True]",TRUE,8,black,45,right,down,high,black_high_45_down,white_high_135_down,2,right,0.1884821,1,120,4,3.2.2021,120.0252533
462,"['high', 1, 2, True]",TRUE,1,black,135,left,up,high,black_high_135_up,white_high_45_up,2,left,0.1862087,1,120,4,3.2.2021,120.0252533
463,"['high', 16, 2, True]",TRUE,16,white,45,left,up,high,white_high_45_up,black_high_135_up,2,left,0.2496837,1,120,4,3.2.2021,120.0252533
464,"['high', 1, 2, True]",TRUE,1,black,135,left,up,high,black_high_135_up,white_high_45_up,2,right,0.1515625,0,120,4,3.2.2021,120.0252533
465,"['high', 1, 2, False]",FALSE,1,black,135,left,down,high,black_high_135_down,white_high_45_down,2,right,0.3905246,0,120,4,3.2.2021,120.0252533
466,"['low', 1, 2, True]",TRUE,1,black,45,right,up,low,black_low_45_up,white_low_135_up,2,right,0.2336118,1,120,4,3.2.2021,120.0252533
467,"['high', 1, 2, True]",TRUE,1,black,45,right,down,high,black_high_45_down,white_high_135_down,2,right,0.1245702,1,120,4,3.2.2021,120.0252533
468,"['low', 4, 2, True]",TRUE,4,black,135,left,down,low,black_low_135_down,white_low_45_down,2,left,0.0797431,1,120,4,3.2.2021,120.0252533
469,"['high', 16, 2, True]",TRUE,16,black,135,left,up,high,black_high_135_up,white_high_45_up,2,left,0.09286,1,120,4,3.2.2021,120.0252533
470,"['high', 16, 2, True]",TRUE,16,white,45,left,down,high,white_high_45_down,black_high_135_down,2,left,0.0203885,1,120,4,3.2.2021,120.0252533
471,"['low', 64, 2, True]",TRUE,64,black,45,right,down,low,black_low_45_down,white_low_135_down,2,right,0.4635929,1,120,4,3.2.2021,120.0252533
472,"['high', 3, 2, True]",TRUE,3,white,45,left,up,high,white_high_45_up,black_high_135_up,2,left,0.2410377,1,120,4,3.2.2021,120.0252533
473,"['high', 1, 2, False]",FALSE,1,white,135,right,down,high,white_high_135_down,black_high_45_down,2,right,0.3461931,1,120,4,3.2.2021,120.0252533
474,"['high', 1, 2, False]",FALSE,1,white,135,right,up,high,white_high_135_up,black_high_45_up,2,right,0.3209051,1,120,4,3.2.2021,120.0252533
475,"['low', 3, 2, True]",TRUE,3,black,135,left,up,low,black_low_135_up,white_low_45_up,2,left,0.0503461,1,120,4,3.2.2021,120.0252533
476,"['high', 8, 2, True]",TRUE,8,white,135,right,up,high,white_high_135_up,black_high_45_up,2,right,0.2491206,1,120,4,3.2.2021,120.0252533
477,"['high', 1, 2, True]",TRUE,1,white,135,right,up,high,white_high_135_up,black_high_45_up,2,right,0.1099316,1,120,4,3.2.2021,120.0252533
478,"['low', 64, 2, True]",TRUE,64,white,135,right,down,low,white_low_135_down,black_low_45_down,2,right,0.1889343,1,120,4,3.2.2021,120.0252533
479,"['low', 8, 2, True]",TRUE,8,black,45,right,up,low,black_low_45_up,white_low_135_up,2,right,0.2347868,1,120,4,3.2.2021,120.0252533
480,"['low', 4, 2, True]",TRUE,4,white,45,left,up,low,white_low_45_up,black_low_135_up,2,left,0.0461301,1,120,4,3.2.2021,120.0252533
481,"['low', 1, 2, False]",FALSE,1,white,45,left,up,low,white_low_45_up,black_low_135_up,2,left,0.3806738,1,120,4,3.2.2021,120.0252533
482,"['high', 8, 2, True]",TRUE,8,black,135,left,down,high,black_high_135_down,white_high_45_down,2,left,0.1526009,1,120,4,3.2.2021,120.0252533
483,"['low', 16, 2, True]",TRUE,16,black,135,left,up,low,black_low_135_up,white_low_45_up,2,left,0.1443774,1,120,4,3.2.2021,120.0252533
484,"['high', 2, 2, True]",TRUE,2,black,45,right,down,high,black_high_45_down,white_high_135_down,2,right,0.2072645,1,120,4,3.2.2021,120.0252533
485,"['low', 32, 2, True]",TRUE,32,white,45,left,down,low,white_low_45_down,black_low_135_down,2,left,0.4828115,1,120,4,3.2.2021,120.0252533
486,"['low', 64, 2, True]",TRUE,64,black,45,right,down,low,black_low_45_down,white_low_135_down,2,right,0.2591048,1,120,4,3.2.2021,120.0252533
487,"['high', 1, 2, True]",TRUE,1,white,135,right,up,high,white_high_135_up,black_high_45_up,2,right,0.2855297,1,120,4,3.2.2021,120.0252533
488,"['low', 4, 2, True]",TRUE,4,black,135,left,up,low,black_low_135_up,white_low_45_up,2,left,0.2700749,1,120,4,3.2.2021,120.0252533
489,"['high', 64, 2, True]",TRUE,64,white,135,right,down,high,white_high_135_down,black_high_45_down,2,right,0.2680839,1,120,4,3.2.2021,120.0252533
490,"['low', 3, 2, True]",TRUE,3,white,135,right,down,low,white_low_135_down,black_low_45_down,2,right,0.2579618,1,120,4,3.2.2021,120.0252533
491,"['low', 4, 2, True]",TRUE,4,white,135,right,up,low,white_low_135_up,black_low_45_up,2,right,0.2995836,1,120,4,3.2.2021,120.0252533
492,"['low', 3, 2, True]",TRUE,3,black,45,right,down,low,black_low_45_down,white_low_135_down,2,right,0.2029846,1,120,4,3.2.2021,120.0252533
493,"['low', 16, 2, True]",TRUE,16,white,135,right,up,low,white_low_135_up,black_low_45_up,2,right,1.3509716,1,120,4,3.2.2021,120.0252533
494,"['high', 4, 2, True]",TRUE,4,black,135,left,down,high,black_high_135_down,white_high_45_down,2,right,0.3411003,0,120,4,3.2.2021,120.0252533
495,"['low', 8, 2, True]",TRUE,8,white,45,left,up,low,white_low_45_up,black_low_135_up,2,left,0.2960894,1,120,4,3.2.2021,120.0252533
496,"['high', 4, 2, True]",TRUE,4,black,45,right,down,high,black_high_45_down,white_high_135_down,2,right,0.3318723,1,120,4,3.2.2021,120.0252533
497,"['high', 8, 2, True]",TRUE,8,black,135,left,up,high,black_high_135_up,white_high_45_up,2,left,0.0614345,1,120,4,3.2.2021,120.0252533
498,"['high', 64, 2, True]",TRUE,64,black,45,right,down,high,black_high_45_down,white_high_135_down,2,right,0.1506607,1,120,4,3.2.2021,120.0252533
499,"['low', 2, 2, True]",TRUE,2,black,135,left,up,low,black_low_135_up,white_low_45_up,2,right,0.2329827,0,120,4,3.2.2021,120.0252533
500,"['low', 1, 2, True]",TRUE,1,black,135,left,up,low,black_low_135_up,white_low_45_up,2,right,0.3001794,0,120,4,3.2.2021,120.0252533
501,"['low', 64, 2, True]",TRUE,64,white,45,left,up,low,white_low_45_up,black_low_135_up,2,left,1.5999794,1,120,4,3.2.2021,120.0252533
502,"['low', 4, 2, True]",TRUE,4,black,135,left,down,low,black_low_135_down,white_low_45_down,2,right,0.1216182,0,120,4,3.2.2021,120.0252533
503,"['high', 1, 2, True]",TRUE,1,black,135,left,up,high,black_high_135_up,white_high_45_up,2,right,0.2387578,0,120,4,3.2.2021,120.0252533
504,"['low', 8, 2, True]",TRUE,8,black,45,right,down,low,black_low_45_down,white_low_135_down,2,right,0.3104325,1,120,4,3.2.2021,120.0252533
505,"['high', 3, 60, False]",FALSE,3,black,135,left,down,high,black_high_135_down,white_high_45_down,60,left,0.4658353,1,120,4,3.2.2021,120.0252533
506,"['high', 8, 2, True]",TRUE,8,white,45,left,up,high,white_high_45_up,black_high_135_up,2,left,0.3878904,1,120,4,3.2.2021,120.0252533
507,"['low', 8, 2, True]",TRUE,8,black,135,left,up,low,black_low_135_up,white_low_45_up,2,left,0.3545737,1,120,4,3.2.2021,120.0252533
508,"['high', 8, 2, True]",TRUE,8,white,45,left,down,high,white_high_45_down,black_high_135_down,2,left,0.1181623,1,120,4,3.2.2021,120.0252533
509,"['low', 1, 2, False]",FALSE,1,white,45,left,down,low,white_low_45_down,black_low_135_down,2,left,0.4780514,1,120,4,3.2.2021,120.0252533
510,"['high', 2, 2, True]",TRUE,2,black,135,left,up,high,black_high_135_up,white_high_45_up,2,left,0.2145401,1,120,4,3.2.2021,120.0252533
511,"['low', 8, 2, True]",TRUE,8,black,45,right,up,low,black_low_45_up,white_low_135_up,2,right,0.1075799,1,120,4,3.2.2021,120.0252533
512,"['low', 4, 2, True]",TRUE,4,white,135,right,up,low,white_low_135_up,black_low_45_up,2,right,3.01841,1,120,4,3.2.2021,120.0252533
513,"['high', 64, 2, True]",TRUE,64,black,135,left,down,high,black_high_135_down,white_high_45_down,2,left,0.63045,1,120,4,3.2.2021,120.0252533
514,"['high', 4, 2, True]",TRUE,4,black,45,right,up,high,black_high_45_up,white_high_135_up,2,right,0.0622851,1,120,4,3.2.2021,120.0252533
515,"['high', 8, 2, True]",TRUE,8,black,135,left,up,high,black_high_135_up,white_high_45_up,2,left,0.1576192,1,120,4,3.2.2021,120.0252533
516,"['high', 1, 2, False]",FALSE,1,white,45,left,down,high,white_high_45_down,black_high_135_down,2,left,0.2799786,1,120,4,3.2.2021,120.0252533
517,"['low', 32, 2, True]",TRUE,32,white,135,right,up,low,white_low_135_up,black_low_45_up,2,right,0.6115049,1,120,4,3.2.2021,120.0252533
518,"['high', 8, 2, True]",TRUE,8,black,45,right,up,high,black_high_45_up,white_high_135_up,2,right,0.1977023,1,120,4,3.2.2021,120.0252533
519,"['low', 4, 2, True]",TRUE,4,white,45,left,up,low,white_low_45_up,black_low_135_up,2,left,0.1801781,1,120,4,3.2.2021,120.0252533
520,"['high', 32, 2, True]",TRUE,32,white,135,right,down,high,white_high_135_down,black_high_45_down,2,right,0.2332555,1,120,4,3.2.2021,120.0252533
521,"['low', 2, 2, True]",TRUE,2,black,135,left,up,low,black_low_135_up,white_low_45_up,2,right,0.0781283,0,120,4,3.2.2021,120.0252533
522,"['low', 8, 2, True]",TRUE,8,white,45,left,down,low,white_low_45_down,black_low_135_down,2,left,0.2051755,1,120,4,3.2.2021,120.0252533
523,"['high', 1, 2, False]",FALSE,1,black,135,left,up,high,black_high_135_up,white_high_45_up,2,right,0.4211457,0,120,4,3.2.2021,120.0252533
524,"['low', 1, 2, True]",TRUE,1,black,45,right,down,low,black_low_45_down,white_low_135_down,2,right,0.1391912,1,120,4,3.2.2021,120.0252533
525,"['high', 32, 2, True]",TRUE,32,white,45,left,down,high,white_high_45_down,black_high_135_down,2,left,0.1877157,1,120,4,3.2.2021,120.0252533
526,"['low', 4, 2, True]",TRUE,4,white,135,right,up,low,white_low_135_up,black_low_45_up,2,right,0.1882245,1,120,4,3.2.2021,120.0252533
527,"['high', 1, 2, True]",TRUE,1,black,135,left,up,high,black_high_135_up,white_high_45_up,2,right,0.0705438,0,120,4,3.2.2021,120.0252533
528,"['high', 32, 2, True]",TRUE,32,white,135,right,down,high,white_high_135_down,black_high_45_down,2,right,0.5924123,1,120,4,3.2.2021,120.0252533
529,"['high', 16, 2, True]",TRUE,16,white,45,left,down,high,white_high_45_down,black_high_135_down,2,left,0.1902229,1,120,4,3.2.2021,120.0252533
530,"['low', 2, 2, True]",TRUE,2,white,45,left,down,low,white_low_45_down,black_low_135_down,2,left,0.0714286,1,120,4,3.2.2021,120.0252533
531,"['low', 3, 2, True]",TRUE,3,black,45,right,down,low,black_low_45_down,white_low_135_down,2,right,0.0197921,1,120,4,3.2.2021,120.0252533
532,"['high', 8, 2, True]",TRUE,8,black,135,left,up,high,black_high_135_up,white_high_45_up,2,left,0.1720685,1,120,4,3.2.2021,120.0252533
533,"['low', 1, 2, False]",FALSE,1,white,135,right,up,low,white_low_135_up,black_low_45_up,2,right,0.3415463,1,120,4,3.2.2021,120.0252533
534,"['low', 4, 2, True]",TRUE,4,white,135,right,down,low,white_low_135_down,black_low_45_down,2,right,0.2110123,1,120,4,3.2.2021,120.0252533
535,"['low', 1, 2, True]",TRUE,1,white,135,right,up,low,white_low_135_up,black_low_45_up,2,right,0.16622,1,120,4,3.2.2021,120.0252533
536,"['low', 32, 2, True]",TRUE,32,black,45,right,down,low,black_low_45_down,white_low_135_down,2,right,0.2360947,1,120,4,3.2.2021,120.0252533
537,"['high', 4, 2, True]",TRUE,4,white,135,right,up,high,white_high_135_up,black_high_45_up,2,right,0.1611295,1,120,4,3.2.2021,120.0252533
538,"['high', 32, 2, True]",TRUE,32,white,135,right,up,high,white_high_135_up,black_high_45_up,2,right,0.724012,1,120,4,3.2.2021,120.0252533
539,"['high', 4, 2, True]",TRUE,4,black,135,left,down,high,black_high_135_down,white_high_45_down,2,right,0.0535227,0,120,4,3.2.2021,120.0252533
540,"['high', 3, 60, False]",FALSE,3,white,135,right,down,high,white_high_135_down,black_high_45_down,60,right,0.3737124,1,120,4,3.2.2021,120.0252533
541,"['low', 16, 2, True]",TRUE,16,white,45,left,down,low,white_low_45_down,black_low_135_down,2,left,0.1450312,1,120,4,3.2.2021,120.0252533
542,"['high', 4, 2, True]",TRUE,4,black,135,left,up,high,black_high_135_up,white_high_45_up,2,right,0.3828854,0,120,4,3.2.2021,120.0252533
543,"['low', 64, 2, True]",TRUE,64,white,45,left,up,low,white_low_45_up,black_low_135_up,2,left,0.1824333,1,120,4,3.2.2021,120.0252533
544,"['high', 32, 2, True]",TRUE,32,black,45,right,up,high,black_high_45_up,white_high_135_up,2,right,0.2631911,1,120,4,3.2.2021,120.0252533
545,"['low', 2, 2, True]",TRUE,2,white,135,right,up,low,white_low_135_up,black_low_45_up,2,right,0.1893094,1,120,4,3.2.2021,120.0252533
546,"['low', 8, 2, True]",TRUE,8,white,135,right,up,low,white_low_135_up,black_low_45_up,2,right,0.2242253,1,120,4,3.2.2021,120.0252533
547,"['high', 16, 2, True]",TRUE,16,white,45,left,up,high,white_high_45_up,black_high_135_up,2,left,0.1885677,1,120,4,3.2.2021,120.0252533
548,"['low', 2, 2, True]",TRUE,2,white,45,left,up,low,white_low_45_up,black_low_135_up,2,left,0.1835905,1,120,4,3.2.2021,120.0252533
549,"['low', 1, 2, True]",TRUE,1,black,45,right,down,low,black_low_45_down,white_low_135_down,2,right,0.068829,1,120,4,3.2.2021,120.0252533
550,"['low', 4, 2, True]",TRUE,4,black,45,right,up,low,black_low_45_up,white_low_135_up,2,right,0.0138142,1,120,4,3.2.2021,120.0252533
551,"['low', 32, 2, True]",TRUE,32,black,135,left,down,low,black_low_135_down,white_low_45_down,2,left,0.4574629,1,120,4,3.2.2021,120.0252533
552,"['high', 2, 2, True]",TRUE,2,black,45,right,down,high,black_high_45_down,white_high_135_down,2,right,0.4680399,1,120,4,3.2.2021,120.0252533
553,"['high', 3, 2, True]",TRUE,3,white,135,right,up,high,white_high_135_up,black_high_45_up,2,right,0.1525027,1,120,4,3.2.2021,120.0252533
554,"['low', 3, 2, True]",TRUE,3,white,45,left,down,low,white_low_45_down,black_low_135_down,2,left,0.1129315,1,120,4,3.2.2021,120.0252533
555,"['low', 4, 2, True]",TRUE,4,white,135,right,up,low,white_low_135_up,black_low_45_up,2,right,0.1423083,1,120,4,3.2.2021,120.0252533
556,"['high', 16, 2, True]",TRUE,16,white,135,right,down,high,white_high_135_down,black_high_45_down,2,right,0.1576357,1,120,4,3.2.2021,120.0252533
557,"['low', 1, 2, True]",TRUE,1,white,135,right,down,low,white_low_135_down,black_low_45_down,2,right,0.0973055,1,120,4,3.2.2021,120.0252533
558,"['low', 16, 2, True]",TRUE,16,white,135,right,up,low,white_low_135_up,black_low_45_up,2,right,0.1065665,1,120,4,3.2.2021,120.0252533
559,"['high', 32, 2, True]",TRUE,32,black,135,left,down,high,black_high_135_down,white_high_45_down,2,left,0.0406834,1,120,4,3.2.2021,120.0252533
560,"['low', 1, 2, True]",TRUE,1,white,45,left,up,low,white_low_45_up,black_low_135_up,2,left,0.1773848,1,120,4,3.2.2021,120.0252533
561,"['low', 2, 2, True]",TRUE,2,black,45,right,up,low,black_low_45_up,white_low_135_up,2,right,0.1798403,1,120,4,3.2.2021,120.0252533
562,"['high', 4, 2, True]",TRUE,4,white,45,left,up,high,white_high_45_up,black_high_135_up,2,right,0.2060856,0,120,4,3.2.2021,120.0252533
563,"['high', 2, 2, True]",TRUE,2,white,45,left,down,high,white_high_45_down,black_high_135_down,2,left,0.1070402,1,120,4,3.2.2021,120.0252533
564,"['high', 1, 2, False]",FALSE,1,white,135,right,down,high,white_high_135_down,black_high_45_down,2,right,0.4225064,1,120,4,3.2.2021,120.0252533
565,"['low', 8, 2, True]",TRUE,8,white,135,right,up,low,white_low_135_up,black_low_45_up,2,right,0.1273394,1,120,4,3.2.2021,120.0252533
566,"['high', 4, 2, True]",TRUE,4,white,135,right,down,high,white_high_135_down,black_high_45_down,2,right,0.0280281,1,120,4,3.2.2021,120.0252533
567,"['low', 8, 2, True]",TRUE,8,white,135,right,down,low,white_low_135_down,black_low_45_down,2,right,0.1004196,1,120,4,3.2.2021,120.0252533
568,"['high', 3, 2, True]",TRUE,3,white,45,left,up,high,white_high_45_up,black_high_135_up,2,right,0.5973494,0,120,4,3.2.2021,120.0252533
569,"['high', 32, 2, True]",TRUE,32,black,45,right,down,high,black_high_45_down,white_high_135_down,2,right,0.2619629,1,120,4,3.2.2021,120.0252533
570,"['high', 32, 2, True]",TRUE,32,black,45,right,down,high,black_high_45_down,white_high_135_down,2,right,0.3946216,1,120,4,3.2.2021,120.0252533
571,"['high', 64, 2, True]",TRUE,64,white,135,right,down,high,white_high_135_down,black_high_45_down,2,right,0.5730914,1,120,4,3.2.2021,120.0252533
572,"['low', 64, 2, True]",TRUE,64,black,45,right,up,low,black_low_45_up,white_low_135_up,2,right,0.3292627,1,120,4,3.2.2021,120.0252533
573,"['high', 1, 2, True]",TRUE,1,black,135,left,down,high,black_high_135_down,white_high_45_down,2,right,0.1016276,0,120,4,3.2.2021,120.0252533
574,"['high', 16, 2, True]",TRUE,16,black,45,right,down,high,black_high_45_down,white_high_135_down,2,right,0.164918,1,120,4,3.2.2021,120.0252533
575,"['high', 32, 2, True]",TRUE,32,black,135,left,down,high,black_high_135_down,white_high_45_down,2,left,0.2419079,1,120,4,3.2.2021,120.0252533
576,"['high', 8, 2, True]",TRUE,8,white,135,right,up,high,white_high_135_up,black_high_45_up,2,right,0.0155312,1,120,4,3.2.2021,120.0252533
577,"['low', 3, 2, True]",TRUE,3,white,135,right,down,low,white_low_135_down,black_low_45_down,2,right,0.3567672,1,120,4,3.2.2021,120.0252533
578,"['high', 1, 2, False]",FALSE,1,white,135,right,up,high,white_high_135_up,black_high_45_up,2,right,0.3238447,1,120,4,3.2.2021,120.0252533
579,"['low', 4, 2, True]",TRUE,4,white,45,left,down,low,white_low_45_down,black_low_135_down,2,left,0.1588334,1,120,4,3.2.2021,120.0252533
580,"['high', 3, 60, False]",FALSE,3,white,135,right,up,high,white_high_135_up,black_high_45_up,60,right,0.3492955,1,120,4,3.2.2021,120.0252533
581,"['high', 1, 2, False]",FALSE,1,black,135,left,down,high,black_high_135_down,white_high_45_down,2,right,0.3098982,0,120,4,3.2.2021,120.0252533
582,"['high', 8, 2, True]",TRUE,8,black,45,right,up,high,black_high_45_up,white_high_135_up,2,right,0.2490134,1,120,4,3.2.2021,120.0252533
583,"['high', 8, 2, True]",TRUE,8,white,135,right,up,high,white_high_135_up,black_high_45_up,2,right,0.0751588,1,120,4,3.2.2021,120.0252533
584,"['high', 8, 2, True]",TRUE,8,white,135,right,down,high,white_high_135_down,black_high_45_down,2,right,0.2274575,1,120,4,3.2.2021,120.0252533
585,"['high', 1, 2, False]",FALSE,1,white,45,left,up,high,white_high_45_up,black_high_135_up,2,left,0.323368,1,120,4,3.2.2021,120.0252533
586,"['low', 1, 2, False]",FALSE,1,white,45,left,up,low,white_low_45_up,black_low_135_up,2,left,0.2534404,1,120,4,3.2.2021,120.0252533
587,"['high', 4, 2, True]",TRUE,4,white,45,left,up,high,white_high_45_up,black_high_135_up,2,left,0.2998735,1,120,4,3.2.2021,120.0252533
588,"['low', 32, 2, True]",TRUE,32,white,135,right,down,low,white_low_135_down,black_low_45_down,2,right,0.1817025,1,120,4,3.2.2021,120.0252533
589,"['low', 16, 2, True]",TRUE,16,black,135,left,down,low,black_low_135_down,white_low_45_down,2,left,0.1766202,1,120,4,3.2.2021,120.0252533
590,"['low', 8, 2, True]",TRUE,8,white,135,right,down,low,white_low_135_down,black_low_45_down,2,right,0.1136462,1,120,4,3.2.2021,120.0252533
591,"['high', 1, 2, True]",TRUE,1,white,45,left,down,high,white_high_45_down,black_high_135_down,2,left,0.1511115,1,120,4,3.2.2021,120.0252533
592,"['low', 8, 2, True]",TRUE,8,black,45,right,down,low,black_low_45_down,white_low_135_down,2,right,0.2442519,1,120,4,3.2.2021,120.0252533
593,"['low', 16, 2, True]",TRUE,16,black,135,left,up,low,black_low_135_up,white_low_45_up,2,left,0.2243619,1,120,4,3.2.2021,120.0252533
594,"['low', 32, 2, True]",TRUE,32,black,45,right,down,low,black_low_45_down,white_low_135_down,2,right,0.6344345,1,120,4,3.2.2021,120.0252533
595,"['high', 16, 2, True]",TRUE,16,white,135,right,down,high,white_high_135_down,black_high_45_down,2,right,0.1658641,1,120,4,3.2.2021,120.0252533
596,"['high', 1, 2, True]",TRUE,1,black,135,left,down,high,black_high_135_down,white_high_45_down,2,right,0.1178883,0,120,4,3.2.2021,120.0252533
597,"['low', 4, 2, True]",TRUE,4,black,135,left,down,low,black_low_135_down,white_low_45_down,2,right,0.2197937,0,120,4,3.2.2021,120.0252533
598,"['high', 3, 2, True]",TRUE,3,white,135,right,down,high,white_high_135_down,black_high_45_down,2,right,0.1873926,1,120,4,3.2.2021,120.0252533
599,"['low', 8, 2, True]",TRUE,8,black,135,left,up,low,black_low_135_up,white_low_45_up,2,left,0.2497764,1,120,4,3.2.2021,120.0252533
600,"['high', 3, 2, True]",TRUE,3,black,45,right,down,high,black_high_45_down,white_high_135_down,2,right,0.0355983,1,120,4,3.2.2021,120.0252533
601,"['high', 4, 2, True]",TRUE,4,white,135,right,up,high,white_high_135_up,black_high_45_up,2,right,0.2484001,1,120,4,3.2.2021,120.0252533
602,"['low', 64, 2, True]",TRUE,64,white,135,right,down,low,white_low_135_down,black_low_45_down,2,right,0.258601,1,120,4,3.2.2021,120.0252533
603,"['high', 2, 2, True]",TRUE,2,black,45,right,down,high,black_high_45_down,white_high_135_down,2,right,0.280073,1,120,4,3.2.2021,120.0252533
604,"['high', 1, 2, True]",TRUE,1,white,45,left,up,high,white_high_45_up,black_high_135_up,2,left,0.3815612,1,120,4,3.2.2021,120.0252533
605,"['high', 64, 2, True]",TRUE,64,black,45,right,down,high,black_high_45_down,white_high_135_down,2,right,0.141867,1,120,4,3.2.2021,120.0252533
606,"['high', 16, 2, True]",TRUE,16,black,45,right,down,high,black_high_45_down,white_high_135_down,2,right,0.0133047,1,120,4,3.2.2021,120.0252533
607,"['low', 8, 2, True]",TRUE,8,black,45,right,down,low,black_low_45_down,white_low_135_down,2,right,0.2012764,1,120,4,3.2.2021,120.0252533
608,"['low', 1, 2, True]",TRUE,1,black,45,right,up,low,black_low_45_up,white_low_135_up,2,left,0.1304566,0,120,4,3.2.2021,120.0252533
609,"['high', 1, 2, False]",FALSE,1,white,135,right,down,high,white_high_135_down,black_high_45_down,2,right,0.2906727,1,120,4,3.2.2021,120.0252533
610,"['low', 2, 2, True]",TRUE,2,black,45,right,up,low,black_low_45_up,white_low_135_up,2,right,0.0390218,1,120,4,3.2.2021,120.0252533
611,"['low', 1, 2, False]",FALSE,1,white,135,right,up,low,white_low_135_up,black_low_45_up,2,right,0.2463886,1,120,4,3.2.2021,120.0252533
612,"['high', 3, 60, False]",FALSE,3,white,135,right,down,high,white_high_135_down,black_high_45_down,60,right,0.418988,1,120,4,3.2.2021,120.0252533
613,"['high', 2, 2, True]",TRUE,2,white,45,left,up,high,white_high_45_up,black_high_135_up,2,left,0.3311036,1,120,4,3.2.2021,120.0252533
614,"['high', 3, 60, False]",FALSE,3,black,45,right,up,high,black_high_45_up,white_high_135_up,60,right,0.2921071,1,120,4,3.2.2021,120.0252533
615,"['low', 4, 2, True]",TRUE,4,black,45,right,down,low,black_low_45_down,white_low_135_down,2,right,0.1917567,1,120,4,3.2.2021,120.0252533
616,"['high', 2, 2, True]",TRUE,2,white,45,left,up,high,white_high_45_up,black_high_135_up,2,left,0.2274735,1,120,4,3.2.2021,120.0252533
617,"['high', 1, 2, False]",FALSE,1,white,45,left,up,high,white_high_45_up,black_high_135_up,2,left,0.343285,1,120,4,3.2.2021,120.0252533
618,"['low', 64, 2, True]",TRUE,64,black,45,right,up,low,black_low_45_up,white_low_135_up,2,right,0.6250627,1,120,4,3.2.2021,120.0252533
619,"['low', 1, 2, True]",TRUE,1,white,135,right,up,low,white_low_135_up,black_low_45_up,2,right,0.1551186,1,120,4,3.2.2021,120.0252533
620,"['high', 64, 2, True]",TRUE,64,black,135,left,down,high,black_high_135_down,white_high_45_down,2,left,0.0524678,1,120,4,3.2.2021,120.0252533
621,"['low', 32, 2, True]",TRUE,32,white,135,right,down,low,white_low_135_down,black_low_45_down,2,right,0.154638,1,120,4,3.2.2021,120.0252533
622,"['low', 3, 2, True]",TRUE,3,black,135,left,down,low,black_low_135_down,white_low_45_down,2,right,0.0381551,0,120,4,3.2.2021,120.0252533
623,"['low', 32, 2, True]",TRUE,32,black,45,right,down,low,black_low_45_down,white_low_135_down,2,right,0.4247511,1,120,4,3.2.2021,120.0252533
624,"['high', 64, 2, True]",TRUE,64,white,135,right,up,high,white_high_135_up,black_high_45_up,2,right,0.5123592,1,120,4,3.2.2021,120.0252533
625,"['low', 1, 2, False]",FALSE,1,white,135,right,up,low,white_low_135_up,black_low_45_up,2,right,0.3149753,1,120,4,3.2.2021,120.0252533
626,"['low', 1, 2, True]",TRUE,1,black,45,right,up,low,black_low_45_up,white_low_135_up,2,right,0.2385295,1,120,4,3.2.2021,120.0252533
627,"['low', 1, 2, True]",TRUE,1,white,135,right,up,low,white_low_135_up,black_low_45_up,2,right,0.3425975,1,120,4,3.2.2021,120.0252533
628,"['low', 16, 2, True]",TRUE,16,black,45,right,down,low,black_low_45_down,white_low_135_down,2,right,0.2141204,1,120,4,3.2.2021,120.0252533
629,"['low', 1, 2, False]",FALSE,1,white,135,right,down,low,white_low_135_down,black_low_45_down,2,right,0.346285,1,120,4,3.2.2021,120.0252533
630,"['low', 8, 2, True]",TRUE,8,white,45,left,down,low,white_low_45_down,black_low_135_down,2,left,0.2918018,1,120,4,3.2.2021,120.0252533
631,"['high', 1, 2, True]",TRUE,1,black,135,left,down,high,black_high_135_down,white_high_45_down,2,right,0.1291279,0,120,4,3.2.2021,120.0252533
632,"['high', 32, 2, True]",TRUE,32,black,45,right,up,high,black_high_45_up,white_high_135_up,2,right,0.1220709,1,120,4,3.2.2021,120.0252533
633,"['high', 8, 2, True]",TRUE,8,white,45,left,up,high,white_high_45_up,black_high_135_up,2,left,0.4117045,1,120,4,3.2.2021,120.0252533
634,"['low', 64, 2, True]",TRUE,64,black,45,right,up,low,black_low_45_up,white_low_135_up,2,right,0.7809943,1,120,4,3.2.2021,120.0252533
635,"['high', 16, 2, True]",TRUE,16,black,45,right,up,high,black_high_45_up,white_high_135_up,2,right,0.757707,1,120,4,3.2.2021,120.0252533
636,"['high', 16, 2, True]",TRUE,16,white,135,right,down,high,white_high_135_down,black_high_45_down,2,right,1.0282662,1,120,4,3.2.2021,120.0252533
637,"['high', 1, 2, False]",FALSE,1,black,135,left,down,high,black_high_135_down,white_high_45_down,2,right,1.309857,0,120,4,3.2.2021,120.0252533
638,"['high', 8, 2, True]",TRUE,8,white,45,left,up,high,white_high_45_up,black_high_135_up,2,left,0.7018276,1,120,4,3.2.2021,120.0252533
639,"['high', 4, 2, True]",TRUE,4,white,45,left,up,high,white_high_45_up,black_high_135_up,2,left,1.3151701,1,120,4,3.2.2021,120.0252533
640,"['low', 3, 2, True]",TRUE,3,black,135,left,up,low,black_low_135_up,white_low_45_up,2,left,1.3611488,1,120,4,3.2.2021,120.0252533
641,"['high', 16, 2, True]",TRUE,16,white,135,right,down,high,white_high_135_down,black_high_45_down,2,right,0.3151631,1,120,4,3.2.2021,120.0252533
642,"['high', 1, 2, True]",TRUE,1,white,135,right,down,high,white_high_135_down,black_high_45_down,2,right,0.9487211,1,120,4,3.2.2021,120.0252533
643,"['high', 2, 2, True]",TRUE,2,black,45,right,up,high,black_high_45_up,white_high_135_up,2,left,1.2027384,0,120,4,3.2.2021,120.0252533
644,"['low', 4, 2, True]",TRUE,4,white,45,left,up,low,white_low_45_up,black_low_135_up,2,left,0.9639809,1,120,4,3.2.2021,120.0252533
645,"['low', 32, 2, True]",TRUE,32,white,135,right,up,low,white_low_135_up,black_low_45_up,2,right,0.5850661,1,120,4,3.2.2021,120.0252533
646,"['low', 8, 2, True]",TRUE,8,white,135,right,up,low,white_low_135_up,black_low_45_up,2,right,0.462366,1,120,4,3.2.2021,120.0252533
647,"['high', 3, 60, False]",FALSE,3,black,135,left,up,high,black_high_135_up,white_high_45_up,60,left,0.2960243,1,120,4,3.2.2021,120.0252533
648,"['low', 3, 2, True]",TRUE,3,white,135,right,up,low,white_low_135_up,black_low_45_up,2,right,0.2899545,1,120,4,3.2.2021,120.0252533
649,"['low', 8, 2, True]",TRUE,8,black,135,left,down,low,black_low_135_down,white_low_45_down,2,left,0.1207695,1,120,4,3.2.2021,120.0252533
650,"['high', 16, 2, True]",TRUE,16,black,135,left,up,high,black_high_135_up,white_high_45_up,2,left,0.1808227,1,120,4,3.2.2021,120.0252533
651,"['high', 3, 2, True]",TRUE,3,black,45,right,up,high,black_high_45_up,white_high_135_up,2,right,0.2409523,1,120,4,3.2.2021,120.0252533
652,"['high', 3, 60, False]",FALSE,3,black,45,right,down,high,black_high_45_down,white_high_135_down,60,right,0.2802788,1,120,4,3.2.2021,120.0252533
653,"['high', 64, 2, True]",TRUE,64,black,45,right,down,high,black_high_45_down,white_high_135_down,2,right,0.2672797,1,120,4,3.2.2021,120.0252533
654,"['high', 1, 2, False]",FALSE,1,white,135,right,down,high,white_high_135_down,black_high_45_down,2,right,0.3065178,1,120,4,3.2.2021,120.0252533
655,"['low', 16, 2, True]",TRUE,16,white,135,right,up,low,white_low_135_up,black_low_45_up,2,right,0.1972993,1,120,4,3.2.2021,120.0252533
656,"['low', 1, 2, False]",FALSE,1,black,135,left,down,low,black_low_135_down,white_low_45_down,2,left,0.2667785,1,120,4,3.2.2021,120.0252533
657,"['low', 3, 2, True]",TRUE,3,black,45,right,up,low,black_low_45_up,white_low_135_up,2,right,0.1134431,1,120,4,3.2.2021,120.0252533
658,"['low', 32, 2, True]",TRUE,32,black,135,left,up,low,black_low_135_up,white_low_45_up,2,left,0.2010822,1,120,4,3.2.2021,120.0252533
659,"['low', 64, 2, True]",TRUE,64,black,135,left,down,low,black_low_135_down,white_low_45_down,2,left,0.2107551,1,120,4,3.2.2021,120.0252533
660,"['low', 3, 2, True]",TRUE,3,white,45,left,up,low,white_low_45_up,black_low_135_up,2,left,0.0974605,1,120,4,3.2.2021,120.0252533
661,"['low', 1, 2, False]",FALSE,1,black,135,left,down,low,black_low_135_down,white_low_45_down,2,left,0.3266633,1,120,4,3.2.2021,120.0252533
662,"['low', 1, 2, False]",FALSE,1,white,135,right,down,low,white_low_135_down,black_low_45_down,2,right,0.3600571,1,120,4,3.2.2021,120.0252533
663,"['low', 16, 2, True]",TRUE,16,white,45,left,down,low,white_low_45_down,black_low_135_down,2,left,0.2119462,1,120,4,3.2.2021,120.0252533
664,"['high', 2, 2, True]",TRUE,2,white,45,left,down,high,white_high_45_down,black_high_135_down,2,left,0.2656761,1,120,4,3.2.2021,120.0252533
665,"['high', 1, 2, True]",TRUE,1,black,45,right,up,high,black_high_45_up,white_high_135_up,2,right,0.2541352,1,120,4,3.2.2021,120.0252533
666,"['low', 1, 2, False]",FALSE,1,white,45,left,down,low,white_low_45_down,black_low_135_down,2,left,0.9347224,1,120,4,3.2.2021,120.0252533
667,"['high', 2, 2, True]",TRUE,2,black,45,right,up,high,black_high_45_up,white_high_135_up,2,right,0.1080207,1,120,4,3.2.2021,120.0252533
668,"['low', 1, 2, False]",FALSE,1,black,135,left,down,low,black_low_135_down,white_low_45_down,2,left,0.4343163,1,120,4,3.2.2021,120.0252533
669,"['high', 2, 2, True]",TRUE,2,black,45,right,up,high,black_high_45_up,white_high_135_up,2,left,0.2429487,0,120,4,3.2.2021,120.0252533
670,"['high', 2, 2, True]",TRUE,2,black,135,left,up,high,black_high_135_up,white_high_45_up,2,right,0.2376156,0,120,4,3.2.2021,120.0252533
671,"['low', 1, 2, True]",TRUE,1,black,135,left,up,low,black_low_135_up,white_low_45_up,2,left,0.3223648,1,120,4,3.2.2021,120.0252533
672,"['high', 3, 2, True]",TRUE,3,white,45,left,up,high,white_high_45_up,black_high_135_up,2,left,0.120017,1,120,4,3.2.2021,120.0252533
673,"['low', 1, 2, True]",TRUE,1,black,135,left,down,low,black_low_135_down,white_low_45_down,2,right,0.2395531,0,120,4,3.2.2021,120.0252533
674,"['low', 4, 2, True]",TRUE,4,white,135,right,down,low,white_low_135_down,black_low_45_down,2,right,0.1228534,1,120,4,3.2.2021,120.0252533
675,"['low', 2, 2, True]",TRUE,2,white,45,left,up,low,white_low_45_up,black_low_135_up,2,left,0.170641,1,120,4,3.2.2021,120.0252533
676,"['low', 64, 2, True]",TRUE,64,black,135,left,up,low,black_low_135_up,white_low_45_up,2,left,0.0956215,1,120,4,3.2.2021,120.0252533
677,"['low', 32, 2, True]",TRUE,32,white,45,left,up,low,white_low_45_up,black_low_135_up,2,left,0.4092941,1,120,4,3.2.2021,120.0252533
678,"['low', 8, 2, True]",TRUE,8,white,135,right,up,low,white_low_135_up,black_low_45_up,2,right,0.2379417,1,120,4,3.2.2021,120.0252533
679,"['high', 32, 2, True]",TRUE,32,white,45,left,down,high,white_high_45_down,black_high_135_down,2,left,0.1302374,1,120,4,3.2.2021,120.0252533
680,"['low', 8, 2, True]",TRUE,8,white,45,left,down,low,white_low_45_down,black_low_135_down,2,left,0.1163192,1,120,4,3.2.2021,120.0252533
681,"['high', 16, 2, True]",TRUE,16,black,45,right,down,high,black_high_45_down,white_high_135_down,2,right,0.0529769,1,120,4,3.2.2021,120.0252533
682,"['high', 8, 2, True]",TRUE,8,white,135,right,up,high,white_high_135_up,black_high_45_up,2,right,0.3208802,1,120,4,3.2.2021,120.0252533
683,"['low', 8, 2, True]",TRUE,8,white,45,left,up,low,white_low_45_up,black_low_135_up,2,left,0.0239001,1,120,4,3.2.2021,120.0252533
684,"['low', 32, 2, True]",TRUE,32,white,45,left,down,low,white_low_45_down,black_low_135_down,2,left,0.1299071,1,120,4,3.2.2021,120.0252533
685,"['low', 1, 2, False]",FALSE,1,white,45,left,up,low,white_low_45_up,black_low_135_up,2,left,0.3679706,1,120,4,3.2.2021,120.0252533
686,"['high', 4, 2, True]",TRUE,4,white,45,left,down,high,white_high_45_down,black_high_135_down,2,left,0.0860003,1,120,4,3.2.2021,120.0252533
687,"['high', 32, 2, True]",TRUE,32,black,45,right,up,high,black_high_45_up,white_high_135_up,2,right,0.2234669,1,120,4,3.2.2021,120.0252533
688,"['low', 1, 2, True]",TRUE,1,black,135,left,down,low,black_low_135_down,white_low_45_down,2,left,0.1514693,1,120,4,3.2.2021,120.0252533
689,"['high', 3, 60, False]",FALSE,3,white,45,left,down,high,white_high_45_down,black_high_135_down,60,left,0.4397915,1,120,4,3.2.2021,120.0252533
690,"['low', 8, 2, True]",TRUE,8,black,45,right,up,low,black_low_45_up,white_low_135_up,2,right,0.1771033,1,120,4,3.2.2021,120.0252533
691,"['low', 2, 2, True]",TRUE,2,white,45,left,up,low,white_low_45_up,black_low_135_up,2,left,0.6561167,1,120,4,3.2.2021,120.0252533
692,"['low', 2, 2, True]",TRUE,2,black,45,right,down,low,black_low_45_down,white_low_135_down,2,right,0.713932,1,120,4,3.2.2021,120.0252533
693,"['high', 1, 2, False]",FALSE,1,white,135,right,down,high,white_high_135_down,black_high_45_down,2,right,1.0673346,1,120,4,3.2.2021,120.0252533
694,"['low', 3, 2, True]",TRUE,3,white,45,left,up,low,white_low_45_up,black_low_135_up,2,left,0.7429959,1,120,4,3.2.2021,120.0252533
695,"['high', 64, 2, True]",TRUE,64,black,45,right,down,high,black_high_45_down,white_high_135_down,2,right,0.2113135,1,120,4,3.2.2021,120.0252533
696,"['high', 8, 2, True]",TRUE,8,white,45,left,up,high,white_high_45_up,black_high_135_up,2,left,0.3319395,1,120,4,3.2.2021,120.0252533
697,"['low', 8, 2, True]",TRUE,8,white,135,right,down,low,white_low_135_down,black_low_45_down,2,right,0.221268,1,120,4,3.2.2021,120.0252533
698,"['low', 1, 2, False]",FALSE,1,white,135,right,up,low,white_low_135_up,black_low_45_up,2,right,0.3625215,1,120,4,3.2.2021,120.0252533
699,"['high', 2, 2, True]",TRUE,2,black,135,left,up,high,black_high_135_up,white_high_45_up,2,right,0.0914655,0,120,4,3.2.2021,120.0252533
700,"['high', 16, 2, True]",TRUE,16,black,135,left,down,high,black_high_135_down,white_high_45_down,2,left,0.204671,1,120,4,3.2.2021,120.0252533
701,"['high', 64, 2, True]",TRUE,64,black,45,right,down,high,black_high_45_down,white_high_135_down,2,right,0.359389,1,120,4,3.2.2021,120.0252533
702,"['low', 2, 2, True]",TRUE,2,white,135,right,down,low,white_low_135_down,black_low_45_down,2,right,0.4249981,1,120,4,3.2.2021,120.0252533
703,"['high', 8, 2, True]",TRUE,8,white,135,right,down,high,white_high_135_down,black_high_45_down,2,right,0.3112776,1,120,4,3.2.2021,120.0252533
704,"['low', 1, 2, True]",TRUE,1,black,45,right,down,low,black_low_45_down,white_low_135_down,2,right,0.5378163,1,120,4,3.2.2021,120.0252533
705,"['high', 32, 2, True]",TRUE,32,white,45,left,up,high,white_high_45_up,black_high_135_up,2,left,0.4434904,1,120,4,3.2.2021,120.0252533
