trial_number,trial_type,mask_present,cycle_number,first_color,first_orientation,correct_response,visual_field,spatial_frequency,first_stim,second_stim,stimulus_frame_duration,answer,rt,accuracy,frame_rate,participant,psychopyVersion,frame_rate_detected
0,"['high', 32, 2, True]",TRUE,32,white,135,right,up,high,white_high_135_up,black_high_45_up,2,right,0.6400728,1,120,8,3.2.2021,119.9965921
1,"['low', 32, 2, True]",TRUE,32,white,135,right,up,low,white_low_135_up,black_low_45_up,2,right,0.2820434,1,120,8,3.2.2021,119.9965921
2,"['low', 8, 2, True]",TRUE,8,black,45,right,down,low,black_low_45_down,white_low_135_down,2,left,0.5455648,0,120,8,3.2.2021,119.9965921
3,"['low', 2, 2, True]",TRUE,2,black,45,right,up,low,black_low_45_up,white_low_135_up,2,left,0.3818195,0,120,8,3.2.2021,119.9965921
4,"['low', 4, 2, True]",TRUE,4,white,45,left,down,low,white_low_45_down,black_low_135_down,2,right,0.6291733,0,120,8,3.2.2021,119.9965921
5,"['low', 1, 2, True]",TRUE,1,white,135,right,up,low,white_low_135_up,black_low_45_up,2,right,0.0375343,1,120,8,3.2.2021,119.9965921
6,"['high', 4, 2, True]",TRUE,4,white,45,left,down,high,white_high_45_down,black_high_135_down,2,right,0.4468071,0,120,8,3.2.2021,119.9965921
7,"['high', 2, 2, True]",TRUE,2,black,135,left,up,high,black_high_135_up,white_high_45_up,2,left,0.2812046,1,120,8,3.2.2021,119.9965921
8,"['low', 8, 2, True]",TRUE,8,black,45,right,down,low,black_low_45_down,white_low_135_down,2,right,1.3062704,1,120,8,3.2.2021,119.9965921
9,"['high', 2, 2, True]",TRUE,2,white,45,left,down,high,white_high_45_down,black_high_135_down,2,right,0.5754737,0,120,8,3.2.2021,119.9965921
10,"['high', 64, 2, True]",TRUE,64,white,45,left,up,high,white_high_45_up,black_high_135_up,2,left,0.947755,1,120,8,3.2.2021,119.9965921
11,"['high', 32, 2, True]",TRUE,32,black,135,left,up,high,black_high_135_up,white_high_45_up,2,left,0.4875585,1,120,8,3.2.2021,119.9965921
12,"['low', 3, 2, True]",TRUE,3,black,45,right,down,low,black_low_45_down,white_low_135_down,2,right,0.3703738,1,120,8,3.2.2021,119.9965921
13,"['low', 64, 2, True]",TRUE,64,white,45,left,up,low,white_low_45_up,black_low_135_up,2,left,0.2696675,1,120,8,3.2.2021,119.9965921
14,"['low', 1, 2, True]",TRUE,1,black,135,left,up,low,black_low_135_up,white_low_45_up,2,left,0.5004112,1,120,8,3.2.2021,119.9965921
15,"['low', 1, 2, True]",TRUE,1,white,135,right,up,low,white_low_135_up,black_low_45_up,2,right,0.1440465,1,120,8,3.2.2021,119.9965921
16,"['high', 64, 2, True]",TRUE,64,black,135,left,up,high,black_high_135_up,white_high_45_up,2,left,0.0142967,1,120,8,3.2.2021,119.9965921
17,"['high', 1, 2, False]",FALSE,1,white,45,left,down,high,white_high_45_down,black_high_135_down,2,left,1.5343879,1,120,8,3.2.2021,119.9965921
18,"['high', 4, 2, True]",TRUE,4,black,135,left,down,high,black_high_135_down,white_high_45_down,2,left,0.6378678,1,120,8,3.2.2021,119.9965921
19,"['high', 3, 60, False]",FALSE,3,white,135,right,down,high,white_high_135_down,black_high_45_down,60,right,0.2891138,1,120,8,3.2.2021,119.9965921
20,"['high', 8, 2, True]",TRUE,8,white,45,left,up,high,white_high_45_up,black_high_135_up,2,left,0.389747,1,120,8,3.2.2021,119.9965921
21,"['low', 8, 2, True]",TRUE,8,black,45,right,down,low,black_low_45_down,white_low_135_down,2,right,0.2673222,1,120,8,3.2.2021,119.9965921
22,"['high', 8, 2, True]",TRUE,8,black,45,right,down,high,black_high_45_down,white_high_135_down,2,right,0.3119334,1,120,8,3.2.2021,119.9965921
23,"['high', 1, 2, True]",TRUE,1,black,45,right,down,high,black_high_45_down,white_high_135_down,2,right,0.536988,1,120,8,3.2.2021,119.9965921
24,"['high', 8, 2, True]",TRUE,8,white,45,left,up,high,white_high_45_up,black_high_135_up,2,left,0.5907872,1,120,8,3.2.2021,119.9965921
25,"['low', 1, 2, False]",FALSE,1,black,45,right,up,low,black_low_45_up,white_low_135_up,2,right,0.5837523,1,120,8,3.2.2021,119.9965921
26,"['low', 64, 2, True]",TRUE,64,white,45,left,up,low,white_low_45_up,black_low_135_up,2,left,0.6780727,1,120,8,3.2.2021,119.9965921
27,"['low', 1, 2, True]",TRUE,1,black,45,right,down,low,black_low_45_down,white_low_135_down,2,left,0.3256983,0,120,8,3.2.2021,119.9965921
28,"['low', 64, 2, True]",TRUE,64,black,45,right,down,low,black_low_45_down,white_low_135_down,2,right,0.5195249,1,120,8,3.2.2021,119.9965921
29,"['low', 8, 2, True]",TRUE,8,black,135,left,up,low,black_low_135_up,white_low_45_up,2,left,0.2442333,1,120,8,3.2.2021,119.9965921
30,"['low', 1, 2, False]",FALSE,1,white,135,right,up,low,white_low_135_up,black_low_45_up,2,right,0.3718407,1,120,8,3.2.2021,119.9965921
31,"['high', 3, 2, True]",TRUE,3,black,135,left,up,high,black_high_135_up,white_high_45_up,2,left,0.2607639,1,120,8,3.2.2021,119.9965921
32,"['low', 1, 2, True]",TRUE,1,black,45,right,up,low,black_low_45_up,white_low_135_up,2,left,0.4748445,0,120,8,3.2.2021,119.9965921
33,"['low', 1, 2, True]",TRUE,1,black,135,left,up,low,black_low_135_up,white_low_45_up,2,left,0.6099813,1,120,8,3.2.2021,119.9965921
34,"['low', 3, 2, True]",TRUE,3,black,45,right,down,low,black_low_45_down,white_low_135_down,2,right,0.3523553,1,120,8,3.2.2021,119.9965921
35,"['high', 16, 2, True]",TRUE,16,black,135,left,up,high,black_high_135_up,white_high_45_up,2,left,0.9883335,1,120,8,3.2.2021,119.9965921
36,"['high', 4, 2, True]",TRUE,4,black,135,left,down,high,black_high_135_down,white_high_45_down,2,left,0.6838999,1,120,8,3.2.2021,119.9965921
37,"['low', 4, 2, True]",TRUE,4,white,45,left,down,low,white_low_45_down,black_low_135_down,2,left,0.3459743,1,120,8,3.2.2021,119.9965921
38,"['high', 3, 60, False]",FALSE,3,white,135,right,down,high,white_high_135_down,black_high_45_down,60,right,0.1275762,1,120,8,3.2.2021,119.9965921
39,"['high', 2, 2, True]",TRUE,2,black,45,right,down,high,black_high_45_down,white_high_135_down,2,right,1.1675559,1,120,8,3.2.2021,119.9965921
40,"['low', 16, 2, True]",TRUE,16,white,135,right,down,low,white_low_135_down,black_low_45_down,2,right,0.3045193,1,120,8,3.2.2021,119.9965921
41,"['low', 2, 2, True]",TRUE,2,white,45,left,down,low,white_low_45_down,black_low_135_down,2,left,0.5864505,1,120,8,3.2.2021,119.9965921
42,"['high', 3, 60, False]",FALSE,3,black,45,right,up,high,black_high_45_up,white_high_135_up,60,right,0.384565,1,120,8,3.2.2021,119.9965921
43,"['high', 2, 2, True]",TRUE,2,black,45,right,up,high,black_high_45_up,white_high_135_up,2,left,0.319358,0,120,8,3.2.2021,119.9965921
44,"['high', 32, 2, True]",TRUE,32,black,135,left,down,high,black_high_135_down,white_high_45_down,2,left,0.4721745,1,120,8,3.2.2021,119.9965921
45,"['low', 1, 2, False]",FALSE,1,white,135,right,up,low,white_low_135_up,black_low_45_up,2,right,0.2802838,1,120,8,3.2.2021,119.9965921
46,"['low', 8, 2, True]",TRUE,8,white,45,left,up,low,white_low_45_up,black_low_135_up,2,left,0.2237827,1,120,8,3.2.2021,119.9965921
47,"['low', 16, 2, True]",TRUE,16,white,45,left,down,low,white_low_45_down,black_low_135_down,2,left,0.2141598,1,120,8,3.2.2021,119.9965921
48,"['low', 32, 2, True]",TRUE,32,white,135,right,up,low,white_low_135_up,black_low_45_up,2,right,0.3707788,1,120,8,3.2.2021,119.9965921
49,"['low', 64, 2, True]",TRUE,64,white,135,right,down,low,white_low_135_down,black_low_45_down,2,right,0.2938937,1,120,8,3.2.2021,119.9965921
50,"['low', 16, 2, True]",TRUE,16,white,135,right,down,low,white_low_135_down,black_low_45_down,2,right,0.3224917,1,120,8,3.2.2021,119.9965921
51,"['high', 1, 2, False]",FALSE,1,black,45,right,down,high,black_high_45_down,white_high_135_down,2,left,0.5593809,0,120,8,3.2.2021,119.9965921
52,"['low', 1, 2, False]",FALSE,1,white,45,left,down,low,white_low_45_down,black_low_135_down,2,right,0.5344633,0,120,8,3.2.2021,119.9965921
53,"['high', 32, 2, True]",TRUE,32,white,135,right,down,high,white_high_135_down,black_high_45_down,2,right,0.3555647,1,120,8,3.2.2021,119.9965921
54,"['low', 1, 2, False]",FALSE,1,black,135,left,down,low,black_low_135_down,white_low_45_down,2,left,0.413034,1,120,8,3.2.2021,119.9965921
55,"['low', 3, 2, True]",TRUE,3,white,45,left,down,low,white_low_45_down,black_low_135_down,2,left,0.5123386,1,120,8,3.2.2021,119.9965921
56,"['high', 1, 2, False]",FALSE,1,black,135,left,up,high,black_high_135_up,white_high_45_up,2,right,0.6736076,0,120,8,3.2.2021,119.9965921
57,"['low', 1, 2, True]",TRUE,1,black,135,left,up,low,black_low_135_up,white_low_45_up,2,left,0.3168781,1,120,8,3.2.2021,119.9965921
58,"['high', 3, 60, False]",FALSE,3,black,45,right,down,high,black_high_45_down,white_high_135_down,60,right,0.3193209,1,120,8,3.2.2021,119.9965921
59,"['low', 64, 2, True]",TRUE,64,white,45,left,up,low,white_low_45_up,black_low_135_up,2,left,0.4346432,1,120,8,3.2.2021,119.9965921
60,"['high', 8, 2, True]",TRUE,8,white,45,left,down,high,white_high_45_down,black_high_135_down,2,left,0.3846948,1,120,8,3.2.2021,119.9965921
61,"['high', 4, 2, True]",TRUE,4,white,135,right,down,high,white_high_135_down,black_high_45_down,2,left,0.3536426,0,120,8,3.2.2021,119.9965921
62,"['high', 1, 2, True]",TRUE,1,white,45,left,up,high,white_high_45_up,black_high_135_up,2,left,0.3325795,1,120,8,3.2.2021,119.9965921
63,"['low', 4, 2, True]",TRUE,4,black,45,right,down,low,black_low_45_down,white_low_135_down,2,right,0.3847657,1,120,8,3.2.2021,119.9965921
64,"['low', 16, 2, True]",TRUE,16,black,45,right,up,low,black_low_45_up,white_low_135_up,2,right,0.3527813,1,120,8,3.2.2021,119.9965921
65,"['high', 16, 2, True]",TRUE,16,black,45,right,down,high,black_high_45_down,white_high_135_down,2,right,0.235663,1,120,8,3.2.2021,119.9965921
66,"['high', 64, 2, True]",TRUE,64,white,45,left,up,high,white_high_45_up,black_high_135_up,2,left,0.5082564,1,120,8,3.2.2021,119.9965921
67,"['high', 64, 2, True]",TRUE,64,white,45,left,down,high,white_high_45_down,black_high_135_down,2,left,0.2648633,1,120,8,3.2.2021,119.9965921
68,"['high', 1, 2, False]",FALSE,1,white,135,right,up,high,white_high_135_up,black_high_45_up,2,right,0.8448197,1,120,8,3.2.2021,119.9965921
69,"['high', 16, 2, True]",TRUE,16,white,135,right,up,high,white_high_135_up,black_high_45_up,2,right,0.2545785,1,120,8,3.2.2021,119.9965921
70,"['low', 64, 2, True]",TRUE,64,white,135,right,up,low,white_low_135_up,black_low_45_up,2,right,0.3275482,1,120,8,3.2.2021,119.9965921
71,"['low', 64, 2, True]",TRUE,64,black,135,left,up,low,black_low_135_up,white_low_45_up,2,left,0.2562511,1,120,8,3.2.2021,119.9965921
72,"['high', 3, 60, False]",FALSE,3,white,45,left,down,high,white_high_45_down,black_high_135_down,60,left,0.3576877,1,120,8,3.2.2021,119.9965921
73,"['low', 4, 2, True]",TRUE,4,white,45,left,up,low,white_low_45_up,black_low_135_up,2,left,0.2711138,1,120,8,3.2.2021,119.9965921
74,"['high', 16, 2, True]",TRUE,16,white,45,left,down,high,white_high_45_down,black_high_135_down,2,left,0.2296479,1,120,8,3.2.2021,119.9965921
75,"['high', 64, 2, True]",TRUE,64,white,135,right,down,high,white_high_135_down,black_high_45_down,2,right,0.2082009,1,120,8,3.2.2021,119.9965921
76,"['high', 1, 2, False]",FALSE,1,white,135,right,down,high,white_high_135_down,black_high_45_down,2,right,0.3874812,1,120,8,3.2.2021,119.9965921
77,"['low', 2, 2, True]",TRUE,2,white,45,left,down,low,white_low_45_down,black_low_135_down,2,left,0.0409475,1,120,8,3.2.2021,119.9965921
78,"['low', 3, 2, True]",TRUE,3,black,135,left,down,low,black_low_135_down,white_low_45_down,2,left,0.1602234,1,120,8,3.2.2021,119.9965921
79,"['high', 2, 2, True]",TRUE,2,white,135,right,up,high,white_high_135_up,black_high_45_up,2,right,0.4358523,1,120,8,3.2.2021,119.9965921
80,"['high', 1, 2, True]",TRUE,1,white,135,right,up,high,white_high_135_up,black_high_45_up,2,left,0.2457644,0,120,8,3.2.2021,119.9965921
81,"['low', 8, 2, True]",TRUE,8,white,135,right,down,low,white_low_135_down,black_low_45_down,2,right,0.1144179,1,120,8,3.2.2021,119.9965921
82,"['high', 4, 2, True]",TRUE,4,white,45,left,up,high,white_high_45_up,black_high_135_up,2,left,0.1244805,1,120,8,3.2.2021,119.9965921
83,"['low', 4, 2, True]",TRUE,4,white,45,left,up,low,white_low_45_up,black_low_135_up,2,left,0.5373923,1,120,8,3.2.2021,119.9965921
84,"['high', 8, 2, True]",TRUE,8,black,45,right,up,high,black_high_45_up,white_high_135_up,2,right,0.7526999,1,120,8,3.2.2021,119.9965921
85,"['high', 16, 2, True]",TRUE,16,black,135,left,down,high,black_high_135_down,white_high_45_down,2,left,0.3911564,1,120,8,3.2.2021,119.9965921
86,"['high', 3, 2, True]",TRUE,3,black,135,left,up,high,black_high_135_up,white_high_45_up,2,right,0.4961576,0,120,8,3.2.2021,119.9965921
87,"['high', 8, 2, True]",TRUE,8,white,135,right,up,high,white_high_135_up,black_high_45_up,2,right,0.3710357,1,120,8,3.2.2021,119.9965921
88,"['high', 3, 2, True]",TRUE,3,white,45,left,up,high,white_high_45_up,black_high_135_up,2,left,0.4997079,1,120,8,3.2.2021,119.9965921
89,"['high', 64, 2, True]",TRUE,64,black,45,right,up,high,black_high_45_up,white_high_135_up,2,right,0.2365388,1,120,8,3.2.2021,119.9965921
90,"['high', 2, 2, True]",TRUE,2,black,45,right,up,high,black_high_45_up,white_high_135_up,2,right,0.2385998,1,120,8,3.2.2021,119.9965921
91,"['high', 64, 2, True]",TRUE,64,white,45,left,down,high,white_high_45_down,black_high_135_down,2,left,0.3024173,1,120,8,3.2.2021,119.9965921
92,"['high', 32, 2, True]",TRUE,32,black,45,right,down,high,black_high_45_down,white_high_135_down,2,right,0.1538772,1,120,8,3.2.2021,119.9965921
93,"['high', 8, 2, True]",TRUE,8,black,45,right,up,high,black_high_45_up,white_high_135_up,2,right,0.2286304,1,120,8,3.2.2021,119.9965921
94,"['low', 16, 2, True]",TRUE,16,black,45,right,up,low,black_low_45_up,white_low_135_up,2,right,0.178503,1,120,8,3.2.2021,119.9965921
95,"['low', 1, 2, True]",TRUE,1,white,135,right,down,low,white_low_135_down,black_low_45_down,2,right,0.2332964,1,120,8,3.2.2021,119.9965921
96,"['high', 1, 2, False]",FALSE,1,black,45,right,down,high,black_high_45_down,white_high_135_down,2,left,0.5197876,0,120,8,3.2.2021,119.9965921
97,"['low', 64, 2, True]",TRUE,64,black,135,left,down,low,black_low_135_down,white_low_45_down,2,left,0.1651393,1,120,8,3.2.2021,119.9965921
98,"['high', 1, 2, True]",TRUE,1,white,45,left,up,high,white_high_45_up,black_high_135_up,2,left,0.0837108,1,120,8,3.2.2021,119.9965921
99,"['high', 16, 2, True]",TRUE,16,black,45,right,up,high,black_high_45_up,white_high_135_up,2,right,3.0023825,1,120,8,3.2.2021,119.9965921
100,"['high', 8, 2, True]",TRUE,8,white,45,left,down,high,white_high_45_down,black_high_135_down,2,left,0.2465361,1,120,8,3.2.2021,119.9965921
101,"['high', 32, 2, True]",TRUE,32,black,45,right,up,high,black_high_45_up,white_high_135_up,2,right,0.1910777,1,120,8,3.2.2021,119.9965921
102,"['low', 8, 2, True]",TRUE,8,white,135,right,down,low,white_low_135_down,black_low_45_down,2,right,0.1844133,1,120,8,3.2.2021,119.9965921
103,"['high', 3, 2, True]",TRUE,3,black,135,left,down,high,black_high_135_down,white_high_45_down,2,left,0.1405473,1,120,8,3.2.2021,119.9965921
104,"['high', 4, 2, True]",TRUE,4,black,135,left,down,high,black_high_135_down,white_high_45_down,2,left,0.1201505,1,120,8,3.2.2021,119.9965921
105,"['high', 1, 2, True]",TRUE,1,black,45,right,up,high,black_high_45_up,white_high_135_up,2,right,0.3032506,1,120,8,3.2.2021,119.9965921
106,"['high', 1, 2, False]",FALSE,1,black,45,right,down,high,black_high_45_down,white_high_135_down,2,left,0.4291471,0,120,8,3.2.2021,119.9965921
107,"['low', 8, 2, True]",TRUE,8,black,45,right,down,low,black_low_45_down,white_low_135_down,2,right,0.1929128,1,120,8,3.2.2021,119.9965921
108,"['high', 2, 2, True]",TRUE,2,white,135,right,up,high,white_high_135_up,black_high_45_up,2,right,0.1350222,1,120,8,3.2.2021,119.9965921
109,"['low', 3, 2, True]",TRUE,3,white,135,right,up,low,white_low_135_up,black_low_45_up,2,right,0.2382983,1,120,8,3.2.2021,119.9965921
110,"['high', 2, 2, True]",TRUE,2,white,135,right,down,high,white_high_135_down,black_high_45_down,2,right,0.7016042,1,120,8,3.2.2021,119.9965921
111,"['high', 32, 2, True]",TRUE,32,black,135,left,up,high,black_high_135_up,white_high_45_up,2,left,0.2174454,1,120,8,3.2.2021,119.9965921
112,"['low', 1, 2, False]",FALSE,1,white,135,right,down,low,white_low_135_down,black_low_45_down,2,right,0.3194252,1,120,8,3.2.2021,119.9965921
113,"['low', 1, 2, True]",TRUE,1,white,135,right,down,low,white_low_135_down,black_low_45_down,2,right,0.2563934,1,120,8,3.2.2021,119.9965921
114,"['low', 2, 2, True]",TRUE,2,black,45,right,down,low,black_low_45_down,white_low_135_down,2,right,0.5042919,1,120,8,3.2.2021,119.9965921
115,"['low', 64, 2, True]",TRUE,64,white,135,right,down,low,white_low_135_down,black_low_45_down,2,right,0.4229308,1,120,8,3.2.2021,119.9965921
116,"['low', 2, 2, True]",TRUE,2,white,45,left,down,low,white_low_45_down,black_low_135_down,2,left,0.4129273,1,120,8,3.2.2021,119.9965921
117,"['low', 1, 2, False]",FALSE,1,black,45,right,down,low,black_low_45_down,white_low_135_down,2,right,0.3255905,1,120,8,3.2.2021,119.9965921
118,"['low', 3, 2, True]",TRUE,3,black,45,right,up,low,black_low_45_up,white_low_135_up,2,right,0.2199925,1,120,8,3.2.2021,119.9965921
119,"['high', 4, 2, True]",TRUE,4,white,45,left,up,high,white_high_45_up,black_high_135_up,2,left,0.2732368,1,120,8,3.2.2021,119.9965921
120,"['low', 8, 2, True]",TRUE,8,black,135,left,up,low,black_low_135_up,white_low_45_up,2,left,0.2485433,1,120,8,3.2.2021,119.9965921
121,"['low', 8, 2, True]",TRUE,8,black,135,left,down,low,black_low_135_down,white_low_45_down,2,left,0.3448741,1,120,8,3.2.2021,119.9965921
122,"['high', 2, 2, True]",TRUE,2,black,135,left,down,high,black_high_135_down,white_high_45_down,2,right,0.1782252,0,120,8,3.2.2021,119.9965921
123,"['low', 2, 2, True]",TRUE,2,white,45,left,down,low,white_low_45_down,black_low_135_down,2,left,0.2603822,1,120,8,3.2.2021,119.9965921
124,"['low', 16, 2, True]",TRUE,16,white,45,left,down,low,white_low_45_down,black_low_135_down,2,left,0.1529703,1,120,8,3.2.2021,119.9965921
125,"['high', 32, 2, True]",TRUE,32,black,45,right,up,high,black_high_45_up,white_high_135_up,2,right,0.1281739,1,120,8,3.2.2021,119.9965921
126,"['high', 2, 2, True]",TRUE,2,black,45,right,up,high,black_high_45_up,white_high_135_up,2,left,0.1427071,0,120,8,3.2.2021,119.9965921
127,"['low', 16, 2, True]",TRUE,16,white,135,right,down,low,white_low_135_down,black_low_45_down,2,right,0.2230922,1,120,8,3.2.2021,119.9965921
128,"['low', 8, 2, True]",TRUE,8,black,135,left,up,low,black_low_135_up,white_low_45_up,2,left,0.1791305,1,120,8,3.2.2021,119.9965921
129,"['low', 64, 2, True]",TRUE,64,black,135,left,up,low,black_low_135_up,white_low_45_up,2,left,0.4806747,1,120,8,3.2.2021,119.9965921
130,"['low', 1, 2, True]",TRUE,1,white,135,right,up,low,white_low_135_up,black_low_45_up,2,right,0.3825032,1,120,8,3.2.2021,119.9965921
131,"['high', 64, 2, True]",TRUE,64,black,135,left,up,high,black_high_135_up,white_high_45_up,2,left,0.1362165,1,120,8,3.2.2021,119.9965921
132,"['low', 3, 2, True]",TRUE,3,black,45,right,up,low,black_low_45_up,white_low_135_up,2,right,0.0886925,1,120,8,3.2.2021,119.9965921
133,"['high', 1, 2, False]",FALSE,1,black,45,right,down,high,black_high_45_down,white_high_135_down,2,right,0.518186,1,120,8,3.2.2021,119.9965921
134,"['low', 4, 2, True]",TRUE,4,black,45,right,up,low,black_low_45_up,white_low_135_up,2,right,0.2336303,1,120,8,3.2.2021,119.9965921
135,"['low', 2, 2, True]",TRUE,2,white,45,left,down,low,white_low_45_down,black_low_135_down,2,right,0.2290359,0,120,8,3.2.2021,119.9965921
136,"['low', 32, 2, True]",TRUE,32,black,135,left,up,low,black_low_135_up,white_low_45_up,2,left,0.3691507,1,120,8,3.2.2021,119.9965921
137,"['high', 1, 2, False]",FALSE,1,black,135,left,up,high,black_high_135_up,white_high_45_up,2,left,0.5804465,1,120,8,3.2.2021,119.9965921
138,"['low', 3, 2, True]",TRUE,3,black,135,left,down,low,black_low_135_down,white_low_45_down,2,right,0.2940985,0,120,8,3.2.2021,119.9965921
139,"['high', 3, 2, True]",TRUE,3,white,45,left,up,high,white_high_45_up,black_high_135_up,2,right,0.2695042,0,120,8,3.2.2021,119.9965921
140,"['high', 4, 2, True]",TRUE,4,white,45,left,up,high,white_high_45_up,black_high_135_up,2,right,0.2805423,0,120,8,3.2.2021,119.9965921
141,"['low', 1, 2, True]",TRUE,1,black,45,right,up,low,black_low_45_up,white_low_135_up,2,right,0.2744268,1,120,8,3.2.2021,119.9965921
142,"['high', 32, 2, True]",TRUE,32,black,45,right,up,high,black_high_45_up,white_high_135_up,2,right,0.5122193,1,120,8,3.2.2021,119.9965921
143,"['low', 1, 2, True]",TRUE,1,black,45,right,down,low,black_low_45_down,white_low_135_down,2,right,0.2752184,1,120,8,3.2.2021,119.9965921
144,"['low', 1, 2, False]",FALSE,1,white,45,left,up,low,white_low_45_up,black_low_135_up,2,right,0.9726357,0,120,8,3.2.2021,119.9965921
145,"['high', 3, 2, True]",TRUE,3,white,45,left,up,high,white_high_45_up,black_high_135_up,2,right,0.4003243,0,120,8,3.2.2021,119.9965921
146,"['low', 4, 2, True]",TRUE,4,white,45,left,down,low,white_low_45_down,black_low_135_down,2,left,0.556708,1,120,8,3.2.2021,119.9965921
147,"['low', 32, 2, True]",TRUE,32,black,45,right,down,low,black_low_45_down,white_low_135_down,2,right,0.1690105,1,120,8,3.2.2021,119.9965921
148,"['low', 8, 2, True]",TRUE,8,black,45,right,up,low,black_low_45_up,white_low_135_up,2,right,0.3009632,1,120,8,3.2.2021,119.9965921
149,"['low', 2, 2, True]",TRUE,2,white,135,right,up,low,white_low_135_up,black_low_45_up,2,right,0.2891719,1,120,8,3.2.2021,119.9965921
150,"['low', 32, 2, True]",TRUE,32,white,135,right,down,low,white_low_135_down,black_low_45_down,2,right,0.9032518,1,120,8,3.2.2021,119.9965921
151,"['low', 4, 2, True]",TRUE,4,white,45,left,up,low,white_low_45_up,black_low_135_up,2,right,0.4733504,0,120,8,3.2.2021,119.9965921
152,"['low', 32, 2, True]",TRUE,32,white,45,left,down,low,white_low_45_down,black_low_135_down,2,left,0.1927455,1,120,8,3.2.2021,119.9965921
153,"['high', 3, 2, True]",TRUE,3,black,45,right,up,high,black_high_45_up,white_high_135_up,2,right,0.4115846,1,120,8,3.2.2021,119.9965921
154,"['low', 16, 2, True]",TRUE,16,white,135,right,up,low,white_low_135_up,black_low_45_up,2,right,0.2532695,1,120,8,3.2.2021,119.9965921
155,"['high', 8, 2, True]",TRUE,8,black,45,right,down,high,black_high_45_down,white_high_135_down,2,right,0.1505765,1,120,8,3.2.2021,119.9965921
156,"['high', 3, 2, True]",TRUE,3,black,45,right,down,high,black_high_45_down,white_high_135_down,2,right,0.082593,1,120,8,3.2.2021,119.9965921
157,"['low', 4, 2, True]",TRUE,4,black,45,right,up,low,black_low_45_up,white_low_135_up,2,right,0.2631273,1,120,8,3.2.2021,119.9965921
158,"['low', 16, 2, True]",TRUE,16,black,45,right,down,low,black_low_45_down,white_low_135_down,2,right,0.3483629,1,120,8,3.2.2021,119.9965921
159,"['high', 8, 2, True]",TRUE,8,white,45,left,down,high,white_high_45_down,black_high_135_down,2,left,0.2955325,1,120,8,3.2.2021,119.9965921
160,"['high', 64, 2, True]",TRUE,64,white,45,left,down,high,white_high_45_down,black_high_135_down,2,left,0.2507278,1,120,8,3.2.2021,119.9965921
161,"['high', 16, 2, True]",TRUE,16,white,135,right,up,high,white_high_135_up,black_high_45_up,2,right,0.2730213,1,120,8,3.2.2021,119.9965921
162,"['high', 3, 2, True]",TRUE,3,white,45,left,up,high,white_high_45_up,black_high_135_up,2,right,0.0885023,0,120,8,3.2.2021,119.9965921
163,"['high', 1, 2, True]",TRUE,1,black,135,left,down,high,black_high_135_down,white_high_45_down,2,left,0.3103871,1,120,8,3.2.2021,119.9965921
164,"['low', 1, 2, True]",TRUE,1,black,135,left,up,low,black_low_135_up,white_low_45_up,2,right,0.3565872,0,120,8,3.2.2021,119.9965921
165,"['low', 2, 2, True]",TRUE,2,black,45,right,up,low,black_low_45_up,white_low_135_up,2,right,0.2603026,1,120,8,3.2.2021,119.9965921
166,"['high', 3, 2, True]",TRUE,3,black,135,left,down,high,black_high_135_down,white_high_45_down,2,right,0.2825911,0,120,8,3.2.2021,119.9965921
167,"['low', 1, 2, False]",FALSE,1,black,135,left,up,low,black_low_135_up,white_low_45_up,2,left,0.443101,1,120,8,3.2.2021,119.9965921
168,"['low', 64, 2, True]",TRUE,64,black,45,right,down,low,black_low_45_down,white_low_135_down,2,right,0.2460714,1,120,8,3.2.2021,119.9965921
169,"['low', 64, 2, True]",TRUE,64,white,135,right,up,low,white_low_135_up,black_low_45_up,2,right,0.1835499,1,120,8,3.2.2021,119.9965921
170,"['low', 3, 2, True]",TRUE,3,black,45,right,up,low,black_low_45_up,white_low_135_up,2,right,0.1836642,1,120,8,3.2.2021,119.9965921
171,"['high', 2, 2, True]",TRUE,2,black,45,right,down,high,black_high_45_down,white_high_135_down,2,right,0.4129041,1,120,8,3.2.2021,119.9965921
172,"['high', 1, 2, False]",FALSE,1,white,45,left,up,high,white_high_45_up,black_high_135_up,2,left,0.5413548,1,120,8,3.2.2021,119.9965921
173,"['low', 2, 2, True]",TRUE,2,black,45,right,up,low,black_low_45_up,white_low_135_up,2,right,0.2276133,1,120,8,3.2.2021,119.9965921
174,"['high', 2, 2, True]",TRUE,2,white,135,right,up,high,white_high_135_up,black_high_45_up,2,left,0.2138866,0,120,8,3.2.2021,119.9965921
175,"['high', 4, 2, True]",TRUE,4,white,135,right,down,high,white_high_135_down,black_high_45_down,2,right,0.2790935,1,120,8,3.2.2021,119.9965921
176,"['high', 64, 2, True]",TRUE,64,black,135,left,up,high,black_high_135_up,white_high_45_up,2,left,0.347984,1,120,8,3.2.2021,119.9965921
177,"['low', 3, 2, True]",TRUE,3,black,135,left,down,low,black_low_135_down,white_low_45_down,2,left,0.1570331,1,120,8,3.2.2021,119.9965921
178,"['low', 2, 2, True]",TRUE,2,white,135,right,up,low,white_low_135_up,black_low_45_up,2,right,0.1792524,1,120,8,3.2.2021,119.9965921
179,"['low', 2, 2, True]",TRUE,2,white,45,left,up,low,white_low_45_up,black_low_135_up,2,left,0.1921757,1,120,8,3.2.2021,119.9965921
180,"['low', 4, 2, True]",TRUE,4,black,45,right,down,low,black_low_45_down,white_low_135_down,2,right,0.1080569,1,120,8,3.2.2021,119.9965921
181,"['high', 8, 2, True]",TRUE,8,white,135,right,up,high,white_high_135_up,black_high_45_up,2,right,0.2676581,1,120,8,3.2.2021,119.9965921
182,"['high', 2, 2, True]",TRUE,2,white,135,right,up,high,white_high_135_up,black_high_45_up,2,right,0.2195775,1,120,8,3.2.2021,119.9965921
183,"['low', 4, 2, True]",TRUE,4,white,45,left,down,low,white_low_45_down,black_low_135_down,2,left,0.131183,1,120,8,3.2.2021,119.9965921
184,"['low', 1, 2, False]",FALSE,1,white,45,left,up,low,white_low_45_up,black_low_135_up,2,left,0.5362893,1,120,8,3.2.2021,119.9965921
185,"['low', 4, 2, True]",TRUE,4,white,135,right,down,low,white_low_135_down,black_low_45_down,2,right,0.2471174,1,120,8,3.2.2021,119.9965921
186,"['high', 16, 2, True]",TRUE,16,black,45,right,up,high,black_high_45_up,white_high_135_up,2,right,0.2258044,1,120,8,3.2.2021,119.9965921
187,"['low', 64, 2, True]",TRUE,64,white,45,left,up,low,white_low_45_up,black_low_135_up,2,left,0.3266709,1,120,8,3.2.2021,119.9965921
188,"['low', 8, 2, True]",TRUE,8,white,135,right,up,low,white_low_135_up,black_low_45_up,2,right,1.004266,1,120,8,3.2.2021,119.9965921
189,"['high', 1, 2, True]",TRUE,1,white,45,left,up,high,white_high_45_up,black_high_135_up,2,left,0.3082084,1,120,8,3.2.2021,119.9965921
190,"['high', 3, 60, False]",FALSE,3,black,45,right,down,high,black_high_45_down,white_high_135_down,60,right,0.1470229,1,120,8,3.2.2021,119.9965921
191,"['low', 32, 2, True]",TRUE,32,white,135,right,down,low,white_low_135_down,black_low_45_down,2,right,1.3319866,1,120,8,3.2.2021,119.9965921
192,"['low', 64, 2, True]",TRUE,64,black,45,right,up,low,black_low_45_up,white_low_135_up,2,right,0.3543427,1,120,8,3.2.2021,119.9965921
193,"['low', 1, 2, True]",TRUE,1,white,45,left,down,low,white_low_45_down,black_low_135_down,2,left,0.2818411,1,120,8,3.2.2021,119.9965921
194,"['low', 2, 2, True]",TRUE,2,black,45,right,up,low,black_low_45_up,white_low_135_up,2,right,0.2377173,1,120,8,3.2.2021,119.9965921
195,"['high', 1, 2, True]",TRUE,1,white,45,left,up,high,white_high_45_up,black_high_135_up,2,right,0.289529,0,120,8,3.2.2021,119.9965921
196,"['low', 32, 2, True]",TRUE,32,white,135,right,down,low,white_low_135_down,black_low_45_down,2,right,0.162966,1,120,8,3.2.2021,119.9965921
197,"['high', 16, 2, True]",TRUE,16,white,45,left,up,high,white_high_45_up,black_high_135_up,2,left,0.1767575,1,120,8,3.2.2021,119.9965921
198,"['high', 2, 2, True]",TRUE,2,black,45,right,up,high,black_high_45_up,white_high_135_up,2,right,0.468289,1,120,8,3.2.2021,119.9965921
199,"['low', 64, 2, True]",TRUE,64,white,135,right,down,low,white_low_135_down,black_low_45_down,2,right,0.1156755,1,120,8,3.2.2021,119.9965921
200,"['high', 32, 2, True]",TRUE,32,black,135,left,down,high,black_high_135_down,white_high_45_down,2,left,0.2321002,1,120,8,3.2.2021,119.9965921
201,"['high', 16, 2, True]",TRUE,16,black,135,left,down,high,black_high_135_down,white_high_45_down,2,left,0.1350299,1,120,8,3.2.2021,119.9965921
202,"['low', 64, 2, True]",TRUE,64,white,45,left,down,low,white_low_45_down,black_low_135_down,2,left,0.3254194,1,120,8,3.2.2021,119.9965921
203,"['high', 1, 2, False]",FALSE,1,white,45,left,up,high,white_high_45_up,black_high_135_up,2,left,0.5943657,1,120,8,3.2.2021,119.9965921
204,"['high', 32, 2, True]",TRUE,32,black,135,left,up,high,black_high_135_up,white_high_45_up,2,left,0.3466392,1,120,8,3.2.2021,119.9965921
205,"['high', 16, 2, True]",TRUE,16,white,45,left,up,high,white_high_45_up,black_high_135_up,2,left,0.4686582,1,120,8,3.2.2021,119.9965921
206,"['high', 8, 2, True]",TRUE,8,white,45,left,up,high,white_high_45_up,black_high_135_up,2,left,0.2525587,1,120,8,3.2.2021,119.9965921
207,"['high', 1, 2, True]",TRUE,1,black,45,right,down,high,black_high_45_down,white_high_135_down,2,right,0.4306494,1,120,8,3.2.2021,119.9965921
208,"['high', 1, 2, True]",TRUE,1,black,45,right,up,high,black_high_45_up,white_high_135_up,2,left,0.394328,0,120,8,3.2.2021,119.9965921
209,"['high', 32, 2, True]",TRUE,32,black,135,left,down,high,black_high_135_down,white_high_45_down,2,left,0.2449732,1,120,8,3.2.2021,119.9965921
210,"['low', 1, 2, True]",TRUE,1,black,135,left,down,low,black_low_135_down,white_low_45_down,2,left,0.6943863,1,120,8,3.2.2021,119.9965921
211,"['high', 1, 2, False]",FALSE,1,black,45,right,up,high,black_high_45_up,white_high_135_up,2,right,0.6911131,1,120,8,3.2.2021,119.9965921
212,"['low', 4, 2, True]",TRUE,4,black,135,left,down,low,black_low_135_down,white_low_45_down,2,left,0.1296942,1,120,8,3.2.2021,119.9965921
213,"['high', 32, 2, True]",TRUE,32,black,135,left,up,high,black_high_135_up,white_high_45_up,2,left,0.2365511,1,120,8,3.2.2021,119.9965921
214,"['low', 32, 2, True]",TRUE,32,black,135,left,down,low,black_low_135_down,white_low_45_down,2,left,0.3980607,1,120,8,3.2.2021,119.9965921
215,"['high', 2, 2, True]",TRUE,2,white,45,left,down,high,white_high_45_down,black_high_135_down,2,left,0.4039652,1,120,8,3.2.2021,119.9965921
216,"['high', 2, 2, True]",TRUE,2,black,135,left,down,high,black_high_135_down,white_high_45_down,2,right,0.2407388,0,120,8,3.2.2021,119.9965921
217,"['low', 4, 2, True]",TRUE,4,white,135,right,up,low,white_low_135_up,black_low_45_up,2,right,0.1427143,1,120,8,3.2.2021,119.9965921
218,"['high', 32, 2, True]",TRUE,32,black,45,right,down,high,black_high_45_down,white_high_135_down,2,right,0.1981934,1,120,8,3.2.2021,119.9965921
219,"['low', 1, 2, False]",FALSE,1,black,135,left,down,low,black_low_135_down,white_low_45_down,2,left,0.4142253,1,120,8,3.2.2021,119.9965921
220,"['high', 1, 2, True]",TRUE,1,black,45,right,up,high,black_high_45_up,white_high_135_up,2,right,0.2717455,1,120,8,3.2.2021,119.9965921
221,"['low', 3, 2, True]",TRUE,3,black,135,left,up,low,black_low_135_up,white_low_45_up,2,left,0.1579949,1,120,8,3.2.2021,119.9965921
222,"['high', 4, 2, True]",TRUE,4,black,45,right,up,high,black_high_45_up,white_high_135_up,2,left,0.3376258,0,120,8,3.2.2021,119.9965921
223,"['low', 16, 2, True]",TRUE,16,white,135,right,up,low,white_low_135_up,black_low_45_up,2,right,0.102699,1,120,8,3.2.2021,119.9965921
224,"['high', 16, 2, True]",TRUE,16,black,45,right,down,high,black_high_45_down,white_high_135_down,2,right,0.0426654,1,120,8,3.2.2021,119.9965921
225,"['low', 3, 2, True]",TRUE,3,white,135,right,down,low,white_low_135_down,black_low_45_down,2,right,0.0948915,1,120,8,3.2.2021,119.9965921
226,"['low', 8, 2, True]",TRUE,8,white,45,left,up,low,white_low_45_up,black_low_135_up,2,left,0.1736594,1,120,8,3.2.2021,119.9965921
227,"['low', 1, 2, True]",TRUE,1,black,45,right,up,low,black_low_45_up,white_low_135_up,2,left,0.2250224,0,120,8,3.2.2021,119.9965921
228,"['low', 64, 2, True]",TRUE,64,black,45,right,up,low,black_low_45_up,white_low_135_up,2,right,0.2057274,1,120,8,3.2.2021,119.9965921
229,"['high', 1, 2, True]",TRUE,1,black,135,left,up,high,black_high_135_up,white_high_45_up,2,left,0.1689656,1,120,8,3.2.2021,119.9965921
230,"['low', 3, 2, True]",TRUE,3,black,45,right,up,low,black_low_45_up,white_low_135_up,2,right,0.2251548,1,120,8,3.2.2021,119.9965921
231,"['high', 64, 2, True]",TRUE,64,white,135,right,up,high,white_high_135_up,black_high_45_up,2,right,0.7598533,1,120,8,3.2.2021,119.9965921
232,"['low', 32, 2, True]",TRUE,32,white,45,left,up,low,white_low_45_up,black_low_135_up,2,left,0.3166086,1,120,8,3.2.2021,119.9965921
233,"['low', 1, 2, False]",FALSE,1,white,45,left,up,low,white_low_45_up,black_low_135_up,2,left,0.3150984,1,120,8,3.2.2021,119.9965921
234,"['high', 3, 2, True]",TRUE,3,black,135,left,up,high,black_high_135_up,white_high_45_up,2,left,0.3644652,1,120,8,3.2.2021,119.9965921
235,"['high', 3, 60, False]",FALSE,3,black,45,right,up,high,black_high_45_up,white_high_135_up,60,right,0.2240109,1,120,8,3.2.2021,119.9965921
236,"['low', 2, 2, True]",TRUE,2,black,45,right,up,low,black_low_45_up,white_low_135_up,2,right,0.2027978,1,120,8,3.2.2021,119.9965921
237,"['low', 1, 2, True]",TRUE,1,black,135,left,up,low,black_low_135_up,white_low_45_up,2,left,0.2894945,1,120,8,3.2.2021,119.9965921
238,"['high', 3, 2, True]",TRUE,3,black,45,right,down,high,black_high_45_down,white_high_135_down,2,left,0.3225729,0,120,8,3.2.2021,119.9965921
239,"['low', 8, 2, True]",TRUE,8,black,45,right,down,low,black_low_45_down,white_low_135_down,2,right,0.2546092,1,120,8,3.2.2021,119.9965921
240,"['high', 64, 2, True]",TRUE,64,black,45,right,down,high,black_high_45_down,white_high_135_down,2,right,0.2694095,1,120,8,3.2.2021,119.9965921
241,"['high', 16, 2, True]",TRUE,16,white,45,left,up,high,white_high_45_up,black_high_135_up,2,left,0.2129988,1,120,8,3.2.2021,119.9965921
242,"['low', 4, 2, True]",TRUE,4,white,45,left,up,low,white_low_45_up,black_low_135_up,2,left,0.2790374,1,120,8,3.2.2021,119.9965921
243,"['low', 8, 2, True]",TRUE,8,black,135,left,up,low,black_low_135_up,white_low_45_up,2,left,0.6364208,1,120,8,3.2.2021,119.9965921
244,"['high', 3, 2, True]",TRUE,3,black,135,left,down,high,black_high_135_down,white_high_45_down,2,left,0.2588619,1,120,8,3.2.2021,119.9965921
245,"['high', 1, 2, False]",FALSE,1,white,135,right,down,high,white_high_135_down,black_high_45_down,2,right,0.423551,1,120,8,3.2.2021,119.9965921
246,"['high', 1, 2, True]",TRUE,1,white,135,right,up,high,white_high_135_up,black_high_45_up,2,left,0.1613167,0,120,8,3.2.2021,119.9965921
247,"['high', 1, 2, False]",FALSE,1,black,135,left,down,high,black_high_135_down,white_high_45_down,2,right,0.5576841,0,120,8,3.2.2021,119.9965921
248,"['low', 1, 2, False]",FALSE,1,black,45,right,up,low,black_low_45_up,white_low_135_up,2,right,0.4992842,1,120,8,3.2.2021,119.9965921
249,"['high', 64, 2, True]",TRUE,64,black,135,left,up,high,black_high_135_up,white_high_45_up,2,left,0.3514625,1,120,8,3.2.2021,119.9965921
250,"['high', 64, 2, True]",TRUE,64,black,135,left,up,high,black_high_135_up,white_high_45_up,2,left,0.301907,1,120,8,3.2.2021,119.9965921
251,"['low', 64, 2, True]",TRUE,64,white,135,right,up,low,white_low_135_up,black_low_45_up,2,right,0.2296005,1,120,8,3.2.2021,119.9965921
252,"['high', 16, 2, True]",TRUE,16,white,45,left,up,high,white_high_45_up,black_high_135_up,2,left,0.2650781,1,120,8,3.2.2021,119.9965921
253,"['high', 16, 2, True]",TRUE,16,black,45,right,down,high,black_high_45_down,white_high_135_down,2,right,0.2149202,1,120,8,3.2.2021,119.9965921
254,"['low', 16, 2, True]",TRUE,16,white,45,left,down,low,white_low_45_down,black_low_135_down,2,left,0.1154688,1,120,8,3.2.2021,119.9965921
255,"['high', 1, 2, True]",TRUE,1,black,45,right,down,high,black_high_45_down,white_high_135_down,2,right,0.1683927,1,120,8,3.2.2021,119.9965921
256,"['low', 16, 2, True]",TRUE,16,white,45,left,down,low,white_low_45_down,black_low_135_down,2,left,0.115712,1,120,8,3.2.2021,119.9965921
257,"['low', 32, 2, True]",TRUE,32,white,45,left,down,low,white_low_45_down,black_low_135_down,2,left,0.1804636,1,120,8,3.2.2021,119.9965921
258,"['high', 4, 2, True]",TRUE,4,white,45,left,up,high,white_high_45_up,black_high_135_up,2,left,0.2911542,1,120,8,3.2.2021,119.9965921
259,"['low', 1, 2, False]",FALSE,1,white,45,left,up,low,white_low_45_up,black_low_135_up,2,left,0.3790318,1,120,8,3.2.2021,119.9965921
260,"['high', 3, 2, True]",TRUE,3,white,135,right,down,high,white_high_135_down,black_high_45_down,2,right,0.2096305,1,120,8,3.2.2021,119.9965921
261,"['low', 64, 2, True]",TRUE,64,black,45,right,down,low,black_low_45_down,white_low_135_down,2,right,0.8613995,1,120,8,3.2.2021,119.9965921
262,"['low', 4, 2, True]",TRUE,4,white,135,right,up,low,white_low_135_up,black_low_45_up,2,right,0.3231552,1,120,8,3.2.2021,119.9965921
263,"['low', 4, 2, True]",TRUE,4,white,45,left,down,low,white_low_45_down,black_low_135_down,2,left,0.127669,1,120,8,3.2.2021,119.9965921
264,"['low', 1, 2, True]",TRUE,1,white,45,left,down,low,white_low_45_down,black_low_135_down,2,left,0.4036057,1,120,8,3.2.2021,119.9965921
265,"['low', 16, 2, True]",TRUE,16,black,45,right,down,low,black_low_45_down,white_low_135_down,2,right,0.2143051,1,120,8,3.2.2021,119.9965921
266,"['high', 8, 2, True]",TRUE,8,black,135,left,up,high,black_high_135_up,white_high_45_up,2,left,0.3022187,1,120,8,3.2.2021,119.9965921
267,"['high', 32, 2, True]",TRUE,32,white,45,left,up,high,white_high_45_up,black_high_135_up,2,left,0.2749786,1,120,8,3.2.2021,119.9965921
268,"['low', 64, 2, True]",TRUE,64,white,45,left,down,low,white_low_45_down,black_low_135_down,2,left,0.4211604,1,120,8,3.2.2021,119.9965921
269,"['low', 16, 2, True]",TRUE,16,black,45,right,down,low,black_low_45_down,white_low_135_down,2,right,0.2201352,1,120,8,3.2.2021,119.9965921
270,"['low', 4, 2, True]",TRUE,4,white,45,left,up,low,white_low_45_up,black_low_135_up,2,left,0.1611,1,120,8,3.2.2021,119.9965921
271,"['low', 4, 2, True]",TRUE,4,white,135,right,up,low,white_low_135_up,black_low_45_up,2,right,0.2500176,1,120,8,3.2.2021,119.9965921
272,"['low', 3, 2, True]",TRUE,3,black,45,right,up,low,black_low_45_up,white_low_135_up,2,right,0.1180193,1,120,8,3.2.2021,119.9965921
273,"['low', 3, 2, True]",TRUE,3,black,45,right,up,low,black_low_45_up,white_low_135_up,2,right,0.3461007,1,120,8,3.2.2021,119.9965921
274,"['high', 8, 2, True]",TRUE,8,white,135,right,down,high,white_high_135_down,black_high_45_down,2,right,0.1997775,1,120,8,3.2.2021,119.9965921
275,"['high', 4, 2, True]",TRUE,4,black,135,left,down,high,black_high_135_down,white_high_45_down,2,left,0.2670605,1,120,8,3.2.2021,119.9965921
276,"['low', 32, 2, True]",TRUE,32,black,45,right,down,low,black_low_45_down,white_low_135_down,2,right,2.3617926,1,120,8,3.2.2021,119.9965921
277,"['high', 8, 2, True]",TRUE,8,black,135,left,up,high,black_high_135_up,white_high_45_up,2,left,0.3991508,1,120,8,3.2.2021,119.9965921
278,"['high', 2, 2, True]",TRUE,2,white,135,right,up,high,white_high_135_up,black_high_45_up,2,left,0.2495386,0,120,8,3.2.2021,119.9965921
279,"['high', 16, 2, True]",TRUE,16,black,45,right,down,high,black_high_45_down,white_high_135_down,2,right,0.2738421,1,120,8,3.2.2021,119.9965921
280,"['low', 2, 2, True]",TRUE,2,white,45,left,up,low,white_low_45_up,black_low_135_up,2,left,0.2265291,1,120,8,3.2.2021,119.9965921
281,"['low', 4, 2, True]",TRUE,4,black,135,left,up,low,black_low_135_up,white_low_45_up,2,left,0.3770891,1,120,8,3.2.2021,119.9965921
282,"['low', 16, 2, True]",TRUE,16,black,45,right,down,low,black_low_45_down,white_low_135_down,2,right,0.2549144,1,120,8,3.2.2021,119.9965921
283,"['low', 2, 2, True]",TRUE,2,black,135,left,down,low,black_low_135_down,white_low_45_down,2,left,0.3239815,1,120,8,3.2.2021,119.9965921
284,"['low', 3, 2, True]",TRUE,3,white,135,right,up,low,white_low_135_up,black_low_45_up,2,right,0.2861791,1,120,8,3.2.2021,119.9965921
285,"['high', 3, 60, False]",FALSE,3,black,45,right,up,high,black_high_45_up,white_high_135_up,60,right,0.252159,1,120,8,3.2.2021,119.9965921
286,"['high', 3, 60, False]",FALSE,3,white,135,right,down,high,white_high_135_down,black_high_45_down,60,right,0.3693684,1,120,8,3.2.2021,119.9965921
287,"['high', 2, 2, True]",TRUE,2,black,45,right,up,high,black_high_45_up,white_high_135_up,2,left,0.394887,0,120,8,3.2.2021,119.9965921
288,"['high', 1, 2, True]",TRUE,1,white,135,right,up,high,white_high_135_up,black_high_45_up,2,right,0.2690143,1,120,8,3.2.2021,119.9965921
289,"['low', 1, 2, False]",FALSE,1,white,45,left,down,low,white_low_45_down,black_low_135_down,2,left,0.4210772,1,120,8,3.2.2021,119.9965921
290,"['high', 32, 2, True]",TRUE,32,white,45,left,up,high,white_high_45_up,black_high_135_up,2,left,0.1724199,1,120,8,3.2.2021,119.9965921
291,"['low', 16, 2, True]",TRUE,16,black,45,right,down,low,black_low_45_down,white_low_135_down,2,right,0.3827899,1,120,8,3.2.2021,119.9965921
292,"['high', 64, 2, True]",TRUE,64,white,135,right,down,high,white_high_135_down,black_high_45_down,2,right,0.2492361,1,120,8,3.2.2021,119.9965921
293,"['high', 3, 2, True]",TRUE,3,black,135,left,up,high,black_high_135_up,white_high_45_up,2,left,0.4228718,1,120,8,3.2.2021,119.9965921
294,"['low', 32, 2, True]",TRUE,32,black,135,left,up,low,black_low_135_up,white_low_45_up,2,left,0.2432388,1,120,8,3.2.2021,119.9965921
295,"['high', 4, 2, True]",TRUE,4,white,45,left,up,high,white_high_45_up,black_high_135_up,2,left,0.165065,1,120,8,3.2.2021,119.9965921
296,"['high', 1, 2, True]",TRUE,1,black,45,right,down,high,black_high_45_down,white_high_135_down,2,right,0.1499856,1,120,8,3.2.2021,119.9965921
297,"['high', 64, 2, True]",TRUE,64,black,135,left,up,high,black_high_135_up,white_high_45_up,2,left,0.28991,1,120,8,3.2.2021,119.9965921
298,"['low', 8, 2, True]",TRUE,8,black,135,left,up,low,black_low_135_up,white_low_45_up,2,left,0.5168423,1,120,8,3.2.2021,119.9965921
299,"['high', 64, 2, True]",TRUE,64,black,45,right,up,high,black_high_45_up,white_high_135_up,2,right,0.1604255,1,120,8,3.2.2021,119.9965921
300,"['low', 3, 2, True]",TRUE,3,black,135,left,up,low,black_low_135_up,white_low_45_up,2,left,0.1612766,1,120,8,3.2.2021,119.9965921
301,"['high', 64, 2, True]",TRUE,64,black,45,right,up,high,black_high_45_up,white_high_135_up,2,right,0.2879309,1,120,8,3.2.2021,119.9965921
302,"['high', 1, 2, True]",TRUE,1,black,135,left,up,high,black_high_135_up,white_high_45_up,2,left,0.2180538,1,120,8,3.2.2021,119.9965921
303,"['high', 64, 2, True]",TRUE,64,black,45,right,up,high,black_high_45_up,white_high_135_up,2,right,0.1411304,1,120,8,3.2.2021,119.9965921
304,"['low', 1, 2, True]",TRUE,1,white,135,right,up,low,white_low_135_up,black_low_45_up,2,right,0.2482259,1,120,8,3.2.2021,119.9965921
305,"['high', 8, 2, True]",TRUE,8,white,45,left,down,high,white_high_45_down,black_high_135_down,2,left,0.2558932,1,120,8,3.2.2021,119.9965921
306,"['low', 4, 2, True]",TRUE,4,white,45,left,down,low,white_low_45_down,black_low_135_down,2,left,0.1755478,1,120,8,3.2.2021,119.9965921
307,"['low', 1, 2, False]",FALSE,1,white,45,left,down,low,white_low_45_down,black_low_135_down,2,left,0.4978638,1,120,8,3.2.2021,119.9965921
308,"['low', 16, 2, True]",TRUE,16,black,135,left,up,low,black_low_135_up,white_low_45_up,2,left,0.2257475,1,120,8,3.2.2021,119.9965921
309,"['low', 1, 2, False]",FALSE,1,white,45,left,up,low,white_low_45_up,black_low_135_up,2,left,0.4159722,1,120,8,3.2.2021,119.9965921
310,"['low', 32, 2, True]",TRUE,32,white,135,right,down,low,white_low_135_down,black_low_45_down,2,right,0.0189386,1,120,8,3.2.2021,119.9965921
311,"['low', 3, 2, True]",TRUE,3,white,135,right,up,low,white_low_135_up,black_low_45_up,2,right,0.1063404,1,120,8,3.2.2021,119.9965921
312,"['high', 4, 2, True]",TRUE,4,white,135,right,up,high,white_high_135_up,black_high_45_up,2,right,0.1621676,1,120,8,3.2.2021,119.9965921
313,"['high', 32, 2, True]",TRUE,32,white,45,left,down,high,white_high_45_down,black_high_135_down,2,left,0.1592018,1,120,8,3.2.2021,119.9965921
314,"['low', 1, 2, True]",TRUE,1,white,45,left,down,low,white_low_45_down,black_low_135_down,2,left,0.1881521,1,120,8,3.2.2021,119.9965921
315,"['high', 1, 2, True]",TRUE,1,white,135,right,down,high,white_high_135_down,black_high_45_down,2,right,0.2715782,1,120,8,3.2.2021,119.9965921
316,"['high', 1, 2, False]",FALSE,1,white,45,left,up,high,white_high_45_up,black_high_135_up,2,left,0.480328,1,120,8,3.2.2021,119.9965921
317,"['low', 4, 2, True]",TRUE,4,black,135,left,down,low,black_low_135_down,white_low_45_down,2,left,0.0929035,1,120,8,3.2.2021,119.9965921
318,"['low', 1, 2, False]",FALSE,1,black,45,right,up,low,black_low_45_up,white_low_135_up,2,right,0.5186694,1,120,8,3.2.2021,119.9965921
319,"['low', 2, 2, True]",TRUE,2,white,45,left,down,low,white_low_45_down,black_low_135_down,2,left,0.2214266,1,120,8,3.2.2021,119.9965921
320,"['high', 2, 2, True]",TRUE,2,black,135,left,up,high,black_high_135_up,white_high_45_up,2,right,0.151084,0,120,8,3.2.2021,119.9965921
321,"['high', 2, 2, True]",TRUE,2,white,135,right,down,high,white_high_135_down,black_high_45_down,2,right,0.1473149,1,120,8,3.2.2021,119.9965921
322,"['low', 1, 2, True]",TRUE,1,black,45,right,down,low,black_low_45_down,white_low_135_down,2,left,0.3706818,0,120,8,3.2.2021,119.9965921
323,"['high', 3, 2, True]",TRUE,3,white,135,right,down,high,white_high_135_down,black_high_45_down,2,right,0.1615052,1,120,8,3.2.2021,119.9965921
324,"['low', 32, 2, True]",TRUE,32,black,45,right,down,low,black_low_45_down,white_low_135_down,2,right,0.1241483,1,120,8,3.2.2021,119.9965921
325,"['low', 4, 2, True]",TRUE,4,black,45,right,down,low,black_low_45_down,white_low_135_down,2,right,0.4582231,1,120,8,3.2.2021,119.9965921
326,"['high', 16, 2, True]",TRUE,16,white,135,right,up,high,white_high_135_up,black_high_45_up,2,right,0.2881135,1,120,8,3.2.2021,119.9965921
327,"['low', 3, 2, True]",TRUE,3,black,135,left,down,low,black_low_135_down,white_low_45_down,2,left,0.1507199,1,120,8,3.2.2021,119.9965921
328,"['high', 4, 2, True]",TRUE,4,white,45,left,down,high,white_high_45_down,black_high_135_down,2,left,0.2469993,1,120,8,3.2.2021,119.9965921
329,"['low', 32, 2, True]",TRUE,32,black,135,left,down,low,black_low_135_down,white_low_45_down,2,left,0.2196141,1,120,8,3.2.2021,119.9965921
330,"['low', 32, 2, True]",TRUE,32,white,135,right,up,low,white_low_135_up,black_low_45_up,2,right,0.2343208,1,120,8,3.2.2021,119.9965921
331,"['high', 3, 60, False]",FALSE,3,white,45,left,down,high,white_high_45_down,black_high_135_down,60,left,0.3584003,1,120,8,3.2.2021,119.9965921
332,"['high', 4, 2, True]",TRUE,4,white,45,left,down,high,white_high_45_down,black_high_135_down,2,right,0.6340569,0,120,8,3.2.2021,119.9965921
333,"['low', 3, 2, True]",TRUE,3,black,45,right,up,low,black_low_45_up,white_low_135_up,2,right,0.284838,1,120,8,3.2.2021,119.9965921
334,"['low', 1, 2, True]",TRUE,1,black,135,left,down,low,black_low_135_down,white_low_45_down,2,right,0.2136226,0,120,8,3.2.2021,119.9965921
335,"['high', 2, 2, True]",TRUE,2,white,45,left,up,high,white_high_45_up,black_high_135_up,2,left,0.2248892,1,120,8,3.2.2021,119.9965921
336,"['low', 2, 2, True]",TRUE,2,black,135,left,down,low,black_low_135_down,white_low_45_down,2,left,0.277672,1,120,8,3.2.2021,119.9965921
337,"['high', 3, 2, True]",TRUE,3,black,135,left,up,high,black_high_135_up,white_high_45_up,2,right,0.2332832,0,120,8,3.2.2021,119.9965921
338,"['low', 1, 2, True]",TRUE,1,black,135,left,up,low,black_low_135_up,white_low_45_up,2,right,0.4397302,0,120,8,3.2.2021,119.9965921
339,"['low', 3, 2, True]",TRUE,3,black,135,left,up,low,black_low_135_up,white_low_45_up,2,left,0.1601054,1,120,8,3.2.2021,119.9965921
340,"['low', 4, 2, True]",TRUE,4,white,45,left,up,low,white_low_45_up,black_low_135_up,2,left,0.2707718,1,120,8,3.2.2021,119.9965921
341,"['low', 3, 2, True]",TRUE,3,white,45,left,up,low,white_low_45_up,black_low_135_up,2,left,0.2641795,1,120,8,3.2.2021,119.9965921
342,"['low', 3, 2, True]",TRUE,3,white,135,right,down,low,white_low_135_down,black_low_45_down,2,right,0.1767278,1,120,8,3.2.2021,119.9965921
343,"['high', 2, 2, True]",TRUE,2,black,45,right,down,high,black_high_45_down,white_high_135_down,2,left,0.1315325,0,120,8,3.2.2021,119.9965921
344,"['low', 32, 2, True]",TRUE,32,white,135,right,up,low,white_low_135_up,black_low_45_up,2,right,0.2615289,1,120,8,3.2.2021,119.9965921
345,"['low', 4, 2, True]",TRUE,4,black,135,left,up,low,black_low_135_up,white_low_45_up,2,left,0.2273462,1,120,8,3.2.2021,119.9965921
346,"['high', 3, 60, False]",FALSE,3,white,45,left,up,high,white_high_45_up,black_high_135_up,60,left,0.3123895,1,120,8,3.2.2021,119.9965921
347,"['low', 3, 2, True]",TRUE,3,black,45,right,down,low,black_low_45_down,white_low_135_down,2,right,0.8379388,1,120,8,3.2.2021,119.9965921
348,"['high', 2, 2, True]",TRUE,2,white,45,left,up,high,white_high_45_up,black_high_135_up,2,left,0.3333809,1,120,8,3.2.2021,119.9965921
349,"['high', 2, 2, True]",TRUE,2,black,45,right,up,high,black_high_45_up,white_high_135_up,2,left,0.2891752,0,120,8,3.2.2021,119.9965921
350,"['high', 16, 2, True]",TRUE,16,black,135,left,down,high,black_high_135_down,white_high_45_down,2,left,0.2197717,1,120,8,3.2.2021,119.9965921
351,"['high', 16, 2, True]",TRUE,16,white,135,right,down,high,white_high_135_down,black_high_45_down,2,right,0.3940157,1,120,8,3.2.2021,119.9965921
352,"['low', 16, 2, True]",TRUE,16,black,45,right,down,low,black_low_45_down,white_low_135_down,2,right,0.5751655,1,120,8,3.2.2021,119.9965921
353,"['high', 8, 2, True]",TRUE,8,black,135,left,up,high,black_high_135_up,white_high_45_up,2,left,0.2484418,1,120,8,3.2.2021,119.9965921
354,"['low', 4, 2, True]",TRUE,4,black,45,right,up,low,black_low_45_up,white_low_135_up,2,right,0.3183193,1,120,8,3.2.2021,119.9965921
355,"['low', 32, 2, True]",TRUE,32,black,45,right,up,low,black_low_45_up,white_low_135_up,2,right,0.1347935,1,120,8,3.2.2021,119.9965921
356,"['low', 32, 2, True]",TRUE,32,white,135,right,up,low,white_low_135_up,black_low_45_up,2,right,0.2482658,1,120,8,3.2.2021,119.9965921
357,"['high', 1, 2, True]",TRUE,1,white,45,left,down,high,white_high_45_down,black_high_135_down,2,right,1.3548052,0,120,8,3.2.2021,119.9965921
358,"['low', 64, 2, True]",TRUE,64,white,135,right,down,low,white_low_135_down,black_low_45_down,2,right,0.6282784,1,120,8,3.2.2021,119.9965921
359,"['high', 4, 2, True]",TRUE,4,white,45,left,up,high,white_high_45_up,black_high_135_up,2,right,0.3488425,0,120,8,3.2.2021,119.9965921
360,"['low', 2, 2, True]",TRUE,2,black,135,left,up,low,black_low_135_up,white_low_45_up,2,right,0.4358641,0,120,8,3.2.2021,119.9965921
361,"['high', 3, 2, True]",TRUE,3,white,45,left,up,high,white_high_45_up,black_high_135_up,2,left,0.366828,1,120,8,3.2.2021,119.9965921
362,"['high', 3, 2, True]",TRUE,3,white,45,left,up,high,white_high_45_up,black_high_135_up,2,left,0.3981997,1,120,8,3.2.2021,119.9965921
363,"['high', 16, 2, True]",TRUE,16,black,45,right,down,high,black_high_45_down,white_high_135_down,2,right,0.1334371,1,120,8,3.2.2021,119.9965921
364,"['high', 64, 2, True]",TRUE,64,black,45,right,up,high,black_high_45_up,white_high_135_up,2,right,0.9707096,1,120,8,3.2.2021,119.9965921
365,"['high', 3, 60, False]",FALSE,3,black,45,right,down,high,black_high_45_down,white_high_135_down,60,right,0.3366706,1,120,8,3.2.2021,119.9965921
366,"['high', 32, 2, True]",TRUE,32,white,45,left,down,high,white_high_45_down,black_high_135_down,2,left,0.2521205,1,120,8,3.2.2021,119.9965921
367,"['low', 1, 2, True]",TRUE,1,black,135,left,down,low,black_low_135_down,white_low_45_down,2,right,0.3857635,0,120,8,3.2.2021,119.9965921
368,"['high', 8, 2, True]",TRUE,8,black,135,left,down,high,black_high_135_down,white_high_45_down,2,left,0.253492,1,120,8,3.2.2021,119.9965921
369,"['high', 16, 2, True]",TRUE,16,white,135,right,up,high,white_high_135_up,black_high_45_up,2,right,0.1642214,1,120,8,3.2.2021,119.9965921
370,"['high', 3, 2, True]",TRUE,3,white,45,left,down,high,white_high_45_down,black_high_135_down,2,left,0.2693022,1,120,8,3.2.2021,119.9965921
371,"['low', 2, 2, True]",TRUE,2,black,135,left,up,low,black_low_135_up,white_low_45_up,2,left,0.3511533,1,120,8,3.2.2021,119.9965921
372,"['high', 3, 2, True]",TRUE,3,white,45,left,up,high,white_high_45_up,black_high_135_up,2,right,0.5741342,0,120,8,3.2.2021,119.9965921
373,"['high', 1, 2, False]",FALSE,1,white,135,right,down,high,white_high_135_down,black_high_45_down,2,left,0.5500659,0,120,8,3.2.2021,119.9965921
374,"['high', 1, 2, True]",TRUE,1,white,135,right,up,high,white_high_135_up,black_high_45_up,2,right,0.1884212,1,120,8,3.2.2021,119.9965921
375,"['high', 3, 60, False]",FALSE,3,white,135,right,down,high,white_high_135_down,black_high_45_down,60,right,0.3874098,1,120,8,3.2.2021,119.9965921
376,"['high', 8, 2, True]",TRUE,8,white,45,left,down,high,white_high_45_down,black_high_135_down,2,left,0.2730176,1,120,8,3.2.2021,119.9965921
377,"['low', 64, 2, True]",TRUE,64,black,135,left,down,low,black_low_135_down,white_low_45_down,2,left,0.2924548,1,120,8,3.2.2021,119.9965921
378,"['low', 64, 2, True]",TRUE,64,black,45,right,up,low,black_low_45_up,white_low_135_up,2,right,0.3064304,1,120,8,3.2.2021,119.9965921
379,"['high', 16, 2, True]",TRUE,16,white,45,left,up,high,white_high_45_up,black_high_135_up,2,left,0.325425,1,120,8,3.2.2021,119.9965921
380,"['high', 16, 2, True]",TRUE,16,black,45,right,up,high,black_high_45_up,white_high_135_up,2,right,0.317639,1,120,8,3.2.2021,119.9965921
381,"['low', 16, 2, True]",TRUE,16,white,135,right,down,low,white_low_135_down,black_low_45_down,2,right,0.3404594,1,120,8,3.2.2021,119.9965921
382,"['high', 2, 2, True]",TRUE,2,black,135,left,up,high,black_high_135_up,white_high_45_up,2,right,0.2194487,0,120,8,3.2.2021,119.9965921
383,"['high', 1, 2, False]",FALSE,1,white,135,right,up,high,white_high_135_up,black_high_45_up,2,left,0.5193309,0,120,8,3.2.2021,119.9965921
384,"['high', 1, 2, True]",TRUE,1,white,45,left,down,high,white_high_45_down,black_high_135_down,2,right,0.3281776,0,120,8,3.2.2021,119.9965921
385,"['high', 4, 2, True]",TRUE,4,black,135,left,down,high,black_high_135_down,white_high_45_down,2,left,0.4162869,1,120,8,3.2.2021,119.9965921
386,"['high', 1, 2, True]",TRUE,1,white,135,right,up,high,white_high_135_up,black_high_45_up,2,left,0.504602,0,120,8,3.2.2021,119.9965921
387,"['low', 8, 2, True]",TRUE,8,black,135,left,down,low,black_low_135_down,white_low_45_down,2,left,0.2426604,1,120,8,3.2.2021,119.9965921
388,"['high', 32, 2, True]",TRUE,32,white,135,right,up,high,white_high_135_up,black_high_45_up,2,right,0.2612495,1,120,8,3.2.2021,119.9965921
389,"['high', 1, 2, False]",FALSE,1,black,45,right,down,high,black_high_45_down,white_high_135_down,2,left,1.1913341,0,120,8,3.2.2021,119.9965921
390,"['high', 3, 60, False]",FALSE,3,white,45,left,down,high,white_high_45_down,black_high_135_down,60,left,0.3375097,1,120,8,3.2.2021,119.9965921
391,"['low', 8, 2, True]",TRUE,8,white,45,left,down,low,white_low_45_down,black_low_135_down,2,left,0.3038679,1,120,8,3.2.2021,119.9965921
392,"['low', 3, 2, True]",TRUE,3,black,135,left,down,low,black_low_135_down,white_low_45_down,2,left,0.305628,1,120,8,3.2.2021,119.9965921
393,"['high', 8, 2, True]",TRUE,8,black,135,left,up,high,black_high_135_up,white_high_45_up,2,left,0.2509906,1,120,8,3.2.2021,119.9965921
394,"['high', 32, 2, True]",TRUE,32,black,135,left,down,high,black_high_135_down,white_high_45_down,2,left,0.2252099,1,120,8,3.2.2021,119.9965921
395,"['high', 16, 2, True]",TRUE,16,black,135,left,down,high,black_high_135_down,white_high_45_down,2,left,0.2408671,1,120,8,3.2.2021,119.9965921
396,"['low', 16, 2, True]",TRUE,16,black,45,right,up,low,black_low_45_up,white_low_135_up,2,right,0.2177243,1,120,8,3.2.2021,119.9965921
397,"['low', 32, 2, True]",TRUE,32,black,135,left,down,low,black_low_135_down,white_low_45_down,2,left,0.2038379,1,120,8,3.2.2021,119.9965921
398,"['high', 1, 2, False]",FALSE,1,black,135,left,down,high,black_high_135_down,white_high_45_down,2,left,0.7023739,1,120,8,3.2.2021,119.9965921
399,"['high', 64, 2, True]",TRUE,64,white,45,left,up,high,white_high_45_up,black_high_135_up,2,left,0.090183,1,120,8,3.2.2021,119.9965921
400,"['high', 8, 2, True]",TRUE,8,white,135,right,down,high,white_high_135_down,black_high_45_down,2,right,0.3110716,1,120,8,3.2.2021,119.9965921
401,"['high', 4, 2, True]",TRUE,4,black,135,left,up,high,black_high_135_up,white_high_45_up,2,right,0.1535127,0,120,8,3.2.2021,119.9965921
402,"['high', 64, 2, True]",TRUE,64,white,45,left,down,high,white_high_45_down,black_high_135_down,2,left,0.2175846,1,120,8,3.2.2021,119.9965921
403,"['high', 1, 2, False]",FALSE,1,white,135,right,down,high,white_high_135_down,black_high_45_down,2,right,0.3759631,1,120,8,3.2.2021,119.9965921
404,"['high', 2, 2, True]",TRUE,2,white,135,right,down,high,white_high_135_down,black_high_45_down,2,left,0.2831347,0,120,8,3.2.2021,119.9965921
405,"['high', 8, 2, True]",TRUE,8,white,135,right,down,high,white_high_135_down,black_high_45_down,2,right,0.2040987,1,120,8,3.2.2021,119.9965921
406,"['low', 1, 2, False]",FALSE,1,black,45,right,up,low,black_low_45_up,white_low_135_up,2,right,0.40813,1,120,8,3.2.2021,119.9965921
407,"['high', 1, 2, False]",FALSE,1,black,135,left,down,high,black_high_135_down,white_high_45_down,2,left,0.3610543,1,120,8,3.2.2021,119.9965921
408,"['high', 1, 2, True]",TRUE,1,white,135,right,down,high,white_high_135_down,black_high_45_down,2,left,0.0725065,0,120,8,3.2.2021,119.9965921
409,"['high', 64, 2, True]",TRUE,64,white,135,right,down,high,white_high_135_down,black_high_45_down,2,right,0.1938697,1,120,8,3.2.2021,119.9965921
410,"['low', 2, 2, True]",TRUE,2,black,135,left,down,low,black_low_135_down,white_low_45_down,2,left,0.2134031,1,120,8,3.2.2021,119.9965921
411,"['low', 8, 2, True]",TRUE,8,black,45,right,up,low,black_low_45_up,white_low_135_up,2,right,0.2920099,1,120,8,3.2.2021,119.9965921
412,"['low', 32, 2, True]",TRUE,32,white,45,left,down,low,white_low_45_down,black_low_135_down,2,left,0.0836971,1,120,8,3.2.2021,119.9965921
413,"['low', 4, 2, True]",TRUE,4,black,45,right,up,low,black_low_45_up,white_low_135_up,2,right,0.0308848,1,120,8,3.2.2021,119.9965921
414,"['low', 8, 2, True]",TRUE,8,white,135,right,up,low,white_low_135_up,black_low_45_up,2,right,0.0680196,1,120,8,3.2.2021,119.9965921
415,"['low', 4, 2, True]",TRUE,4,black,135,left,down,low,black_low_135_down,white_low_45_down,2,left,0.1486843,1,120,8,3.2.2021,119.9965921
416,"['low', 16, 2, True]",TRUE,16,black,135,left,down,low,black_low_135_down,white_low_45_down,2,left,0.1324581,1,120,8,3.2.2021,119.9965921
417,"['high', 1, 2, False]",FALSE,1,white,135,right,down,high,white_high_135_down,black_high_45_down,2,right,0.3251066,1,120,8,3.2.2021,119.9965921
418,"['high', 2, 2, True]",TRUE,2,white,135,right,down,high,white_high_135_down,black_high_45_down,2,left,0.2196826,0,120,8,3.2.2021,119.9965921
419,"['high', 1, 2, False]",FALSE,1,white,45,left,down,high,white_high_45_down,black_high_135_down,2,left,0.5699962,1,120,8,3.2.2021,119.9965921
420,"['high', 1, 2, False]",FALSE,1,white,45,left,up,high,white_high_45_up,black_high_135_up,2,left,0.4704129,1,120,8,3.2.2021,119.9965921
421,"['high', 4, 2, True]",TRUE,4,white,135,right,up,high,white_high_135_up,black_high_45_up,2,right,0.2482421,1,120,8,3.2.2021,119.9965921
422,"['low', 1, 2, True]",TRUE,1,black,45,right,up,low,black_low_45_up,white_low_135_up,2,right,0.2730118,1,120,8,3.2.2021,119.9965921
423,"['low', 2, 2, True]",TRUE,2,black,45,right,down,low,black_low_45_down,white_low_135_down,2,right,0.2191786,1,120,8,3.2.2021,119.9965921
424,"['high', 32, 2, True]",TRUE,32,black,45,right,down,high,black_high_45_down,white_high_135_down,2,right,0.1511416,1,120,8,3.2.2021,119.9965921
425,"['low', 8, 2, True]",TRUE,8,black,45,right,down,low,black_low_45_down,white_low_135_down,2,right,0.2842521,1,120,8,3.2.2021,119.9965921
426,"['high', 8, 2, True]",TRUE,8,black,45,right,up,high,black_high_45_up,white_high_135_up,2,left,0.1964157,0,120,8,3.2.2021,119.9965921
427,"['low', 1, 2, False]",FALSE,1,white,135,right,down,low,white_low_135_down,black_low_45_down,2,right,0.5733658,1,120,8,3.2.2021,119.9965921
428,"['high', 32, 2, True]",TRUE,32,black,45,right,up,high,black_high_45_up,white_high_135_up,2,right,0.1559219,1,120,8,3.2.2021,119.9965921
429,"['low', 64, 2, True]",TRUE,64,black,45,right,down,low,black_low_45_down,white_low_135_down,2,right,0.9855368,1,120,8,3.2.2021,119.9965921
430,"['high', 64, 2, True]",TRUE,64,white,45,left,down,high,white_high_45_down,black_high_135_down,2,left,0.1678902,1,120,8,3.2.2021,119.9965921
431,"['low', 8, 2, True]",TRUE,8,black,45,right,up,low,black_low_45_up,white_low_135_up,2,right,0.2104687,1,120,8,3.2.2021,119.9965921
432,"['low', 8, 2, True]",TRUE,8,white,45,left,down,low,white_low_45_down,black_low_135_down,2,left,0.1498868,1,120,8,3.2.2021,119.9965921
433,"['high', 32, 2, True]",TRUE,32,black,135,left,up,high,black_high_135_up,white_high_45_up,2,left,0.0488681,1,120,8,3.2.2021,119.9965921
434,"['low', 8, 2, True]",TRUE,8,black,135,left,down,low,black_low_135_down,white_low_45_down,2,left,0.1594671,1,120,8,3.2.2021,119.9965921
435,"['low', 16, 2, True]",TRUE,16,black,135,left,down,low,black_low_135_down,white_low_45_down,2,left,0.6128541,1,120,8,3.2.2021,119.9965921
436,"['low', 4, 2, True]",TRUE,4,white,45,left,up,low,white_low_45_up,black_low_135_up,2,left,0.2358901,1,120,8,3.2.2021,119.9965921
437,"['high', 1, 2, False]",FALSE,1,black,45,right,down,high,black_high_45_down,white_high_135_down,2,left,0.4565768,0,120,8,3.2.2021,119.9965921
438,"['low', 8, 2, True]",TRUE,8,white,135,right,down,low,white_low_135_down,black_low_45_down,2,right,0.0228896,1,120,8,3.2.2021,119.9965921
439,"['low', 1, 2, True]",TRUE,1,white,135,right,up,low,white_low_135_up,black_low_45_up,2,right,0.160023,1,120,8,3.2.2021,119.9965921
440,"['low', 8, 2, True]",TRUE,8,white,45,left,up,low,white_low_45_up,black_low_135_up,2,left,0.1602892,1,120,8,3.2.2021,119.9965921
441,"['low', 3, 2, True]",TRUE,3,white,135,right,down,low,white_low_135_down,black_low_45_down,2,right,0.1019671,1,120,8,3.2.2021,119.9965921
442,"['high', 1, 2, True]",TRUE,1,white,135,right,down,high,white_high_135_down,black_high_45_down,2,left,0.2484993,0,120,8,3.2.2021,119.9965921
443,"['high', 1, 2, False]",FALSE,1,black,135,left,up,high,black_high_135_up,white_high_45_up,2,left,0.5643545,1,120,8,3.2.2021,119.9965921
444,"['low', 64, 2, True]",TRUE,64,white,45,left,up,low,white_low_45_up,black_low_135_up,2,left,0.3015651,1,120,8,3.2.2021,119.9965921
445,"['low', 64, 2, True]",TRUE,64,white,135,right,down,low,white_low_135_down,black_low_45_down,2,right,0.0092012,1,120,8,3.2.2021,119.9965921
446,"['low', 16, 2, True]",TRUE,16,white,135,right,up,low,white_low_135_up,black_low_45_up,2,right,0.1881987,1,120,8,3.2.2021,119.9965921
447,"['low', 1, 2, True]",TRUE,1,white,135,right,down,low,white_low_135_down,black_low_45_down,2,right,0.3568683,1,120,8,3.2.2021,119.9965921
448,"['low', 2, 2, True]",TRUE,2,black,45,right,down,low,black_low_45_down,white_low_135_down,2,right,0.193483,1,120,8,3.2.2021,119.9965921
449,"['high', 8, 2, True]",TRUE,8,black,45,right,down,high,black_high_45_down,white_high_135_down,2,right,0.5031671,1,120,8,3.2.2021,119.9965921
450,"['high', 16, 2, True]",TRUE,16,white,45,left,down,high,white_high_45_down,black_high_135_down,2,left,0.2457676,1,120,8,3.2.2021,119.9965921
451,"['low', 8, 2, True]",TRUE,8,white,135,right,up,low,white_low_135_up,black_low_45_up,2,right,0.2407435,1,120,8,3.2.2021,119.9965921
452,"['high', 1, 2, True]",TRUE,1,black,45,right,up,high,black_high_45_up,white_high_135_up,2,left,0.9570486,0,120,8,3.2.2021,119.9965921
453,"['high', 1, 2, True]",TRUE,1,black,135,left,down,high,black_high_135_down,white_high_45_down,2,right,0.0482753,0,120,8,3.2.2021,119.9965921
454,"['low', 16, 2, True]",TRUE,16,black,135,left,up,low,black_low_135_up,white_low_45_up,2,left,0.3659165,1,120,8,3.2.2021,119.9965921
455,"['low', 8, 2, True]",TRUE,8,white,135,right,up,low,white_low_135_up,black_low_45_up,2,right,0.298528,1,120,8,3.2.2021,119.9965921
456,"['low', 8, 2, True]",TRUE,8,white,45,left,down,low,white_low_45_down,black_low_135_down,2,left,0.2224896,1,120,8,3.2.2021,119.9965921
457,"['low', 2, 2, True]",TRUE,2,white,45,left,up,low,white_low_45_up,black_low_135_up,2,right,3.679541,0,120,8,3.2.2021,119.9965921
458,"['high', 32, 2, True]",TRUE,32,white,135,right,down,high,white_high_135_down,black_high_45_down,2,right,0.3419591,1,120,8,3.2.2021,119.9965921
459,"['high', 2, 2, True]",TRUE,2,white,45,left,down,high,white_high_45_down,black_high_135_down,2,left,0.3644613,1,120,8,3.2.2021,119.9965921
460,"['high', 2, 2, True]",TRUE,2,black,135,left,down,high,black_high_135_down,white_high_45_down,2,right,0.5715853,0,120,8,3.2.2021,119.9965921
461,"['low', 32, 2, True]",TRUE,32,black,135,left,down,low,black_low_135_down,white_low_45_down,2,left,0.3070476,1,120,8,3.2.2021,119.9965921
462,"['low', 1, 2, False]",FALSE,1,white,45,left,up,low,white_low_45_up,black_low_135_up,2,left,0.5382903,1,120,8,3.2.2021,119.9965921
463,"['low', 1, 2, False]",FALSE,1,black,135,left,down,low,black_low_135_down,white_low_45_down,2,left,0.5010292,1,120,8,3.2.2021,119.9965921
464,"['high', 3, 2, True]",TRUE,3,white,45,left,up,high,white_high_45_up,black_high_135_up,2,right,0.2524215,0,120,8,3.2.2021,119.9965921
465,"['low', 16, 2, True]",TRUE,16,black,135,left,up,low,black_low_135_up,white_low_45_up,2,left,0.2939225,1,120,8,3.2.2021,119.9965921
466,"['low', 1, 2, True]",TRUE,1,white,45,left,up,low,white_low_45_up,black_low_135_up,2,right,0.1087429,0,120,8,3.2.2021,119.9965921
467,"['high', 3, 60, False]",FALSE,3,black,135,left,down,high,black_high_135_down,white_high_45_down,60,left,0.2750602,1,120,8,3.2.2021,119.9965921
468,"['high', 1, 2, False]",FALSE,1,black,45,right,up,high,black_high_45_up,white_high_135_up,2,left,0.4048685,0,120,8,3.2.2021,119.9965921
469,"['high', 16, 2, True]",TRUE,16,black,135,left,up,high,black_high_135_up,white_high_45_up,2,left,0.2184972,1,120,8,3.2.2021,119.9965921
470,"['low', 1, 2, False]",FALSE,1,black,135,left,up,low,black_low_135_up,white_low_45_up,2,left,0.4283339,1,120,8,3.2.2021,119.9965921
471,"['high', 64, 2, True]",TRUE,64,black,135,left,up,high,black_high_135_up,white_high_45_up,2,left,0.0417454,1,120,8,3.2.2021,119.9965921
472,"['high', 3, 60, False]",FALSE,3,white,45,left,up,high,white_high_45_up,black_high_135_up,60,left,0.3821492,1,120,8,3.2.2021,119.9965921
473,"['high', 3, 60, False]",FALSE,3,black,135,left,up,high,black_high_135_up,white_high_45_up,60,left,0.6955648,1,120,8,3.2.2021,119.9965921
474,"['low', 32, 2, True]",TRUE,32,black,45,right,up,low,black_low_45_up,white_low_135_up,2,right,0.4372467,1,120,8,3.2.2021,119.9965921
475,"['low', 2, 2, True]",TRUE,2,black,45,right,down,low,black_low_45_down,white_low_135_down,2,right,0.2247834,1,120,8,3.2.2021,119.9965921
476,"['high', 16, 2, True]",TRUE,16,white,135,right,down,high,white_high_135_down,black_high_45_down,2,right,3.9751395,1,120,8,3.2.2021,119.9965921
477,"['high', 32, 2, True]",TRUE,32,black,135,left,down,high,black_high_135_down,white_high_45_down,2,left,0.4101275,1,120,8,3.2.2021,119.9965921
478,"['low', 3, 2, True]",TRUE,3,black,135,left,up,low,black_low_135_up,white_low_45_up,2,left,0.2292447,1,120,8,3.2.2021,119.9965921
479,"['high', 3, 2, True]",TRUE,3,black,45,right,down,high,black_high_45_down,white_high_135_down,2,right,0.1277518,1,120,8,3.2.2021,119.9965921
480,"['high', 1, 2, False]",FALSE,1,white,45,left,up,high,white_high_45_up,black_high_135_up,2,left,0.3886417,1,120,8,3.2.2021,119.9965921
481,"['low', 1, 2, False]",FALSE,1,black,45,right,down,low,black_low_45_down,white_low_135_down,2,left,0.444329,0,120,8,3.2.2021,119.9965921
482,"['high', 8, 2, True]",TRUE,8,black,135,left,down,high,black_high_135_down,white_high_45_down,2,left,0.2421927,1,120,8,3.2.2021,119.9965921
483,"['low', 2, 2, True]",TRUE,2,black,135,left,down,low,black_low_135_down,white_low_45_down,2,left,0.3035492,1,120,8,3.2.2021,119.9965921
484,"['low', 32, 2, True]",TRUE,32,black,45,right,up,low,black_low_45_up,white_low_135_up,2,right,0.3209914,1,120,8,3.2.2021,119.9965921
485,"['low', 1, 2, True]",TRUE,1,white,45,left,up,low,white_low_45_up,black_low_135_up,2,left,0.2128551,1,120,8,3.2.2021,119.9965921
486,"['low', 2, 2, True]",TRUE,2,black,45,right,up,low,black_low_45_up,white_low_135_up,2,right,0.2476992,1,120,8,3.2.2021,119.9965921
487,"['low', 3, 2, True]",TRUE,3,white,135,right,down,low,white_low_135_down,black_low_45_down,2,right,0.2916681,1,120,8,3.2.2021,119.9965921
488,"['low', 1, 2, True]",TRUE,1,black,135,left,down,low,black_low_135_down,white_low_45_down,2,right,0.2198888,0,120,8,3.2.2021,119.9965921
489,"['low', 32, 2, True]",TRUE,32,black,135,left,up,low,black_low_135_up,white_low_45_up,2,left,0.2630541,1,120,8,3.2.2021,119.9965921
490,"['low', 2, 2, True]",TRUE,2,black,135,left,up,low,black_low_135_up,white_low_45_up,2,left,0.2994137,1,120,8,3.2.2021,119.9965921
491,"['high', 16, 2, True]",TRUE,16,black,135,left,up,high,black_high_135_up,white_high_45_up,2,left,0.1356113,1,120,8,3.2.2021,119.9965921
492,"['low', 32, 2, True]",TRUE,32,black,135,left,down,low,black_low_135_down,white_low_45_down,2,left,0.303506,1,120,8,3.2.2021,119.9965921
493,"['high', 2, 2, True]",TRUE,2,white,135,right,up,high,white_high_135_up,black_high_45_up,2,right,0.1712862,1,120,8,3.2.2021,119.9965921
494,"['high', 3, 60, False]",FALSE,3,black,135,left,up,high,black_high_135_up,white_high_45_up,60,left,0.4432046,1,120,8,3.2.2021,119.9965921
495,"['high', 2, 2, True]",TRUE,2,white,45,left,up,high,white_high_45_up,black_high_135_up,2,left,0.1595134,1,120,8,3.2.2021,119.9965921
496,"['high', 64, 2, True]",TRUE,64,white,45,left,up,high,white_high_45_up,black_high_135_up,2,left,0.64415,1,120,8,3.2.2021,119.9965921
497,"['high', 64, 2, True]",TRUE,64,black,45,right,up,high,black_high_45_up,white_high_135_up,2,right,0.3545211,1,120,8,3.2.2021,119.9965921
498,"['low', 16, 2, True]",TRUE,16,black,135,left,up,low,black_low_135_up,white_low_45_up,2,left,0.2436803,1,120,8,3.2.2021,119.9965921
499,"['low', 64, 2, True]",TRUE,64,black,45,right,down,low,black_low_45_down,white_low_135_down,2,right,1.1304466,1,120,8,3.2.2021,119.9965921
500,"['low', 32, 2, True]",TRUE,32,black,45,right,down,low,black_low_45_down,white_low_135_down,2,right,0.2975792,1,120,8,3.2.2021,119.9965921
501,"['low', 64, 2, True]",TRUE,64,white,135,right,down,low,white_low_135_down,black_low_45_down,2,right,0.1725923,1,120,8,3.2.2021,119.9965921
502,"['high', 8, 2, True]",TRUE,8,black,45,right,down,high,black_high_45_down,white_high_135_down,2,right,0.3177388,1,120,8,3.2.2021,119.9965921
503,"['low', 1, 2, False]",FALSE,1,black,135,left,down,low,black_low_135_down,white_low_45_down,2,left,0.4927712,1,120,8,3.2.2021,119.9965921
504,"['low', 16, 2, True]",TRUE,16,white,45,left,up,low,white_low_45_up,black_low_135_up,2,left,0.2708024,1,120,8,3.2.2021,119.9965921
505,"['low', 3, 2, True]",TRUE,3,black,45,right,up,low,black_low_45_up,white_low_135_up,2,right,0.1500826,1,120,8,3.2.2021,119.9965921
506,"['low', 4, 2, True]",TRUE,4,black,135,left,up,low,black_low_135_up,white_low_45_up,2,left,0.2363456,1,120,8,3.2.2021,119.9965921
507,"['high', 16, 2, True]",TRUE,16,black,135,left,down,high,black_high_135_down,white_high_45_down,2,left,0.3271519,1,120,8,3.2.2021,119.9965921
508,"['high', 8, 2, True]",TRUE,8,white,135,right,down,high,white_high_135_down,black_high_45_down,2,left,0.5522243,0,120,8,3.2.2021,119.9965921
509,"['high', 32, 2, True]",TRUE,32,white,45,left,up,high,white_high_45_up,black_high_135_up,2,left,0.2480512,1,120,8,3.2.2021,119.9965921
510,"['high', 2, 2, True]",TRUE,2,white,135,right,down,high,white_high_135_down,black_high_45_down,2,left,0.2347621,0,120,8,3.2.2021,119.9965921
511,"['high', 32, 2, True]",TRUE,32,black,135,left,down,high,black_high_135_down,white_high_45_down,2,left,0.1060263,1,120,8,3.2.2021,119.9965921
512,"['high', 16, 2, True]",TRUE,16,black,45,right,up,high,black_high_45_up,white_high_135_up,2,right,0.3037583,1,120,8,3.2.2021,119.9965921
513,"['high', 64, 2, True]",TRUE,64,black,45,right,down,high,black_high_45_down,white_high_135_down,2,right,0.1793066,1,120,8,3.2.2021,119.9965921
514,"['low', 1, 2, False]",FALSE,1,black,135,left,down,low,black_low_135_down,white_low_45_down,2,left,0.4911358,1,120,8,3.2.2021,119.9965921
515,"['low', 1, 2, False]",FALSE,1,black,45,right,up,low,black_low_45_up,white_low_135_up,2,left,0.3755364,0,120,8,3.2.2021,119.9965921
516,"['high', 8, 2, True]",TRUE,8,black,135,left,down,high,black_high_135_down,white_high_45_down,2,left,0.2098162,1,120,8,3.2.2021,119.9965921
517,"['high', 2, 2, True]",TRUE,2,black,135,left,up,high,black_high_135_up,white_high_45_up,2,right,0.1490449,0,120,8,3.2.2021,119.9965921
518,"['low', 1, 2, False]",FALSE,1,white,135,right,down,low,white_low_135_down,black_low_45_down,2,right,0.4173474,1,120,8,3.2.2021,119.9965921
519,"['low', 1, 2, False]",FALSE,1,white,45,left,up,low,white_low_45_up,black_low_135_up,2,right,0.5532665,0,120,8,3.2.2021,119.9965921
520,"['low', 1, 2, False]",FALSE,1,white,45,left,down,low,white_low_45_down,black_low_135_down,2,left,0.4160183,1,120,8,3.2.2021,119.9965921
521,"['high', 2, 2, True]",TRUE,2,black,45,right,up,high,black_high_45_up,white_high_135_up,2,right,0.1819337,1,120,8,3.2.2021,119.9965921
522,"['high', 1, 2, True]",TRUE,1,black,45,right,up,high,black_high_45_up,white_high_135_up,2,left,0.2679161,0,120,8,3.2.2021,119.9965921
523,"['low', 1, 2, True]",TRUE,1,white,135,right,up,low,white_low_135_up,black_low_45_up,2,right,0.7289724,1,120,8,3.2.2021,119.9965921
524,"['high', 4, 2, True]",TRUE,4,black,135,left,up,high,black_high_135_up,white_high_45_up,2,left,0.4084798,1,120,8,3.2.2021,119.9965921
525,"['high', 1, 2, True]",TRUE,1,black,45,right,down,high,black_high_45_down,white_high_135_down,2,right,0.0700724,1,120,8,3.2.2021,119.9965921
526,"['high', 32, 2, True]",TRUE,32,white,45,left,up,high,white_high_45_up,black_high_135_up,2,left,0.132496,1,120,8,3.2.2021,119.9965921
527,"['high', 1, 2, False]",FALSE,1,black,135,left,up,high,black_high_135_up,white_high_45_up,2,right,0.3712718,0,120,8,3.2.2021,119.9965921
528,"['high', 1, 2, False]",FALSE,1,white,135,right,up,high,white_high_135_up,black_high_45_up,2,right,0.4535293,1,120,8,3.2.2021,119.9965921
529,"['high', 16, 2, True]",TRUE,16,black,135,left,up,high,black_high_135_up,white_high_45_up,2,left,0.1793135,1,120,8,3.2.2021,119.9965921
530,"['high', 32, 2, True]",TRUE,32,black,45,right,up,high,black_high_45_up,white_high_135_up,2,right,1.2605107,1,120,8,3.2.2021,119.9965921
531,"['high', 8, 2, True]",TRUE,8,white,135,right,down,high,white_high_135_down,black_high_45_down,2,right,0.191389,1,120,8,3.2.2021,119.9965921
532,"['high', 3, 2, True]",TRUE,3,black,135,left,up,high,black_high_135_up,white_high_45_up,2,right,0.0407936,0,120,8,3.2.2021,119.9965921
533,"['high', 8, 2, True]",TRUE,8,black,45,right,down,high,black_high_45_down,white_high_135_down,2,right,0.1683747,1,120,8,3.2.2021,119.9965921
534,"['low', 3, 2, True]",TRUE,3,black,135,left,up,low,black_low_135_up,white_low_45_up,2,left,0.39062,1,120,8,3.2.2021,119.9965921
535,"['high', 4, 2, True]",TRUE,4,black,135,left,up,high,black_high_135_up,white_high_45_up,2,right,0.2400219,0,120,8,3.2.2021,119.9965921
536,"['high', 8, 2, True]",TRUE,8,white,135,right,up,high,white_high_135_up,black_high_45_up,2,right,0.2540704,1,120,8,3.2.2021,119.9965921
537,"['low', 1, 2, True]",TRUE,1,white,45,left,up,low,white_low_45_up,black_low_135_up,2,right,0.184488,0,120,8,3.2.2021,119.9965921
538,"['high', 1, 2, True]",TRUE,1,black,135,left,up,high,black_high_135_up,white_high_45_up,2,left,0.0703882,1,120,8,3.2.2021,119.9965921
539,"['high', 1, 2, True]",TRUE,1,black,45,right,down,high,black_high_45_down,white_high_135_down,2,right,0.118869,1,120,8,3.2.2021,119.9965921
540,"['high', 4, 2, True]",TRUE,4,black,45,right,up,high,black_high_45_up,white_high_135_up,2,right,0.1055299,1,120,8,3.2.2021,119.9965921
541,"['high', 8, 2, True]",TRUE,8,black,45,right,down,high,black_high_45_down,white_high_135_down,2,right,0.0511611,1,120,8,3.2.2021,119.9965921
542,"['high', 32, 2, True]",TRUE,32,black,45,right,down,high,black_high_45_down,white_high_135_down,2,right,0.1346288,1,120,8,3.2.2021,119.9965921
543,"['low', 1, 2, False]",FALSE,1,black,135,left,up,low,black_low_135_up,white_low_45_up,2,right,0.4824097,0,120,8,3.2.2021,119.9965921
544,"['high', 2, 2, True]",TRUE,2,white,45,left,up,high,white_high_45_up,black_high_135_up,2,right,0.2413653,0,120,8,3.2.2021,119.9965921
545,"['high', 32, 2, True]",TRUE,32,white,45,left,down,high,white_high_45_down,black_high_135_down,2,left,0.1656609,1,120,8,3.2.2021,119.9965921
546,"['low', 16, 2, True]",TRUE,16,black,135,left,up,low,black_low_135_up,white_low_45_up,2,left,0.2812683,1,120,8,3.2.2021,119.9965921
547,"['high', 3, 2, True]",TRUE,3,white,135,right,down,high,white_high_135_down,black_high_45_down,2,right,0.9793344,1,120,8,3.2.2021,119.9965921
548,"['high', 8, 2, True]",TRUE,8,white,45,left,down,high,white_high_45_down,black_high_135_down,2,left,0.2229539,1,120,8,3.2.2021,119.9965921
549,"['low', 16, 2, True]",TRUE,16,black,135,left,down,low,black_low_135_down,white_low_45_down,2,left,0.1601805,1,120,8,3.2.2021,119.9965921
550,"['high', 64, 2, True]",TRUE,64,white,135,right,up,high,white_high_135_up,black_high_45_up,2,right,0.0774864,1,120,8,3.2.2021,119.9965921
551,"['low', 2, 2, True]",TRUE,2,black,45,right,up,low,black_low_45_up,white_low_135_up,2,right,0.1198646,1,120,8,3.2.2021,119.9965921
552,"['high', 3, 2, True]",TRUE,3,white,135,right,down,high,white_high_135_down,black_high_45_down,2,left,0.2105317,0,120,8,3.2.2021,119.9965921
553,"['high', 3, 2, True]",TRUE,3,black,135,left,up,high,black_high_135_up,white_high_45_up,2,right,0.1787795,0,120,8,3.2.2021,119.9965921
554,"['high', 64, 2, True]",TRUE,64,white,135,right,down,high,white_high_135_down,black_high_45_down,2,right,0.2745048,1,120,8,3.2.2021,119.9965921
555,"['low', 1, 2, False]",FALSE,1,black,135,left,up,low,black_low_135_up,white_low_45_up,2,right,0.4572219,0,120,8,3.2.2021,119.9965921
556,"['low', 1, 2, True]",TRUE,1,white,135,right,down,low,white_low_135_down,black_low_45_down,2,right,0.949045,1,120,8,3.2.2021,119.9965921
557,"['low', 32, 2, True]",TRUE,32,white,45,left,up,low,white_low_45_up,black_low_135_up,2,left,0.4357309,1,120,8,3.2.2021,119.9965921
558,"['high', 3, 60, False]",FALSE,3,white,45,left,up,high,white_high_45_up,black_high_135_up,60,left,0.3489909,1,120,8,3.2.2021,119.9965921
559,"['high', 3, 2, True]",TRUE,3,white,45,left,up,high,white_high_45_up,black_high_135_up,2,left,0.1706801,1,120,8,3.2.2021,119.9965921
560,"['low', 1, 2, False]",FALSE,1,black,45,right,down,low,black_low_45_down,white_low_135_down,2,left,0.4571444,0,120,8,3.2.2021,119.9965921
561,"['high', 1, 2, True]",TRUE,1,black,45,right,up,high,black_high_45_up,white_high_135_up,2,right,0.0920624,1,120,8,3.2.2021,119.9965921
562,"['high', 4, 2, True]",TRUE,4,black,45,right,up,high,black_high_45_up,white_high_135_up,2,left,0.3224372,0,120,8,3.2.2021,119.9965921
563,"['high', 1, 2, False]",FALSE,1,white,45,left,up,high,white_high_45_up,black_high_135_up,2,left,0.4227595,1,120,8,3.2.2021,119.9965921
564,"['high', 8, 2, True]",TRUE,8,black,45,right,down,high,black_high_45_down,white_high_135_down,2,right,0.1597241,1,120,8,3.2.2021,119.9965921
565,"['high', 1, 2, False]",FALSE,1,white,135,right,up,high,white_high_135_up,black_high_45_up,2,right,0.4895249,1,120,8,3.2.2021,119.9965921
566,"['low', 1, 2, True]",TRUE,1,white,45,left,down,low,white_low_45_down,black_low_135_down,2,left,0.1219918,1,120,8,3.2.2021,119.9965921
567,"['low', 1, 2, True]",TRUE,1,black,135,left,down,low,black_low_135_down,white_low_45_down,2,right,0.0784512,0,120,8,3.2.2021,119.9965921
568,"['high', 16, 2, True]",TRUE,16,white,135,right,up,high,white_high_135_up,black_high_45_up,2,right,0.3540969,1,120,8,3.2.2021,119.9965921
569,"['low', 1, 2, False]",FALSE,1,black,45,right,up,low,black_low_45_up,white_low_135_up,2,right,0.4934424,1,120,8,3.2.2021,119.9965921
570,"['high', 32, 2, True]",TRUE,32,white,45,left,up,high,white_high_45_up,black_high_135_up,2,left,0.336032,1,120,8,3.2.2021,119.9965921
571,"['low', 3, 2, True]",TRUE,3,black,45,right,down,low,black_low_45_down,white_low_135_down,2,right,0.1274104,1,120,8,3.2.2021,119.9965921
572,"['high', 16, 2, True]",TRUE,16,black,135,left,up,high,black_high_135_up,white_high_45_up,2,left,0.1589833,1,120,8,3.2.2021,119.9965921
573,"['low', 1, 2, False]",FALSE,1,white,45,left,up,low,white_low_45_up,black_low_135_up,2,left,0.5201629,1,120,8,3.2.2021,119.9965921
574,"['low', 3, 2, True]",TRUE,3,white,135,right,up,low,white_low_135_up,black_low_45_up,2,right,0.1624728,1,120,8,3.2.2021,119.9965921
575,"['low', 64, 2, True]",TRUE,64,white,135,right,down,low,white_low_135_down,black_low_45_down,2,right,0.3513416,1,120,8,3.2.2021,119.9965921
576,"['low', 32, 2, True]",TRUE,32,black,45,right,down,low,black_low_45_down,white_low_135_down,2,right,0.7925764,1,120,8,3.2.2021,119.9965921
577,"['low', 1, 2, True]",TRUE,1,black,135,left,up,low,black_low_135_up,white_low_45_up,2,right,0.1774848,0,120,8,3.2.2021,119.9965921
578,"['low', 32, 2, True]",TRUE,32,white,135,right,down,low,white_low_135_down,black_low_45_down,2,right,0.2181545,1,120,8,3.2.2021,119.9965921
579,"['high', 1, 2, False]",FALSE,1,black,45,right,down,high,black_high_45_down,white_high_135_down,2,left,0.4001138,0,120,8,3.2.2021,119.9965921
580,"['high', 3, 2, True]",TRUE,3,black,45,right,up,high,black_high_45_up,white_high_135_up,2,right,0.2223202,1,120,8,3.2.2021,119.9965921
581,"['high', 1, 2, True]",TRUE,1,white,135,right,down,high,white_high_135_down,black_high_45_down,2,right,0.2355797,1,120,8,3.2.2021,119.9965921
582,"['low', 4, 2, True]",TRUE,4,white,135,right,down,low,white_low_135_down,black_low_45_down,2,right,0.1351628,1,120,8,3.2.2021,119.9965921
583,"['high', 1, 2, True]",TRUE,1,black,45,right,down,high,black_high_45_down,white_high_135_down,2,right,0.0929377,1,120,8,3.2.2021,119.9965921
584,"['low', 2, 2, True]",TRUE,2,black,135,left,down,low,black_low_135_down,white_low_45_down,2,left,0.1597158,1,120,8,3.2.2021,119.9965921
585,"['high', 32, 2, True]",TRUE,32,white,45,left,up,high,white_high_45_up,black_high_135_up,2,left,0.2439709,1,120,8,3.2.2021,119.9965921
586,"['high', 3, 2, True]",TRUE,3,white,135,right,down,high,white_high_135_down,black_high_45_down,2,right,0.1874008,1,120,8,3.2.2021,119.9965921
587,"['high', 32, 2, True]",TRUE,32,white,45,left,up,high,white_high_45_up,black_high_135_up,2,left,0.2923054,1,120,8,3.2.2021,119.9965921
588,"['low', 16, 2, True]",TRUE,16,white,45,left,down,low,white_low_45_down,black_low_135_down,2,left,0.4306389,1,120,8,3.2.2021,119.9965921
589,"['high', 3, 60, False]",FALSE,3,black,45,right,down,high,black_high_45_down,white_high_135_down,60,right,0.2076978,1,120,8,3.2.2021,119.9965921
590,"['low', 3, 2, True]",TRUE,3,black,45,right,up,low,black_low_45_up,white_low_135_up,2,right,0.164581,1,120,8,3.2.2021,119.9965921
591,"['high', 2, 2, True]",TRUE,2,white,45,left,up,high,white_high_45_up,black_high_135_up,2,right,0.2580046,0,120,8,3.2.2021,119.9965921
592,"['low', 1, 2, False]",FALSE,1,black,135,left,down,low,black_low_135_down,white_low_45_down,2,left,0.3629232,1,120,8,3.2.2021,119.9965921
593,"['high', 2, 2, True]",TRUE,2,white,135,right,up,high,white_high_135_up,black_high_45_up,2,right,0.1901694,1,120,8,3.2.2021,119.9965921
594,"['low', 3, 2, True]",TRUE,3,black,135,left,down,low,black_low_135_down,white_low_45_down,2,left,0.0777445,1,120,8,3.2.2021,119.9965921
595,"['low', 16, 2, True]",TRUE,16,black,45,right,down,low,black_low_45_down,white_low_135_down,2,right,0.2150664,1,120,8,3.2.2021,119.9965921
596,"['high', 4, 2, True]",TRUE,4,black,135,left,down,high,black_high_135_down,white_high_45_down,2,left,0.1429249,1,120,8,3.2.2021,119.9965921
597,"['low', 4, 2, True]",TRUE,4,white,45,left,up,low,white_low_45_up,black_low_135_up,2,right,0.1663403,0,120,8,3.2.2021,119.9965921
598,"['high', 1, 2, False]",FALSE,1,white,45,left,up,high,white_high_45_up,black_high_135_up,2,left,1.6328485,1,120,8,3.2.2021,119.9965921
599,"['low', 32, 2, True]",TRUE,32,black,45,right,down,low,black_low_45_down,white_low_135_down,2,right,0.1296808,1,120,8,3.2.2021,119.9965921
600,"['low', 16, 2, True]",TRUE,16,white,45,left,up,low,white_low_45_up,black_low_135_up,2,left,0.2427058,1,120,8,3.2.2021,119.9965921
601,"['high', 1, 2, False]",FALSE,1,black,45,right,down,high,black_high_45_down,white_high_135_down,2,left,0.9636018,0,120,8,3.2.2021,119.9965921
602,"['high', 3, 2, True]",TRUE,3,white,135,right,up,high,white_high_135_up,black_high_45_up,2,right,0.077955,1,120,8,3.2.2021,119.9965921
603,"['high', 64, 2, True]",TRUE,64,white,135,right,up,high,white_high_135_up,black_high_45_up,2,right,0.2246527,1,120,8,3.2.2021,119.9965921
604,"['high', 8, 2, True]",TRUE,8,black,45,right,up,high,black_high_45_up,white_high_135_up,2,right,0.2077733,1,120,8,3.2.2021,119.9965921
605,"['low', 16, 2, True]",TRUE,16,white,135,right,up,low,white_low_135_up,black_low_45_up,2,right,0.1418994,1,120,8,3.2.2021,119.9965921
606,"['low', 2, 2, True]",TRUE,2,white,135,right,down,low,white_low_135_down,black_low_45_down,2,right,0.132922,1,120,8,3.2.2021,119.9965921
607,"['low', 16, 2, True]",TRUE,16,black,135,left,down,low,black_low_135_down,white_low_45_down,2,left,0.1683403,1,120,8,3.2.2021,119.9965921
608,"['high', 2, 2, True]",TRUE,2,black,135,left,down,high,black_high_135_down,white_high_45_down,2,right,0.2579625,0,120,8,3.2.2021,119.9965921
609,"['high', 1, 2, True]",TRUE,1,black,135,left,down,high,black_high_135_down,white_high_45_down,2,left,0.0901118,1,120,8,3.2.2021,119.9965921
610,"['low', 8, 2, True]",TRUE,8,black,135,left,up,low,black_low_135_up,white_low_45_up,2,left,0.2589828,1,120,8,3.2.2021,119.9965921
611,"['high', 32, 2, True]",TRUE,32,black,45,right,down,high,black_high_45_down,white_high_135_down,2,right,0.3946024,1,120,8,3.2.2021,119.9965921
612,"['high', 1, 2, True]",TRUE,1,black,45,right,down,high,black_high_45_down,white_high_135_down,2,right,0.0492244,1,120,8,3.2.2021,119.9965921
613,"['low', 4, 2, True]",TRUE,4,black,45,right,down,low,black_low_45_down,white_low_135_down,2,left,0.4489416,0,120,8,3.2.2021,119.9965921
614,"['low', 2, 2, True]",TRUE,2,black,135,left,up,low,black_low_135_up,white_low_45_up,2,left,0.1535253,1,120,8,3.2.2021,119.9965921
615,"['high', 8, 2, True]",TRUE,8,white,135,right,up,high,white_high_135_up,black_high_45_up,2,right,0.6843195,1,120,8,3.2.2021,119.9965921
616,"['low', 4, 2, True]",TRUE,4,black,135,left,up,low,black_low_135_up,white_low_45_up,2,left,0.2430138,1,120,8,3.2.2021,119.9965921
617,"['low', 64, 2, True]",TRUE,64,white,135,right,down,low,white_low_135_down,black_low_45_down,2,right,0.2147227,1,120,8,3.2.2021,119.9965921
618,"['high', 4, 2, True]",TRUE,4,white,135,right,down,high,white_high_135_down,black_high_45_down,2,right,0.2425561,1,120,8,3.2.2021,119.9965921
619,"['low', 3, 2, True]",TRUE,3,black,135,left,down,low,black_low_135_down,white_low_45_down,2,left,0.2494087,1,120,8,3.2.2021,119.9965921
620,"['low', 4, 2, True]",TRUE,4,white,45,left,down,low,white_low_45_down,black_low_135_down,2,left,0.233294,1,120,8,3.2.2021,119.9965921
621,"['high', 1, 2, False]",FALSE,1,white,135,right,down,high,white_high_135_down,black_high_45_down,2,right,0.5394068,1,120,8,3.2.2021,119.9965921
622,"['low', 4, 2, True]",TRUE,4,white,45,left,up,low,white_low_45_up,black_low_135_up,2,left,0.1785326,1,120,8,3.2.2021,119.9965921
623,"['low', 32, 2, True]",TRUE,32,white,135,right,up,low,white_low_135_up,black_low_45_up,2,right,0.1672638,1,120,8,3.2.2021,119.9965921
624,"['low', 8, 2, True]",TRUE,8,white,45,left,down,low,white_low_45_down,black_low_135_down,2,left,0.1615614,1,120,8,3.2.2021,119.9965921
625,"['high', 4, 2, True]",TRUE,4,white,45,left,up,high,white_high_45_up,black_high_135_up,2,left,0.1536176,1,120,8,3.2.2021,119.9965921
626,"['high', 16, 2, True]",TRUE,16,white,45,left,down,high,white_high_45_down,black_high_135_down,2,left,0.1150529,1,120,8,3.2.2021,119.9965921
627,"['high', 8, 2, True]",TRUE,8,white,135,right,up,high,white_high_135_up,black_high_45_up,2,right,0.4073309,1,120,8,3.2.2021,119.9965921
628,"['low', 4, 2, True]",TRUE,4,white,135,right,up,low,white_low_135_up,black_low_45_up,2,right,0.1889421,1,120,8,3.2.2021,119.9965921
629,"['high', 32, 2, True]",TRUE,32,white,45,left,up,high,white_high_45_up,black_high_135_up,2,left,0.1059431,1,120,8,3.2.2021,119.9965921
630,"['low', 4, 2, True]",TRUE,4,white,45,left,down,low,white_low_45_down,black_low_135_down,2,left,0.0764643,1,120,8,3.2.2021,119.9965921
631,"['low', 1, 2, False]",FALSE,1,black,45,right,down,low,black_low_45_down,white_low_135_down,2,right,0.4631757,1,120,8,3.2.2021,119.9965921
632,"['high', 1, 2, True]",TRUE,1,black,45,right,up,high,black_high_45_up,white_high_135_up,2,left,0.0629122,0,120,8,3.2.2021,119.9965921
633,"['low', 1, 2, True]",TRUE,1,white,45,left,up,low,white_low_45_up,black_low_135_up,2,left,0.0399805,1,120,8,3.2.2021,119.9965921
634,"['low', 64, 2, True]",TRUE,64,white,45,left,up,low,white_low_45_up,black_low_135_up,2,left,0.258969,1,120,8,3.2.2021,119.9965921
635,"['high', 3, 60, False]",FALSE,3,white,45,left,up,high,white_high_45_up,black_high_135_up,60,left,0.3192321,1,120,8,3.2.2021,119.9965921
636,"['high', 3, 2, True]",TRUE,3,black,135,left,up,high,black_high_135_up,white_high_45_up,2,right,0.077705,0,120,8,3.2.2021,119.9965921
637,"['high', 1, 2, True]",TRUE,1,black,135,left,up,high,black_high_135_up,white_high_45_up,2,left,0.082695,1,120,8,3.2.2021,119.9965921
638,"['low', 32, 2, True]",TRUE,32,white,45,left,up,low,white_low_45_up,black_low_135_up,2,left,0.1184939,1,120,8,3.2.2021,119.9965921
639,"['low', 16, 2, True]",TRUE,16,white,45,left,up,low,white_low_45_up,black_low_135_up,2,left,0.9737424,1,120,8,3.2.2021,119.9965921
640,"['low', 4, 2, True]",TRUE,4,black,135,left,down,low,black_low_135_down,white_low_45_down,2,right,0.2139606,0,120,8,3.2.2021,119.9965921
641,"['high', 64, 2, True]",TRUE,64,black,135,left,up,high,black_high_135_up,white_high_45_up,2,left,0.5711827,1,120,8,3.2.2021,119.9965921
642,"['high', 1, 2, True]",TRUE,1,white,45,left,down,high,white_high_45_down,black_high_135_down,2,right,0.1064014,0,120,8,3.2.2021,119.9965921
643,"['high', 4, 2, True]",TRUE,4,white,45,left,down,high,white_high_45_down,black_high_135_down,2,left,0.2129524,1,120,8,3.2.2021,119.9965921
644,"['high', 64, 2, True]",TRUE,64,white,45,left,down,high,white_high_45_down,black_high_135_down,2,left,0.1822731,1,120,8,3.2.2021,119.9965921
645,"['low', 64, 2, True]",TRUE,64,black,45,right,up,low,black_low_45_up,white_low_135_up,2,right,0.1021029,1,120,8,3.2.2021,119.9965921
646,"['high', 16, 2, True]",TRUE,16,white,45,left,down,high,white_high_45_down,black_high_135_down,2,left,0.0844005,1,120,8,3.2.2021,119.9965921
647,"['high', 2, 2, True]",TRUE,2,black,135,left,down,high,black_high_135_down,white_high_45_down,2,left,0.2305092,1,120,8,3.2.2021,119.9965921
648,"['high', 1, 2, False]",FALSE,1,white,135,right,up,high,white_high_135_up,black_high_45_up,2,right,0.4617513,1,120,8,3.2.2021,119.9965921
649,"['low', 2, 2, True]",TRUE,2,white,135,right,down,low,white_low_135_down,black_low_45_down,2,right,0.0898328,1,120,8,3.2.2021,119.9965921
650,"['low', 1, 2, True]",TRUE,1,black,45,right,up,low,black_low_45_up,white_low_135_up,2,left,0.1304548,0,120,8,3.2.2021,119.9965921
651,"['high', 1, 2, False]",FALSE,1,white,135,right,up,high,white_high_135_up,black_high_45_up,2,right,0.3461196,1,120,8,3.2.2021,119.9965921
652,"['low', 2, 2, True]",TRUE,2,black,135,left,up,low,black_low_135_up,white_low_45_up,2,left,0.0183733,1,120,8,3.2.2021,119.9965921
653,"['high', 1, 2, True]",TRUE,1,white,135,right,up,high,white_high_135_up,black_high_45_up,2,left,0.5104166,0,120,8,3.2.2021,119.9965921
654,"['low', 16, 2, True]",TRUE,16,white,45,left,down,low,white_low_45_down,black_low_135_down,2,left,0.3844599,1,120,8,3.2.2021,119.9965921
655,"['high', 3, 2, True]",TRUE,3,black,135,left,down,high,black_high_135_down,white_high_45_down,2,right,0.1016967,0,120,8,3.2.2021,119.9965921
656,"['low', 1, 2, False]",FALSE,1,black,135,left,up,low,black_low_135_up,white_low_45_up,2,right,0.3133133,0,120,8,3.2.2021,119.9965921
657,"['low', 3, 2, True]",TRUE,3,white,135,right,down,low,white_low_135_down,black_low_45_down,2,right,0.2147746,1,120,8,3.2.2021,119.9965921
658,"['low', 2, 2, True]",TRUE,2,white,45,left,down,low,white_low_45_down,black_low_135_down,2,left,0.2583965,1,120,8,3.2.2021,119.9965921
659,"['low', 8, 2, True]",TRUE,8,black,135,left,up,low,black_low_135_up,white_low_45_up,2,left,0.2590906,1,120,8,3.2.2021,119.9965921
660,"['high', 3, 60, False]",FALSE,3,white,45,left,up,high,white_high_45_up,black_high_135_up,60,left,0.29359,1,120,8,3.2.2021,119.9965921
661,"['high', 1, 2, True]",TRUE,1,black,135,left,down,high,black_high_135_down,white_high_45_down,2,left,1.3861716,1,120,8,3.2.2021,119.9965921
662,"['low', 8, 2, True]",TRUE,8,white,135,right,up,low,white_low_135_up,black_low_45_up,2,right,0.3196559,1,120,8,3.2.2021,119.9965921
663,"['low', 32, 2, True]",TRUE,32,white,45,left,down,low,white_low_45_down,black_low_135_down,2,left,0.1422748,1,120,8,3.2.2021,119.9965921
664,"['high', 64, 2, True]",TRUE,64,white,135,right,up,high,white_high_135_up,black_high_45_up,2,left,0.8404003,0,120,8,3.2.2021,119.9965921
665,"['high', 64, 2, True]",TRUE,64,black,45,right,down,high,black_high_45_down,white_high_135_down,2,right,0.1352639,1,120,8,3.2.2021,119.9965921
666,"['low', 64, 2, True]",TRUE,64,black,135,left,up,low,black_low_135_up,white_low_45_up,2,left,0.5105568,1,120,8,3.2.2021,119.9965921
667,"['high', 32, 2, True]",TRUE,32,white,45,left,down,high,white_high_45_down,black_high_135_down,2,left,0.2582093,1,120,8,3.2.2021,119.9965921
668,"['high', 1, 2, True]",TRUE,1,black,45,right,down,high,black_high_45_down,white_high_135_down,2,left,0.1859125,0,120,8,3.2.2021,119.9965921
669,"['high', 8, 2, True]",TRUE,8,black,45,right,up,high,black_high_45_up,white_high_135_up,2,right,0.1901349,1,120,8,3.2.2021,119.9965921
670,"['high', 32, 2, True]",TRUE,32,white,135,right,down,high,white_high_135_down,black_high_45_down,2,right,0.0665085,1,120,8,3.2.2021,119.9965921
671,"['low', 1, 2, False]",FALSE,1,black,45,right,up,low,black_low_45_up,white_low_135_up,2,right,0.3659185,1,120,8,3.2.2021,119.9965921
672,"['low', 8, 2, True]",TRUE,8,white,135,right,up,low,white_low_135_up,black_low_45_up,2,right,0.0722259,1,120,8,3.2.2021,119.9965921
673,"['low', 64, 2, True]",TRUE,64,black,135,left,down,low,black_low_135_down,white_low_45_down,2,left,0.271694,1,120,8,3.2.2021,119.9965921
674,"['high', 8, 2, True]",TRUE,8,white,135,right,up,high,white_high_135_up,black_high_45_up,2,right,0.1479493,1,120,8,3.2.2021,119.9965921
675,"['high', 3, 2, True]",TRUE,3,black,135,left,down,high,black_high_135_down,white_high_45_down,2,right,0.0592619,0,120,8,3.2.2021,119.9965921
676,"['low', 2, 2, True]",TRUE,2,black,45,right,up,low,black_low_45_up,white_low_135_up,2,left,0.5992986,0,120,8,3.2.2021,119.9965921
677,"['low', 3, 2, True]",TRUE,3,black,45,right,down,low,black_low_45_down,white_low_135_down,2,right,0.3254725,1,120,8,3.2.2021,119.9965921
678,"['high', 3, 60, False]",FALSE,3,white,45,left,up,high,white_high_45_up,black_high_135_up,60,left,0.1941122,1,120,8,3.2.2021,119.9965921
679,"['low', 64, 2, True]",TRUE,64,black,135,left,down,low,black_low_135_down,white_low_45_down,2,left,0.7151545,1,120,8,3.2.2021,119.9965921
680,"['low', 1, 2, False]",FALSE,1,black,45,right,up,low,black_low_45_up,white_low_135_up,2,right,0.7240102,1,120,8,3.2.2021,119.9965921
681,"['high', 64, 2, True]",TRUE,64,white,45,left,down,high,white_high_45_down,black_high_135_down,2,left,0.1434261,1,120,8,3.2.2021,119.9965921
682,"['low', 2, 2, True]",TRUE,2,white,45,left,down,low,white_low_45_down,black_low_135_down,2,left,0.198911,1,120,8,3.2.2021,119.9965921
683,"['low', 1, 2, True]",TRUE,1,black,135,left,down,low,black_low_135_down,white_low_45_down,2,right,0.1638263,0,120,8,3.2.2021,119.9965921
684,"['low', 16, 2, True]",TRUE,16,white,45,left,up,low,white_low_45_up,black_low_135_up,2,left,0.1734236,1,120,8,3.2.2021,119.9965921
685,"['high', 1, 2, False]",FALSE,1,black,45,right,down,high,black_high_45_down,white_high_135_down,2,right,0.3693497,1,120,8,3.2.2021,119.9965921
686,"['low', 8, 2, True]",TRUE,8,white,45,left,up,low,white_low_45_up,black_low_135_up,2,left,0.1515006,1,120,8,3.2.2021,119.9965921
687,"['high', 4, 2, True]",TRUE,4,black,135,left,down,high,black_high_135_down,white_high_45_down,2,left,0.116535,1,120,8,3.2.2021,119.9965921
688,"['high', 64, 2, True]",TRUE,64,black,45,right,up,high,black_high_45_up,white_high_135_up,2,right,0.3909736,1,120,8,3.2.2021,119.9965921
689,"['low', 2, 2, True]",TRUE,2,black,45,right,up,low,black_low_45_up,white_low_135_up,2,right,0.1006949,1,120,8,3.2.2021,119.9965921
690,"['high', 4, 2, True]",TRUE,4,black,45,right,up,high,black_high_45_up,white_high_135_up,2,left,0.2576597,0,120,8,3.2.2021,119.9965921
691,"['high', 8, 2, True]",TRUE,8,white,45,left,up,high,white_high_45_up,black_high_135_up,2,left,0.2088336,1,120,8,3.2.2021,119.9965921
692,"['low', 3, 2, True]",TRUE,3,white,45,left,down,low,white_low_45_down,black_low_135_down,2,left,0.4034236,1,120,8,3.2.2021,119.9965921
693,"['high', 3, 2, True]",TRUE,3,white,45,left,up,high,white_high_45_up,black_high_135_up,2,left,0.1206548,1,120,8,3.2.2021,119.9965921
694,"['high', 64, 2, True]",TRUE,64,white,45,left,down,high,white_high_45_down,black_high_135_down,2,left,0.2039726,1,120,8,3.2.2021,119.9965921
695,"['high', 1, 2, True]",TRUE,1,white,45,left,up,high,white_high_45_up,black_high_135_up,2,right,0.0960166,0,120,8,3.2.2021,119.9965921
696,"['low', 2, 2, True]",TRUE,2,black,135,left,up,low,black_low_135_up,white_low_45_up,2,left,0.331067,1,120,8,3.2.2021,119.9965921
697,"['high', 1, 2, True]",TRUE,1,white,135,right,up,high,white_high_135_up,black_high_45_up,2,right,0.1689537,1,120,8,3.2.2021,119.9965921
698,"['high', 32, 2, True]",TRUE,32,white,135,right,down,high,white_high_135_down,black_high_45_down,2,right,0.1911188,1,120,8,3.2.2021,119.9965921
699,"['high', 2, 2, True]",TRUE,2,black,135,left,up,high,black_high_135_up,white_high_45_up,2,left,0.3183571,1,120,8,3.2.2021,119.9965921
700,"['low', 3, 2, True]",TRUE,3,black,45,right,up,low,black_low_45_up,white_low_135_up,2,right,0.4152528,1,120,8,3.2.2021,119.9965921
701,"['low', 3, 2, True]",TRUE,3,black,135,left,up,low,black_low_135_up,white_low_45_up,2,left,0.2787819,1,120,8,3.2.2021,119.9965921
702,"['low', 3, 2, True]",TRUE,3,black,135,left,down,low,black_low_135_down,white_low_45_down,2,left,0.0389948,1,120,8,3.2.2021,119.9965921
703,"['low', 8, 2, True]",TRUE,8,white,45,left,up,low,white_low_45_up,black_low_135_up,2,left,2.3207692,1,120,8,3.2.2021,119.9965921
704,"['high', 2, 2, True]",TRUE,2,white,45,left,up,high,white_high_45_up,black_high_135_up,2,right,0.1180231,0,120,8,3.2.2021,119.9965921
705,"['high', 3, 60, False]",FALSE,3,black,135,left,up,high,black_high_135_up,white_high_45_up,60,left,0.2798699,1,120,8,3.2.2021,119.9965921
706,"['high', 2, 2, True]",TRUE,2,white,135,right,up,high,white_high_135_up,black_high_45_up,2,right,0.0800546,1,120,8,3.2.2021,119.9965921
