trial_number,trial_type,mask_present,cycle_number,first_color,first_orientation,correct_response,visual_field,spatial_frequency,first_stim,second_stim,stimulus_frame_duration,answer,rt,accuracy,frame_rate,participant,psychopyVersion,frame_rate_detected
0,"['high', 32, 2, True]",TRUE,32,black,135,left,down,high,black_high_135_down,white_high_45_down,2,left,0.4250199,1,120,2,3.2.2021,119.9934244
1,"['low', 1, 2, True]",TRUE,1,white,45,left,up,low,white_low_45_up,black_low_135_up,2,right,0.5774635,0,120,2,3.2.2021,119.9934244
2,"['high', 4, 2, True]",TRUE,4,white,45,left,down,high,white_high_45_down,black_high_135_down,2,right,0.4325534,0,120,2,3.2.2021,119.9934244
3,"['low', 2, 2, True]",TRUE,2,black,45,right,up,low,black_low_45_up,white_low_135_up,2,left,0.9712041,0,120,2,3.2.2021,119.9934244
4,"['high', 64, 2, True]",TRUE,64,white,45,left,down,high,white_high_45_down,black_high_135_down,2,left,0.3554651,1,120,2,3.2.2021,119.9934244
5,"['low', 64, 2, True]",TRUE,64,white,45,left,up,low,white_low_45_up,black_low_135_up,2,left,0.3480145,1,120,2,3.2.2021,119.9934244
6,"['low', 64, 2, True]",TRUE,64,black,45,right,up,low,black_low_45_up,white_low_135_up,2,right,0.4940663,1,120,2,3.2.2021,119.9934244
7,"['high', 2, 2, True]",TRUE,2,white,45,left,up,high,white_high_45_up,black_high_135_up,2,right,1.2532172,0,120,2,3.2.2021,119.9934244
8,"['low', 1, 2, True]",TRUE,1,white,45,left,down,low,white_low_45_down,black_low_135_down,2,right,2.9601804,0,120,2,3.2.2021,119.9934244
9,"['high', 2, 2, True]",TRUE,2,white,45,left,down,high,white_high_45_down,black_high_135_down,2,left,0.5162146,1,120,2,3.2.2021,119.9934244
10,"['low', 8, 2, True]",TRUE,8,black,135,left,down,low,black_low_135_down,white_low_45_down,2,left,0.3417392,1,120,2,3.2.2021,119.9934244
11,"['high', 16, 2, True]",TRUE,16,white,45,left,up,high,white_high_45_up,black_high_135_up,2,left,2.7123928,1,120,2,3.2.2021,119.9934244
12,"['low', 3, 2, True]",TRUE,3,black,135,left,up,low,black_low_135_up,white_low_45_up,2,left,0.4882686,1,120,2,3.2.2021,119.9934244
13,"['low', 32, 2, True]",TRUE,32,black,45,right,down,low,black_low_45_down,white_low_135_down,2,right,0.185571,1,120,2,3.2.2021,119.9934244
14,"['low', 16, 2, True]",TRUE,16,white,45,left,up,low,white_low_45_up,black_low_135_up,2,left,0.2148412,1,120,2,3.2.2021,119.9934244
15,"['low', 3, 2, True]",TRUE,3,white,45,left,up,low,white_low_45_up,black_low_135_up,2,left,0.3474877,1,120,2,3.2.2021,119.9934244
16,"['low', 64, 2, True]",TRUE,64,white,45,left,down,low,white_low_45_down,black_low_135_down,2,left,0.210756,1,120,2,3.2.2021,119.9934244
17,"['high', 16, 2, True]",TRUE,16,white,135,right,up,high,white_high_135_up,black_high_45_up,2,right,0.4083531,1,120,2,3.2.2021,119.9934244
18,"['high', 8, 2, True]",TRUE,8,white,45,left,down,high,white_high_45_down,black_high_135_down,2,left,0.4221678,1,120,2,3.2.2021,119.9934244
19,"['high', 1, 2, False]",FALSE,1,white,135,right,up,high,white_high_135_up,black_high_45_up,2,right,0.6803135,1,120,2,3.2.2021,119.9934244
20,"['low', 16, 2, True]",TRUE,16,black,45,right,up,low,black_low_45_up,white_low_135_up,2,right,0.2725403,1,120,2,3.2.2021,119.9934244
21,"['high', 32, 2, True]",TRUE,32,black,135,left,down,high,black_high_135_down,white_high_45_down,2,left,0.2019493,1,120,2,3.2.2021,119.9934244
22,"['high', 1, 2, True]",TRUE,1,black,135,left,down,high,black_high_135_down,white_high_45_down,2,left,0.4895617,1,120,2,3.2.2021,119.9934244
23,"['high', 3, 2, True]",TRUE,3,white,135,right,down,high,white_high_135_down,black_high_45_down,2,right,0.432101,1,120,2,3.2.2021,119.9934244
24,"['low', 4, 2, True]",TRUE,4,white,135,right,down,low,white_low_135_down,black_low_45_down,2,right,0.2698156,1,120,2,3.2.2021,119.9934244
25,"['high', 3, 2, True]",TRUE,3,black,45,right,down,high,black_high_45_down,white_high_135_down,2,right,0.4322464,1,120,2,3.2.2021,119.9934244
26,"['high', 1, 2, True]",TRUE,1,white,135,right,up,high,white_high_135_up,black_high_45_up,2,right,1.1344057,1,120,2,3.2.2021,119.9934244
27,"['high', 3, 2, True]",TRUE,3,black,135,left,up,high,black_high_135_up,white_high_45_up,2,right,1.0017505,0,120,2,3.2.2021,119.9934244
28,"['high', 3, 2, True]",TRUE,3,black,45,right,down,high,black_high_45_down,white_high_135_down,2,left,0.615717,0,120,2,3.2.2021,119.9934244
29,"['high', 2, 2, True]",TRUE,2,white,135,right,up,high,white_high_135_up,black_high_45_up,2,right,0.8903081,1,120,2,3.2.2021,119.9934244
30,"['low', 16, 2, True]",TRUE,16,white,135,right,down,low,white_low_135_down,black_low_45_down,2,right,0.2652384,1,120,2,3.2.2021,119.9934244
31,"['low', 1, 2, True]",TRUE,1,black,135,left,up,low,black_low_135_up,white_low_45_up,2,right,1.0691134,0,120,2,3.2.2021,119.9934244
32,"['high', 1, 2, False]",FALSE,1,white,45,left,down,high,white_high_45_down,black_high_135_down,2,left,0.8526941,1,120,2,3.2.2021,119.9934244
33,"['low', 64, 2, True]",TRUE,64,white,45,left,up,low,white_low_45_up,black_low_135_up,2,left,0.2848982,1,120,2,3.2.2021,119.9934244
34,"['high', 1, 2, True]",TRUE,1,black,135,left,up,high,black_high_135_up,white_high_45_up,2,right,2.8563138,0,120,2,3.2.2021,119.9934244
35,"['low', 1, 2, True]",TRUE,1,white,135,right,down,low,white_low_135_down,black_low_45_down,2,right,0.6341385,1,120,2,3.2.2021,119.9934244
36,"['low', 1, 2, True]",TRUE,1,white,45,left,down,low,white_low_45_down,black_low_135_down,2,left,0.5025126,1,120,2,3.2.2021,119.9934244
37,"['high', 1, 2, False]",FALSE,1,white,135,right,down,high,white_high_135_down,black_high_45_down,2,right,0.7549819,1,120,2,3.2.2021,119.9934244
38,"['high', 1, 2, False]",FALSE,1,white,45,left,up,high,white_high_45_up,black_high_135_up,2,left,0.7062027,1,120,2,3.2.2021,119.9934244
39,"['high', 8, 2, True]",TRUE,8,white,45,left,down,high,white_high_45_down,black_high_135_down,2,left,0.4527773,1,120,2,3.2.2021,119.9934244
40,"['high', 4, 2, True]",TRUE,4,white,135,right,down,high,white_high_135_down,black_high_45_down,2,right,0.2907927,1,120,2,3.2.2021,119.9934244
41,"['low', 8, 2, True]",TRUE,8,black,135,left,up,low,black_low_135_up,white_low_45_up,2,left,0.3609436,1,120,2,3.2.2021,119.9934244
42,"['low', 1, 2, False]",FALSE,1,black,135,left,down,low,black_low_135_down,white_low_45_down,2,right,0.5291421,0,120,2,3.2.2021,119.9934244
43,"['high', 1, 2, True]",TRUE,1,black,135,left,down,high,black_high_135_down,white_high_45_down,2,right,0.3499958,0,120,2,3.2.2021,119.9934244
44,"['low', 4, 2, True]",TRUE,4,black,135,left,down,low,black_low_135_down,white_low_45_down,2,right,0.2519427,0,120,2,3.2.2021,119.9934244
45,"['low', 2, 2, True]",TRUE,2,black,135,left,down,low,black_low_135_down,white_low_45_down,2,right,0.2965611,0,120,2,3.2.2021,119.9934244
46,"['low', 4, 2, True]",TRUE,4,black,135,left,down,low,black_low_135_down,white_low_45_down,2,right,0.237344,0,120,2,3.2.2021,119.9934244
47,"['low', 3, 2, True]",TRUE,3,black,45,right,down,low,black_low_45_down,white_low_135_down,2,right,0.2052376,1,120,2,3.2.2021,119.9934244
48,"['low', 32, 2, True]",TRUE,32,white,135,right,down,low,white_low_135_down,black_low_45_down,2,right,0.1510988,1,120,2,3.2.2021,119.9934244
49,"['low', 16, 2, True]",TRUE,16,white,45,left,down,low,white_low_45_down,black_low_135_down,2,left,0.3783407,1,120,2,3.2.2021,119.9934244
50,"['high', 64, 2, True]",TRUE,64,white,45,left,down,high,white_high_45_down,black_high_135_down,2,left,0.1796505,1,120,2,3.2.2021,119.9934244
51,"['high', 8, 2, True]",TRUE,8,white,135,right,up,high,white_high_135_up,black_high_45_up,2,right,0.3221118,1,120,2,3.2.2021,119.9934244
52,"['high', 1, 2, False]",FALSE,1,white,135,right,down,high,white_high_135_down,black_high_45_down,2,right,0.4445133,1,120,2,3.2.2021,119.9934244
53,"['high', 1, 2, False]",FALSE,1,white,135,right,up,high,white_high_135_up,black_high_45_up,2,left,1.6420096,0,120,2,3.2.2021,119.9934244
54,"['high', 2, 2, True]",TRUE,2,black,135,left,down,high,black_high_135_down,white_high_45_down,2,right,0.2947647,0,120,2,3.2.2021,119.9934244
55,"['high', 32, 2, True]",TRUE,32,white,45,left,up,high,white_high_45_up,black_high_135_up,2,left,0.1855148,1,120,2,3.2.2021,119.9934244
56,"['high', 1, 2, True]",TRUE,1,black,45,right,down,high,black_high_45_down,white_high_135_down,2,right,0.7893296,1,120,2,3.2.2021,119.9934244
57,"['high', 8, 2, True]",TRUE,8,white,45,left,up,high,white_high_45_up,black_high_135_up,2,right,0.5278047,0,120,2,3.2.2021,119.9934244
58,"['low', 3, 2, True]",TRUE,3,black,135,left,down,low,black_low_135_down,white_low_45_down,2,right,0.2622616,0,120,2,3.2.2021,119.9934244
59,"['low', 8, 2, True]",TRUE,8,black,45,right,down,low,black_low_45_down,white_low_135_down,2,right,0.2571031,1,120,2,3.2.2021,119.9934244
60,"['high', 2, 2, True]",TRUE,2,white,135,right,up,high,white_high_135_up,black_high_45_up,2,right,0.4826211,1,120,2,3.2.2021,119.9934244
61,"['low', 16, 2, True]",TRUE,16,black,45,right,up,low,black_low_45_up,white_low_135_up,2,right,0.2236929,1,120,2,3.2.2021,119.9934244
62,"['high', 4, 2, True]",TRUE,4,black,45,right,down,high,black_high_45_down,white_high_135_down,2,right,0.3151418,1,120,2,3.2.2021,119.9934244
63,"['low', 16, 2, True]",TRUE,16,white,45,left,down,low,white_low_45_down,black_low_135_down,2,left,0.2246771,1,120,2,3.2.2021,119.9934244
64,"['high', 3, 2, True]",TRUE,3,white,135,right,up,high,white_high_135_up,black_high_45_up,2,left,0.9161629,0,120,2,3.2.2021,119.9934244
65,"['low', 3, 2, True]",TRUE,3,white,135,right,down,low,white_low_135_down,black_low_45_down,2,right,0.3996328,1,120,2,3.2.2021,119.9934244
66,"['low', 4, 2, True]",TRUE,4,black,45,right,down,low,black_low_45_down,white_low_135_down,2,right,0.190161,1,120,2,3.2.2021,119.9934244
67,"['low', 3, 2, True]",TRUE,3,black,135,left,down,low,black_low_135_down,white_low_45_down,2,right,0.1642941,0,120,2,3.2.2021,119.9934244
68,"['high', 3, 2, True]",TRUE,3,white,135,right,up,high,white_high_135_up,black_high_45_up,2,right,1.6968499,1,120,2,3.2.2021,119.9934244
69,"['high', 8, 2, True]",TRUE,8,white,135,right,up,high,white_high_135_up,black_high_45_up,2,right,0.2269043,1,120,2,3.2.2021,119.9934244
70,"['high', 3, 60, False]",FALSE,3,white,135,right,down,high,white_high_135_down,black_high_45_down,60,right,0.2625866,1,120,2,3.2.2021,119.9934244
71,"['low', 16, 2, True]",TRUE,16,black,135,left,up,low,black_low_135_up,white_low_45_up,2,left,0.3851151,1,120,2,3.2.2021,119.9934244
72,"['low', 4, 2, True]",TRUE,4,black,45,right,up,low,black_low_45_up,white_low_135_up,2,left,0.9267118,0,120,2,3.2.2021,119.9934244
73,"['low', 3, 2, True]",TRUE,3,white,45,left,up,low,white_low_45_up,black_low_135_up,2,left,0.5280152,1,120,2,3.2.2021,119.9934244
74,"['low', 16, 2, True]",TRUE,16,black,135,left,up,low,black_low_135_up,white_low_45_up,2,left,0.2577616,1,120,2,3.2.2021,119.9934244
75,"['high', 32, 2, True]",TRUE,32,black,135,left,down,high,black_high_135_down,white_high_45_down,2,left,0.2625113,1,120,2,3.2.2021,119.9934244
76,"['low', 4, 2, True]",TRUE,4,white,135,right,down,low,white_low_135_down,black_low_45_down,2,right,0.2658509,1,120,2,3.2.2021,119.9934244
77,"['high', 16, 2, True]",TRUE,16,white,135,right,up,high,white_high_135_up,black_high_45_up,2,left,2.9099263,0,120,2,3.2.2021,119.9934244
78,"['low', 1, 2, False]",FALSE,1,white,135,right,down,low,white_low_135_down,black_low_45_down,2,right,0.5448288,1,120,2,3.2.2021,119.9934244
79,"['low', 32, 2, True]",TRUE,32,black,135,left,down,low,black_low_135_down,white_low_45_down,2,left,0.257276,1,120,2,3.2.2021,119.9934244
80,"['low', 1, 2, False]",FALSE,1,black,135,left,up,low,black_low_135_up,white_low_45_up,2,right,1.2709474,0,120,2,3.2.2021,119.9934244
81,"['high', 32, 2, True]",TRUE,32,white,45,left,up,high,white_high_45_up,black_high_135_up,2,left,0.2430222,1,120,2,3.2.2021,119.9934244
82,"['low', 32, 2, True]",TRUE,32,white,135,right,down,low,white_low_135_down,black_low_45_down,2,right,0.2645615,1,120,2,3.2.2021,119.9934244
83,"['low', 1, 2, True]",TRUE,1,white,45,left,up,low,white_low_45_up,black_low_135_up,2,right,3.0012455,0,120,2,3.2.2021,119.9934244
84,"['low', 64, 2, True]",TRUE,64,black,45,right,up,low,black_low_45_up,white_low_135_up,2,right,0.2923215,1,120,2,3.2.2021,119.9934244
85,"['low', 1, 2, False]",FALSE,1,black,45,right,down,low,black_low_45_down,white_low_135_down,2,right,1.6188312,1,120,2,3.2.2021,119.9934244
86,"['low', 1, 2, False]",FALSE,1,black,45,right,down,low,black_low_45_down,white_low_135_down,2,right,1.1984044,1,120,2,3.2.2021,119.9934244
87,"['high', 8, 2, True]",TRUE,8,white,135,right,up,high,white_high_135_up,black_high_45_up,2,right,0.9234847,1,120,2,3.2.2021,119.9934244
88,"['high', 4, 2, True]",TRUE,4,white,135,right,up,high,white_high_135_up,black_high_45_up,2,right,1.8496383,1,120,2,3.2.2021,119.9934244
89,"['high', 4, 2, True]",TRUE,4,white,135,right,up,high,white_high_135_up,black_high_45_up,2,right,0.7325317,1,120,2,3.2.2021,119.9934244
90,"['high', 4, 2, True]",TRUE,4,black,45,right,up,high,black_high_45_up,white_high_135_up,2,right,1.3693034,1,120,2,3.2.2021,119.9934244
91,"['high', 32, 2, True]",TRUE,32,white,135,right,up,high,white_high_135_up,black_high_45_up,2,right,0.277714,1,120,2,3.2.2021,119.9934244
92,"['low', 8, 2, True]",TRUE,8,white,45,left,up,low,white_low_45_up,black_low_135_up,2,left,0.4251725,1,120,2,3.2.2021,119.9934244
93,"['low', 16, 2, True]",TRUE,16,black,135,left,up,low,black_low_135_up,white_low_45_up,2,left,0.3571366,1,120,2,3.2.2021,119.9934244
94,"['low', 2, 2, True]",TRUE,2,black,135,left,up,low,black_low_135_up,white_low_45_up,2,left,0.5064469,1,120,2,3.2.2021,119.9934244
95,"['high', 3, 2, True]",TRUE,3,black,135,left,down,high,black_high_135_down,white_high_45_down,2,left,1.696549,1,120,2,3.2.2021,119.9934244
96,"['low', 1, 2, True]",TRUE,1,black,45,right,down,low,black_low_45_down,white_low_135_down,2,left,0.912597,0,120,2,3.2.2021,119.9934244
97,"['low', 8, 2, True]",TRUE,8,black,45,right,down,low,black_low_45_down,white_low_135_down,2,right,0.432233,1,120,2,3.2.2021,119.9934244
98,"['high', 2, 2, True]",TRUE,2,black,135,left,up,high,black_high_135_up,white_high_45_up,2,left,0.7971667,1,120,2,3.2.2021,119.9934244
99,"['low', 64, 2, True]",TRUE,64,black,135,left,down,low,black_low_135_down,white_low_45_down,2,left,0.2521127,1,120,2,3.2.2021,119.9934244
100,"['low', 1, 2, True]",TRUE,1,white,135,right,up,low,white_low_135_up,black_low_45_up,2,left,1.7013009,0,120,2,3.2.2021,119.9934244
101,"['high', 1, 2, True]",TRUE,1,white,45,left,up,high,white_high_45_up,black_high_135_up,2,left,2.9084824,1,120,2,3.2.2021,119.9934244
102,"['high', 8, 2, True]",TRUE,8,black,135,left,down,high,black_high_135_down,white_high_45_down,2,left,0.4002594,1,120,2,3.2.2021,119.9934244
103,"['low', 3, 2, True]",TRUE,3,black,135,left,up,low,black_low_135_up,white_low_45_up,2,left,1.024617,1,120,2,3.2.2021,119.9934244
104,"['low', 3, 2, True]",TRUE,3,white,135,right,up,low,white_low_135_up,black_low_45_up,2,right,0.2854719,1,120,2,3.2.2021,119.9934244
105,"['high', 3, 60, False]",FALSE,3,white,135,right,down,high,white_high_135_down,black_high_45_down,60,right,0.3749068,1,120,2,3.2.2021,119.9934244
106,"['low', 64, 2, True]",TRUE,64,black,45,right,down,low,black_low_45_down,white_low_135_down,2,right,0.2041099,1,120,2,3.2.2021,119.9934244
107,"['low', 32, 2, True]",TRUE,32,white,135,right,down,low,white_low_135_down,black_low_45_down,2,right,0.2630969,1,120,2,3.2.2021,119.9934244
108,"['high', 3, 60, False]",FALSE,3,white,45,left,up,high,white_high_45_up,black_high_135_up,60,left,0.5416449,1,120,2,3.2.2021,119.9934244
109,"['high', 1, 2, True]",TRUE,1,black,45,right,up,high,black_high_45_up,white_high_135_up,2,right,1.969022,1,120,2,3.2.2021,119.9934244
110,"['high', 8, 2, True]",TRUE,8,white,45,left,up,high,white_high_45_up,black_high_135_up,2,left,0.3423827,1,120,2,3.2.2021,119.9934244
111,"['high', 3, 2, True]",TRUE,3,white,45,left,down,high,white_high_45_down,black_high_135_down,2,left,1.288719,1,120,2,3.2.2021,119.9934244
112,"['low', 1, 2, False]",FALSE,1,black,45,right,down,low,black_low_45_down,white_low_135_down,2,left,1.9058662,0,120,2,3.2.2021,119.9934244
113,"['high', 16, 2, True]",TRUE,16,white,45,left,down,high,white_high_45_down,black_high_135_down,2,left,0.5511328,1,120,2,3.2.2021,119.9934244
114,"['high', 3, 2, True]",TRUE,3,black,135,left,up,high,black_high_135_up,white_high_45_up,2,left,1.7025736,1,120,2,3.2.2021,119.9934244
115,"['high', 1, 2, False]",FALSE,1,white,45,left,down,high,white_high_45_down,black_high_135_down,2,left,0.7441441,1,120,2,3.2.2021,119.9934244
116,"['high', 16, 2, True]",TRUE,16,white,45,left,down,high,white_high_45_down,black_high_135_down,2,left,0.2584681,1,120,2,3.2.2021,119.9934244
117,"['low', 32, 2, True]",TRUE,32,white,45,left,down,low,white_low_45_down,black_low_135_down,2,left,0.184339,1,120,2,3.2.2021,119.9934244
118,"['high', 32, 2, True]",TRUE,32,white,135,right,up,high,white_high_135_up,black_high_45_up,2,right,0.2194434,1,120,2,3.2.2021,119.9934244
119,"['high', 32, 2, True]",TRUE,32,white,45,left,up,high,white_high_45_up,black_high_135_up,2,left,0.328709,1,120,2,3.2.2021,119.9934244
120,"['high', 1, 2, True]",TRUE,1,white,135,right,down,high,white_high_135_down,black_high_45_down,2,right,0.53175,1,120,2,3.2.2021,119.9934244
121,"['low', 1, 2, False]",FALSE,1,white,135,right,up,low,white_low_135_up,black_low_45_up,2,right,1.1880574,1,120,2,3.2.2021,119.9934244
122,"['high', 4, 2, True]",TRUE,4,black,135,left,down,high,black_high_135_down,white_high_45_down,2,right,1.574715,0,120,2,3.2.2021,119.9934244
123,"['high', 1, 2, True]",TRUE,1,white,135,right,down,high,white_high_135_down,black_high_45_down,2,left,0.3622571,0,120,2,3.2.2021,119.9934244
124,"['high', 8, 2, True]",TRUE,8,white,135,right,down,high,white_high_135_down,black_high_45_down,2,right,0.342745,1,120,2,3.2.2021,119.9934244
125,"['high', 3, 2, True]",TRUE,3,black,135,left,down,high,black_high_135_down,white_high_45_down,2,left,1.5227372,1,120,2,3.2.2021,119.9934244
126,"['low', 4, 2, True]",TRUE,4,white,45,left,up,low,white_low_45_up,black_low_135_up,2,left,0.7936464,1,120,2,3.2.2021,119.9934244
127,"['low', 1, 2, True]",TRUE,1,white,135,right,down,low,white_low_135_down,black_low_45_down,2,right,0.3687167,1,120,2,3.2.2021,119.9934244
128,"['high', 2, 2, True]",TRUE,2,white,135,right,down,high,white_high_135_down,black_high_45_down,2,right,0.8576342,1,120,2,3.2.2021,119.9934244
129,"['high', 3, 60, False]",FALSE,3,black,45,right,down,high,black_high_45_down,white_high_135_down,60,right,0.4491912,1,120,2,3.2.2021,119.9934244
130,"['low', 8, 2, True]",TRUE,8,black,135,left,up,low,black_low_135_up,white_low_45_up,2,left,0.268793,1,120,2,3.2.2021,119.9934244
131,"['low', 1, 2, False]",FALSE,1,white,135,right,down,low,white_low_135_down,black_low_45_down,2,right,0.3841504,1,120,2,3.2.2021,119.9934244
132,"['high', 1, 2, True]",TRUE,1,black,135,left,down,high,black_high_135_down,white_high_45_down,2,left,0.9698277,1,120,2,3.2.2021,119.9934244
133,"['low', 3, 2, True]",TRUE,3,black,135,left,down,low,black_low_135_down,white_low_45_down,2,right,0.2852467,0,120,2,3.2.2021,119.9934244
134,"['high', 1, 2, True]",TRUE,1,black,45,right,down,high,black_high_45_down,white_high_135_down,2,left,0.4683699,0,120,2,3.2.2021,119.9934244
135,"['high', 16, 2, True]",TRUE,16,black,45,right,down,high,black_high_45_down,white_high_135_down,2,right,0.1934469,1,120,2,3.2.2021,119.9934244
136,"['high', 2, 2, True]",TRUE,2,white,45,left,down,high,white_high_45_down,black_high_135_down,2,left,0.3317821,1,120,2,3.2.2021,119.9934244
137,"['low', 8, 2, True]",TRUE,8,black,135,left,down,low,black_low_135_down,white_low_45_down,2,left,0.2409345,1,120,2,3.2.2021,119.9934244
138,"['high', 64, 2, True]",TRUE,64,white,45,left,up,high,white_high_45_up,black_high_135_up,2,left,0.241216,1,120,2,3.2.2021,119.9934244
139,"['low', 32, 2, True]",TRUE,32,black,45,right,up,low,black_low_45_up,white_low_135_up,2,right,0.7400227,1,120,2,3.2.2021,119.9934244
140,"['high', 2, 2, True]",TRUE,2,black,45,right,down,high,black_high_45_down,white_high_135_down,2,left,0.8055867,0,120,2,3.2.2021,119.9934244
141,"['low', 8, 2, True]",TRUE,8,white,135,right,down,low,white_low_135_down,black_low_45_down,2,right,0.2805077,1,120,2,3.2.2021,119.9934244
142,"['low', 2, 2, True]",TRUE,2,black,45,right,down,low,black_low_45_down,white_low_135_down,2,left,0.2943714,0,120,2,3.2.2021,119.9934244
143,"['high', 3, 2, True]",TRUE,3,black,135,left,up,high,black_high_135_up,white_high_45_up,2,left,0.3998086,1,120,2,3.2.2021,119.9934244
144,"['high', 64, 2, True]",TRUE,64,white,45,left,up,high,white_high_45_up,black_high_135_up,2,left,0.2073439,1,120,2,3.2.2021,119.9934244
145,"['low', 4, 2, True]",TRUE,4,white,135,right,down,low,white_low_135_down,black_low_45_down,2,right,0.033369,1,120,2,3.2.2021,119.9934244
146,"['low', 1, 2, False]",FALSE,1,white,135,right,down,low,white_low_135_down,black_low_45_down,2,right,0.3935187,1,120,2,3.2.2021,119.9934244
147,"['low', 4, 2, True]",TRUE,4,black,45,right,down,low,black_low_45_down,white_low_135_down,2,right,0.1730589,1,120,2,3.2.2021,119.9934244
148,"['low', 4, 2, True]",TRUE,4,white,135,right,down,low,white_low_135_down,black_low_45_down,2,right,0.1974276,1,120,2,3.2.2021,119.9934244
149,"['high', 1, 2, True]",TRUE,1,black,45,right,down,high,black_high_45_down,white_high_135_down,2,left,0.5379236,0,120,2,3.2.2021,119.9934244
150,"['high', 32, 2, True]",TRUE,32,black,45,right,up,high,black_high_45_up,white_high_135_up,2,right,0.1994986,1,120,2,3.2.2021,119.9934244
151,"['high', 1, 2, False]",FALSE,1,black,45,right,up,high,black_high_45_up,white_high_135_up,2,left,1.4710964,0,120,2,3.2.2021,119.9934244
152,"['high', 32, 2, True]",TRUE,32,black,135,left,down,high,black_high_135_down,white_high_45_down,2,left,0.2622877,1,120,2,3.2.2021,119.9934244
153,"['low', 2, 2, True]",TRUE,2,black,135,left,down,low,black_low_135_down,white_low_45_down,2,left,1.0745375,1,120,2,3.2.2021,119.9934244
154,"['low', 1, 2, False]",FALSE,1,white,45,left,up,low,white_low_45_up,black_low_135_up,2,left,0.7929663,1,120,2,3.2.2021,119.9934244
155,"['low', 4, 2, True]",TRUE,4,white,135,right,up,low,white_low_135_up,black_low_45_up,2,right,0.3581785,1,120,2,3.2.2021,119.9934244
156,"['high', 64, 2, True]",TRUE,64,black,45,right,down,high,black_high_45_down,white_high_135_down,2,right,0.3503477,1,120,2,3.2.2021,119.9934244
157,"['low', 64, 2, True]",TRUE,64,black,135,left,down,low,black_low_135_down,white_low_45_down,2,left,0.3528864,1,120,2,3.2.2021,119.9934244
158,"['high', 64, 2, True]",TRUE,64,black,45,right,down,high,black_high_45_down,white_high_135_down,2,right,0.171857,1,120,2,3.2.2021,119.9934244
159,"['high', 8, 2, True]",TRUE,8,white,135,right,up,high,white_high_135_up,black_high_45_up,2,left,0.9971983,0,120,2,3.2.2021,119.9934244
160,"['low', 3, 2, True]",TRUE,3,black,45,right,down,low,black_low_45_down,white_low_135_down,2,right,0.5340269,1,120,2,3.2.2021,119.9934244
161,"['low', 1, 2, True]",TRUE,1,white,135,right,down,low,white_low_135_down,black_low_45_down,2,right,2.6463768,1,120,2,3.2.2021,119.9934244
162,"['low', 32, 2, True]",TRUE,32,white,135,right,down,low,white_low_135_down,black_low_45_down,2,right,0.2746942,1,120,2,3.2.2021,119.9934244
163,"['low', 8, 2, True]",TRUE,8,white,45,left,down,low,white_low_45_down,black_low_135_down,2,left,0.4203842,1,120,2,3.2.2021,119.9934244
164,"['high', 8, 2, True]",TRUE,8,black,45,right,up,high,black_high_45_up,white_high_135_up,2,left,0.5332237,0,120,2,3.2.2021,119.9934244
165,"['high', 2, 2, True]",TRUE,2,black,45,right,down,high,black_high_45_down,white_high_135_down,2,left,1.1131023,0,120,2,3.2.2021,119.9934244
166,"['low', 32, 2, True]",TRUE,32,white,135,right,up,low,white_low_135_up,black_low_45_up,2,right,0.2433483,1,120,2,3.2.2021,119.9934244
167,"['high', 3, 2, True]",TRUE,3,white,135,right,up,high,white_high_135_up,black_high_45_up,2,left,0.7505317,0,120,2,3.2.2021,119.9934244
168,"['high', 8, 2, True]",TRUE,8,white,45,left,down,high,white_high_45_down,black_high_135_down,2,left,0.2071559,1,120,2,3.2.2021,119.9934244
169,"['high', 4, 2, True]",TRUE,4,white,45,left,down,high,white_high_45_down,black_high_135_down,2,right,0.9348562,0,120,2,3.2.2021,119.9934244
170,"['high', 3, 2, True]",TRUE,3,white,45,left,up,high,white_high_45_up,black_high_135_up,2,left,0.7015368,1,120,2,3.2.2021,119.9934244
171,"['low', 1, 2, False]",FALSE,1,white,45,left,up,low,white_low_45_up,black_low_135_up,2,left,0.7417005,1,120,2,3.2.2021,119.9934244
172,"['high', 16, 2, True]",TRUE,16,black,45,right,down,high,black_high_45_down,white_high_135_down,2,right,0.2568888,1,120,2,3.2.2021,119.9934244
173,"['high', 2, 2, True]",TRUE,2,white,45,left,up,high,white_high_45_up,black_high_135_up,2,right,2.4052789,0,120,2,3.2.2021,119.9934244
174,"['low', 32, 2, True]",TRUE,32,white,45,left,down,low,white_low_45_down,black_low_135_down,2,left,0.2556517,1,120,2,3.2.2021,119.9934244
175,"['high', 1, 2, True]",TRUE,1,white,45,left,down,high,white_high_45_down,black_high_135_down,2,left,1.5432046,1,120,2,3.2.2021,119.9934244
176,"['low', 64, 2, True]",TRUE,64,black,135,left,down,low,black_low_135_down,white_low_45_down,2,left,0.2130999,1,120,2,3.2.2021,119.9934244
177,"['high', 1, 2, True]",TRUE,1,black,135,left,down,high,black_high_135_down,white_high_45_down,2,right,1.4769324,0,120,2,3.2.2021,119.9934244
178,"['high', 32, 2, True]",TRUE,32,black,45,right,down,high,black_high_45_down,white_high_135_down,2,right,0.208413,1,120,2,3.2.2021,119.9934244
179,"['high', 3, 60, False]",FALSE,3,white,45,left,up,high,white_high_45_up,black_high_135_up,60,left,0.4522628,1,120,2,3.2.2021,119.9934244
180,"['low', 32, 2, True]",TRUE,32,white,45,left,up,low,white_low_45_up,black_low_135_up,2,left,0.2222107,1,120,2,3.2.2021,119.9934244
181,"['high', 1, 2, False]",FALSE,1,black,45,right,down,high,black_high_45_down,white_high_135_down,2,right,1.5869619,1,120,2,3.2.2021,119.9934244
182,"['low', 64, 2, True]",TRUE,64,black,45,right,down,low,black_low_45_down,white_low_135_down,2,right,0.1453021,1,120,2,3.2.2021,119.9934244
183,"['low', 16, 2, True]",TRUE,16,black,135,left,down,low,black_low_135_down,white_low_45_down,2,left,0.2571279,1,120,2,3.2.2021,119.9934244
184,"['low', 2, 2, True]",TRUE,2,black,45,right,down,low,black_low_45_down,white_low_135_down,2,right,1.1806773,1,120,2,3.2.2021,119.9934244
185,"['high', 3, 60, False]",FALSE,3,black,135,left,down,high,black_high_135_down,white_high_45_down,60,left,0.4722946,1,120,2,3.2.2021,119.9934244
186,"['low', 2, 2, True]",TRUE,2,black,45,right,down,low,black_low_45_down,white_low_135_down,2,left,0.5424497,0,120,2,3.2.2021,119.9934244
187,"['high', 4, 2, True]",TRUE,4,white,135,right,down,high,white_high_135_down,black_high_45_down,2,right,1.4695872,1,120,2,3.2.2021,119.9934244
188,"['low', 16, 2, True]",TRUE,16,black,135,left,up,low,black_low_135_up,white_low_45_up,2,left,0.2587123,1,120,2,3.2.2021,119.9934244
189,"['low', 8, 2, True]",TRUE,8,white,45,left,up,low,white_low_45_up,black_low_135_up,2,left,0.2683245,1,120,2,3.2.2021,119.9934244
190,"['low', 2, 2, True]",TRUE,2,black,45,right,down,low,black_low_45_down,white_low_135_down,2,right,1.0025852,1,120,2,3.2.2021,119.9934244
191,"['high', 4, 2, True]",TRUE,4,black,45,right,up,high,black_high_45_up,white_high_135_up,2,left,0.7560322,0,120,2,3.2.2021,119.9934244
192,"['high', 16, 2, True]",TRUE,16,black,135,left,up,high,black_high_135_up,white_high_45_up,2,left,0.2574593,1,120,2,3.2.2021,119.9934244
193,"['high', 32, 2, True]",TRUE,32,white,45,left,up,high,white_high_45_up,black_high_135_up,2,left,0.2192582,1,120,2,3.2.2021,119.9934244
194,"['low', 2, 2, True]",TRUE,2,black,135,left,up,low,black_low_135_up,white_low_45_up,2,left,1.13879,1,120,2,3.2.2021,119.9934244
195,"['low', 8, 2, True]",TRUE,8,white,135,right,down,low,white_low_135_down,black_low_45_down,2,right,0.234224,1,120,2,3.2.2021,119.9934244
196,"['high', 1, 2, False]",FALSE,1,white,45,left,up,high,white_high_45_up,black_high_135_up,2,left,0.6103245,1,120,2,3.2.2021,119.9934244
197,"['low', 1, 2, False]",FALSE,1,black,45,right,up,low,black_low_45_up,white_low_135_up,2,left,0.9083102,0,120,2,3.2.2021,119.9934244
198,"['high', 2, 2, True]",TRUE,2,black,135,left,up,high,black_high_135_up,white_high_45_up,2,left,0.3245136,1,120,2,3.2.2021,119.9934244
199,"['high', 32, 2, True]",TRUE,32,white,45,left,up,high,white_high_45_up,black_high_135_up,2,left,0.2662031,1,120,2,3.2.2021,119.9934244
200,"['low', 8, 2, True]",TRUE,8,black,45,right,up,low,black_low_45_up,white_low_135_up,2,right,0.2527705,1,120,2,3.2.2021,119.9934244
201,"['low', 1, 2, False]",FALSE,1,white,135,right,up,low,white_low_135_up,black_low_45_up,2,right,0.5312343,1,120,2,3.2.2021,119.9934244
202,"['high', 1, 2, False]",FALSE,1,black,45,right,up,high,black_high_45_up,white_high_135_up,2,right,1.3957577,1,120,2,3.2.2021,119.9934244
203,"['high', 8, 2, True]",TRUE,8,white,135,right,up,high,white_high_135_up,black_high_45_up,2,right,0.2892149,1,120,2,3.2.2021,119.9934244
204,"['low', 1, 2, False]",FALSE,1,black,135,left,down,low,black_low_135_down,white_low_45_down,2,left,1.2302639,1,120,2,3.2.2021,119.9934244
205,"['low', 3, 2, True]",TRUE,3,white,135,right,down,low,white_low_135_down,black_low_45_down,2,right,0.2176341,1,120,2,3.2.2021,119.9934244
206,"['high', 1, 2, False]",FALSE,1,white,135,right,up,high,white_high_135_up,black_high_45_up,2,left,0.6119874,0,120,2,3.2.2021,119.9934244
207,"['low', 4, 2, True]",TRUE,4,black,45,right,up,low,black_low_45_up,white_low_135_up,2,right,0.1768329,1,120,2,3.2.2021,119.9934244
208,"['high', 32, 2, True]",TRUE,32,white,45,left,up,high,white_high_45_up,black_high_135_up,2,left,0.2547519,1,120,2,3.2.2021,119.9934244
209,"['low', 2, 2, True]",TRUE,2,white,45,left,up,low,white_low_45_up,black_low_135_up,2,right,0.0917697,0,120,2,3.2.2021,119.9934244
210,"['low', 4, 2, True]",TRUE,4,black,45,right,down,low,black_low_45_down,white_low_135_down,2,right,0.1398627,1,120,2,3.2.2021,119.9934244
211,"['high', 1, 2, True]",TRUE,1,white,45,left,down,high,white_high_45_down,black_high_135_down,2,left,0.8297783,1,120,2,3.2.2021,119.9934244
212,"['low', 8, 2, True]",TRUE,8,white,135,right,up,low,white_low_135_up,black_low_45_up,2,right,0.1632323,1,120,2,3.2.2021,119.9934244
213,"['high', 3, 2, True]",TRUE,3,black,135,left,up,high,black_high_135_up,white_high_45_up,2,left,0.3227207,1,120,2,3.2.2021,119.9934244
214,"['low', 32, 2, True]",TRUE,32,white,45,left,down,low,white_low_45_down,black_low_135_down,2,left,0.172345,1,120,2,3.2.2021,119.9934244
215,"['low', 4, 2, True]",TRUE,4,black,135,left,down,low,black_low_135_down,white_low_45_down,2,right,0.1330399,0,120,2,3.2.2021,119.9934244
216,"['low', 16, 2, True]",TRUE,16,white,45,left,down,low,white_low_45_down,black_low_135_down,2,left,0.2074366,1,120,2,3.2.2021,119.9934244
217,"['low', 3, 2, True]",TRUE,3,white,135,right,up,low,white_low_135_up,black_low_45_up,2,right,0.2026867,1,120,2,3.2.2021,119.9934244
218,"['low', 3, 2, True]",TRUE,3,black,135,left,up,low,black_low_135_up,white_low_45_up,2,right,0.4087121,0,120,2,3.2.2021,119.9934244
219,"['high', 1, 2, False]",FALSE,1,white,45,left,down,high,white_high_45_down,black_high_135_down,2,left,0.5001841,1,120,2,3.2.2021,119.9934244
220,"['low', 32, 2, True]",TRUE,32,black,135,left,down,low,black_low_135_down,white_low_45_down,2,left,0.1594189,1,120,2,3.2.2021,119.9934244
221,"['low', 1, 2, False]",FALSE,1,black,135,left,up,low,black_low_135_up,white_low_45_up,2,right,0.3246459,0,120,2,3.2.2021,119.9934244
222,"['high', 3, 60, False]",FALSE,3,white,135,right,down,high,white_high_135_down,black_high_45_down,60,right,0.3560039,1,120,2,3.2.2021,119.9934244
223,"['high', 3, 60, False]",FALSE,3,white,45,left,up,high,white_high_45_up,black_high_135_up,60,left,0.2629144,1,120,2,3.2.2021,119.9934244
224,"['low', 16, 2, True]",TRUE,16,black,135,left,down,low,black_low_135_down,white_low_45_down,2,left,0.4395694,1,120,2,3.2.2021,119.9934244
225,"['low', 16, 2, True]",TRUE,16,white,45,left,up,low,white_low_45_up,black_low_135_up,2,left,0.205594,1,120,2,3.2.2021,119.9934244
226,"['high', 1, 2, False]",FALSE,1,black,135,left,up,high,black_high_135_up,white_high_45_up,2,left,1.3054863,1,120,2,3.2.2021,119.9934244
227,"['high', 3, 2, True]",TRUE,3,black,45,right,up,high,black_high_45_up,white_high_135_up,2,right,0.4896348,1,120,2,3.2.2021,119.9934244
228,"['low', 3, 2, True]",TRUE,3,black,135,left,up,low,black_low_135_up,white_low_45_up,2,left,0.2305542,1,120,2,3.2.2021,119.9934244
229,"['high', 8, 2, True]",TRUE,8,black,135,left,down,high,black_high_135_down,white_high_45_down,2,left,0.3231194,1,120,2,3.2.2021,119.9934244
230,"['low', 1, 2, False]",FALSE,1,white,45,left,up,low,white_low_45_up,black_low_135_up,2,left,0.5693567,1,120,2,3.2.2021,119.9934244
231,"['low', 4, 2, True]",TRUE,4,black,45,right,up,low,black_low_45_up,white_low_135_up,2,left,0.9649729,0,120,2,3.2.2021,119.9934244
232,"['low', 8, 2, True]",TRUE,8,black,135,left,up,low,black_low_135_up,white_low_45_up,2,left,0.1868254,1,120,2,3.2.2021,119.9934244
233,"['high', 4, 2, True]",TRUE,4,white,135,right,up,high,white_high_135_up,black_high_45_up,2,left,0.4644648,0,120,2,3.2.2021,119.9934244
234,"['high', 1, 2, False]",FALSE,1,black,45,right,down,high,black_high_45_down,white_high_135_down,2,right,1.0649856,1,120,2,3.2.2021,119.9934244
235,"['low', 64, 2, True]",TRUE,64,black,45,right,up,low,black_low_45_up,white_low_135_up,2,right,0.1914591,1,120,2,3.2.2021,119.9934244
236,"['high', 1, 2, True]",TRUE,1,black,45,right,down,high,black_high_45_down,white_high_135_down,2,left,0.873949,0,120,2,3.2.2021,119.9934244
237,"['high', 1, 2, False]",FALSE,1,white,135,right,up,high,white_high_135_up,black_high_45_up,2,left,0.6569956,0,120,2,3.2.2021,119.9934244
238,"['high', 16, 2, True]",TRUE,16,black,45,right,up,high,black_high_45_up,white_high_135_up,2,right,0.1555655,1,120,2,3.2.2021,119.9934244
239,"['low', 16, 2, True]",TRUE,16,white,135,right,up,low,white_low_135_up,black_low_45_up,2,right,0.1980924,1,120,2,3.2.2021,119.9934244
240,"['high', 32, 2, True]",TRUE,32,black,45,right,up,high,black_high_45_up,white_high_135_up,2,right,0.3254505,1,120,2,3.2.2021,119.9934244
241,"['high', 1, 2, True]",TRUE,1,black,45,right,up,high,black_high_45_up,white_high_135_up,2,left,1.62673,0,120,2,3.2.2021,119.9934244
242,"['high', 64, 2, True]",TRUE,64,white,135,right,down,high,white_high_135_down,black_high_45_down,2,right,0.2479415,1,120,2,3.2.2021,119.9934244
243,"['low', 2, 2, True]",TRUE,2,black,135,left,down,low,black_low_135_down,white_low_45_down,2,left,0.6923559,1,120,2,3.2.2021,119.9934244
244,"['low', 16, 2, True]",TRUE,16,black,45,right,up,low,black_low_45_up,white_low_135_up,2,right,0.2072662,1,120,2,3.2.2021,119.9934244
245,"['low', 64, 2, True]",TRUE,64,white,45,left,down,low,white_low_45_down,black_low_135_down,2,left,0.2463972,1,120,2,3.2.2021,119.9934244
246,"['high', 1, 2, False]",FALSE,1,white,135,right,down,high,white_high_135_down,black_high_45_down,2,right,0.7668792,1,120,2,3.2.2021,119.9934244
247,"['high', 4, 2, True]",TRUE,4,black,135,left,up,high,black_high_135_up,white_high_45_up,2,left,0.9703645,1,120,2,3.2.2021,119.9934244
248,"['high', 3, 2, True]",TRUE,3,black,45,right,up,high,black_high_45_up,white_high_135_up,2,right,1.0347132,1,120,2,3.2.2021,119.9934244
249,"['high', 1, 2, True]",TRUE,1,black,45,right,down,high,black_high_45_down,white_high_135_down,2,left,0.7672774,0,120,2,3.2.2021,119.9934244
250,"['low', 16, 2, True]",TRUE,16,black,45,right,down,low,black_low_45_down,white_low_135_down,2,right,0.1771733,1,120,2,3.2.2021,119.9934244
251,"['low', 2, 2, True]",TRUE,2,black,135,left,down,low,black_low_135_down,white_low_45_down,2,left,0.5413425,1,120,2,3.2.2021,119.9934244
252,"['high', 8, 2, True]",TRUE,8,black,45,right,down,high,black_high_45_down,white_high_135_down,2,right,0.1870657,1,120,2,3.2.2021,119.9934244
253,"['high', 64, 2, True]",TRUE,64,white,45,left,up,high,white_high_45_up,black_high_135_up,2,left,0.1781214,1,120,2,3.2.2021,119.9934244
254,"['high', 16, 2, True]",TRUE,16,black,135,left,down,high,black_high_135_down,white_high_45_down,2,left,0.2281935,1,120,2,3.2.2021,119.9934244
255,"['high', 16, 2, True]",TRUE,16,black,45,right,up,high,black_high_45_up,white_high_135_up,2,right,0.3505917,1,120,2,3.2.2021,119.9934244
256,"['high', 3, 2, True]",TRUE,3,white,135,right,down,high,white_high_135_down,black_high_45_down,2,left,1.031796,0,120,2,3.2.2021,119.9934244
257,"['low', 1, 2, True]",TRUE,1,white,45,left,down,low,white_low_45_down,black_low_135_down,2,left,0.6352108,1,120,2,3.2.2021,119.9934244
258,"['low', 64, 2, True]",TRUE,64,white,45,left,up,low,white_low_45_up,black_low_135_up,2,left,0.1758786,1,120,2,3.2.2021,119.9934244
259,"['high', 8, 2, True]",TRUE,8,white,135,right,down,high,white_high_135_down,black_high_45_down,2,right,0.1708379,1,120,2,3.2.2021,119.9934244
260,"['low', 1, 2, True]",TRUE,1,white,45,left,down,low,white_low_45_down,black_low_135_down,2,left,0.6563109,1,120,2,3.2.2021,119.9934244
261,"['low', 4, 2, True]",TRUE,4,white,135,right,down,low,white_low_135_down,black_low_45_down,2,right,0.2037134,1,120,2,3.2.2021,119.9934244
262,"['high', 1, 2, True]",TRUE,1,white,45,left,up,high,white_high_45_up,black_high_135_up,2,right,1.7397304,0,120,2,3.2.2021,119.9934244
263,"['high', 16, 2, True]",TRUE,16,white,135,right,down,high,white_high_135_down,black_high_45_down,2,right,0.134846,1,120,2,3.2.2021,119.9934244
264,"['low', 2, 2, True]",TRUE,2,white,135,right,up,low,white_low_135_up,black_low_45_up,2,right,1.0156172,1,120,2,3.2.2021,119.9934244
265,"['high', 2, 2, True]",TRUE,2,black,45,right,down,high,black_high_45_down,white_high_135_down,2,right,0.9903916,1,120,2,3.2.2021,119.9934244
266,"['high', 2, 2, True]",TRUE,2,black,135,left,down,high,black_high_135_down,white_high_45_down,2,left,1.4537724,1,120,2,3.2.2021,119.9934244
267,"['high', 1, 2, True]",TRUE,1,black,135,left,up,high,black_high_135_up,white_high_45_up,2,left,1.4660833,1,120,2,3.2.2021,119.9934244
268,"['low', 4, 2, True]",TRUE,4,white,135,right,up,low,white_low_135_up,black_low_45_up,2,right,0.3206757,1,120,2,3.2.2021,119.9934244
269,"['low', 1, 2, True]",TRUE,1,black,45,right,up,low,black_low_45_up,white_low_135_up,2,right,0.7561627,1,120,2,3.2.2021,119.9934244
270,"['low', 4, 2, True]",TRUE,4,white,45,left,down,low,white_low_45_down,black_low_135_down,2,left,0.3257992,1,120,2,3.2.2021,119.9934244
271,"['low', 32, 2, True]",TRUE,32,black,45,right,down,low,black_low_45_down,white_low_135_down,2,right,0.1757396,1,120,2,3.2.2021,119.9934244
272,"['high', 4, 2, True]",TRUE,4,black,135,left,down,high,black_high_135_down,white_high_45_down,2,left,0.5473184,1,120,2,3.2.2021,119.9934244
273,"['low', 32, 2, True]",TRUE,32,black,45,right,up,low,black_low_45_up,white_low_135_up,2,right,0.1896712,1,120,2,3.2.2021,119.9934244
274,"['low', 8, 2, True]",TRUE,8,white,135,right,up,low,white_low_135_up,black_low_45_up,2,right,0.2350431,1,120,2,3.2.2021,119.9934244
275,"['low', 8, 2, True]",TRUE,8,white,135,right,down,low,white_low_135_down,black_low_45_down,2,right,0.3094411,1,120,2,3.2.2021,119.9934244
276,"['high', 16, 2, True]",TRUE,16,black,135,left,up,high,black_high_135_up,white_high_45_up,2,left,0.1636117,1,120,2,3.2.2021,119.9934244
277,"['high', 2, 2, True]",TRUE,2,black,135,left,up,high,black_high_135_up,white_high_45_up,2,right,0.623914,0,120,2,3.2.2021,119.9934244
278,"['high', 1, 2, True]",TRUE,1,white,135,right,up,high,white_high_135_up,black_high_45_up,2,right,0.9276503,1,120,2,3.2.2021,119.9934244
279,"['low', 1, 2, True]",TRUE,1,black,45,right,up,low,black_low_45_up,white_low_135_up,2,left,0.6619833,0,120,2,3.2.2021,119.9934244
280,"['low', 64, 2, True]",TRUE,64,white,135,right,up,low,white_low_135_up,black_low_45_up,2,right,0.129728,1,120,2,3.2.2021,119.9934244
281,"['high', 32, 2, True]",TRUE,32,black,45,right,down,high,black_high_45_down,white_high_135_down,2,right,0.5084098,1,120,2,3.2.2021,119.9934244
282,"['low', 8, 2, True]",TRUE,8,black,45,right,up,low,black_low_45_up,white_low_135_up,2,right,0.1999051,1,120,2,3.2.2021,119.9934244
283,"['low', 1, 2, True]",TRUE,1,white,45,left,down,low,white_low_45_down,black_low_135_down,2,right,1.2705069,0,120,2,3.2.2021,119.9934244
284,"['low', 16, 2, True]",TRUE,16,white,45,left,up,low,white_low_45_up,black_low_135_up,2,left,0.2084016,1,120,2,3.2.2021,119.9934244
285,"['low', 3, 2, True]",TRUE,3,black,45,right,down,low,black_low_45_down,white_low_135_down,2,right,0.8633485,1,120,2,3.2.2021,119.9934244
286,"['high', 3, 60, False]",FALSE,3,white,135,right,up,high,white_high_135_up,black_high_45_up,60,right,0.5059843,1,120,2,3.2.2021,119.9934244
287,"['low', 4, 2, True]",TRUE,4,black,45,right,up,low,black_low_45_up,white_low_135_up,2,right,2.061989,1,120,2,3.2.2021,119.9934244
288,"['high', 3, 2, True]",TRUE,3,black,135,left,up,high,black_high_135_up,white_high_45_up,2,right,0.6415496,0,120,2,3.2.2021,119.9934244
289,"['low', 4, 2, True]",TRUE,4,black,45,right,down,low,black_low_45_down,white_low_135_down,2,right,0.7046225,1,120,2,3.2.2021,119.9934244
290,"['high', 1, 2, False]",FALSE,1,black,45,right,down,high,black_high_45_down,white_high_135_down,2,right,0.7093856,1,120,2,3.2.2021,119.9934244
291,"['low', 8, 2, True]",TRUE,8,black,135,left,down,low,black_low_135_down,white_low_45_down,2,left,0.2785134,1,120,2,3.2.2021,119.9934244
292,"['high', 16, 2, True]",TRUE,16,black,45,right,down,high,black_high_45_down,white_high_135_down,2,right,0.2237959,1,120,2,3.2.2021,119.9934244
293,"['low', 8, 2, True]",TRUE,8,black,45,right,up,low,black_low_45_up,white_low_135_up,2,right,1.4900951,1,120,2,3.2.2021,119.9934244
294,"['low', 32, 2, True]",TRUE,32,white,135,right,up,low,white_low_135_up,black_low_45_up,2,right,0.1993322,1,120,2,3.2.2021,119.9934244
295,"['high', 3, 2, True]",TRUE,3,black,135,left,down,high,black_high_135_down,white_high_45_down,2,right,1.0505228,0,120,2,3.2.2021,119.9934244
296,"['low', 3, 2, True]",TRUE,3,white,135,right,down,low,white_low_135_down,black_low_45_down,2,right,0.4668745,1,120,2,3.2.2021,119.9934244
297,"['high', 32, 2, True]",TRUE,32,black,45,right,down,high,black_high_45_down,white_high_135_down,2,right,0.1741306,1,120,2,3.2.2021,119.9934244
298,"['low', 4, 2, True]",TRUE,4,black,45,right,up,low,black_low_45_up,white_low_135_up,2,right,0.5835284,1,120,2,3.2.2021,119.9934244
299,"['high', 16, 2, True]",TRUE,16,white,45,left,down,high,white_high_45_down,black_high_135_down,2,left,0.2173033,1,120,2,3.2.2021,119.9934244
300,"['low', 3, 2, True]",TRUE,3,white,135,right,up,low,white_low_135_up,black_low_45_up,2,right,0.5074501,1,120,2,3.2.2021,119.9934244
301,"['low', 16, 2, True]",TRUE,16,white,135,right,down,low,white_low_135_down,black_low_45_down,2,right,0.2034231,1,120,2,3.2.2021,119.9934244
302,"['low', 1, 2, True]",TRUE,1,white,135,right,up,low,white_low_135_up,black_low_45_up,2,right,0.7688369,1,120,2,3.2.2021,119.9934244
303,"['high', 64, 2, True]",TRUE,64,white,135,right,down,high,white_high_135_down,black_high_45_down,2,right,0.0665389,1,120,2,3.2.2021,119.9934244
304,"['high', 1, 2, True]",TRUE,1,black,135,left,down,high,black_high_135_down,white_high_45_down,2,right,0.7024985,0,120,2,3.2.2021,119.9934244
305,"['low', 16, 2, True]",TRUE,16,white,135,right,down,low,white_low_135_down,black_low_45_down,2,right,0.2368856,1,120,2,3.2.2021,119.9934244
306,"['low', 1, 2, True]",TRUE,1,black,135,left,down,low,black_low_135_down,white_low_45_down,2,left,0.7085466,1,120,2,3.2.2021,119.9934244
307,"['high', 8, 2, True]",TRUE,8,white,135,right,up,high,white_high_135_up,black_high_45_up,2,right,1.2141675,1,120,2,3.2.2021,119.9934244
308,"['low', 64, 2, True]",TRUE,64,black,135,left,down,low,black_low_135_down,white_low_45_down,2,left,0.254891,1,120,2,3.2.2021,119.9934244
309,"['high', 2, 2, True]",TRUE,2,black,135,left,down,high,black_high_135_down,white_high_45_down,2,right,0.5878861,0,120,2,3.2.2021,119.9934244
310,"['high', 16, 2, True]",TRUE,16,white,45,left,up,high,white_high_45_up,black_high_135_up,2,left,0.2673949,1,120,2,3.2.2021,119.9934244
311,"['high', 16, 2, True]",TRUE,16,black,45,right,up,high,black_high_45_up,white_high_135_up,2,right,0.1664838,1,120,2,3.2.2021,119.9934244
312,"['low', 16, 2, True]",TRUE,16,black,135,left,down,low,black_low_135_down,white_low_45_down,2,left,0.2446148,1,120,2,3.2.2021,119.9934244
313,"['high', 3, 60, False]",FALSE,3,white,45,left,up,high,white_high_45_up,black_high_135_up,60,left,0.6128214,1,120,2,3.2.2021,119.9934244
314,"['low', 32, 2, True]",TRUE,32,white,45,left,up,low,white_low_45_up,black_low_135_up,2,left,0.2080396,1,120,2,3.2.2021,119.9934244
315,"['low', 1, 2, False]",FALSE,1,black,135,left,down,low,black_low_135_down,white_low_45_down,2,right,1.2068625,0,120,2,3.2.2021,119.9934244
316,"['low', 2, 2, True]",TRUE,2,white,45,left,up,low,white_low_45_up,black_low_135_up,2,left,0.9960207,1,120,2,3.2.2021,119.9934244
317,"['low', 4, 2, True]",TRUE,4,white,45,left,up,low,white_low_45_up,black_low_135_up,2,left,0.346377,1,120,2,3.2.2021,119.9934244
318,"['high', 32, 2, True]",TRUE,32,white,45,left,down,high,white_high_45_down,black_high_135_down,2,left,0.2081876,1,120,2,3.2.2021,119.9934244
319,"['high', 2, 2, True]",TRUE,2,white,135,right,up,high,white_high_135_up,black_high_45_up,2,right,0.6290531,1,120,2,3.2.2021,119.9934244
320,"['high', 1, 2, True]",TRUE,1,black,45,right,up,high,black_high_45_up,white_high_135_up,2,right,1.7201916,1,120,2,3.2.2021,119.9934244
321,"['low', 1, 2, True]",TRUE,1,white,45,left,down,low,white_low_45_down,black_low_135_down,2,left,0.7052738,1,120,2,3.2.2021,119.9934244
322,"['high', 64, 2, True]",TRUE,64,white,45,left,down,high,white_high_45_down,black_high_135_down,2,left,0.277286,1,120,2,3.2.2021,119.9934244
323,"['low', 2, 2, True]",TRUE,2,black,45,right,up,low,black_low_45_up,white_low_135_up,2,right,1.4093132,1,120,2,3.2.2021,119.9934244
324,"['low', 2, 2, True]",TRUE,2,white,135,right,down,low,white_low_135_down,black_low_45_down,2,right,0.3983347,1,120,2,3.2.2021,119.9934244
325,"['high', 3, 2, True]",TRUE,3,white,135,right,up,high,white_high_135_up,black_high_45_up,2,left,1.0139645,0,120,2,3.2.2021,119.9934244
326,"['low', 8, 2, True]",TRUE,8,white,135,right,down,low,white_low_135_down,black_low_45_down,2,right,0.1718626,1,120,2,3.2.2021,119.9934244
327,"['high', 64, 2, True]",TRUE,64,black,45,right,down,high,black_high_45_down,white_high_135_down,2,right,0.2272235,1,120,2,3.2.2021,119.9934244
328,"['high', 2, 2, True]",TRUE,2,white,135,right,up,high,white_high_135_up,black_high_45_up,2,left,1.0847245,0,120,2,3.2.2021,119.9934244
329,"['low', 16, 2, True]",TRUE,16,white,135,right,up,low,white_low_135_up,black_low_45_up,2,right,0.2439482,1,120,2,3.2.2021,119.9934244
330,"['low', 1, 2, True]",TRUE,1,black,135,left,up,low,black_low_135_up,white_low_45_up,2,right,1.9022749,0,120,2,3.2.2021,119.9934244
331,"['low', 16, 2, True]",TRUE,16,black,135,left,up,low,black_low_135_up,white_low_45_up,2,left,0.2518905,1,120,2,3.2.2021,119.9934244
332,"['high', 32, 2, True]",TRUE,32,black,135,left,down,high,black_high_135_down,white_high_45_down,2,left,0.2379442,1,120,2,3.2.2021,119.9934244
333,"['low', 16, 2, True]",TRUE,16,white,135,right,down,low,white_low_135_down,black_low_45_down,2,right,0.1205279,1,120,2,3.2.2021,119.9934244
334,"['high', 4, 2, True]",TRUE,4,black,45,right,up,high,black_high_45_up,white_high_135_up,2,left,0.2961885,0,120,2,3.2.2021,119.9934244
335,"['high', 3, 2, True]",TRUE,3,black,135,left,up,high,black_high_135_up,white_high_45_up,2,left,0.2597521,1,120,2,3.2.2021,119.9934244
336,"['low', 32, 2, True]",TRUE,32,black,135,left,down,low,black_low_135_down,white_low_45_down,2,left,0.1455847,1,120,2,3.2.2021,119.9934244
337,"['low', 16, 2, True]",TRUE,16,black,135,left,up,low,black_low_135_up,white_low_45_up,2,left,0.447642,1,120,2,3.2.2021,119.9934244
338,"['high', 2, 2, True]",TRUE,2,black,135,left,up,high,black_high_135_up,white_high_45_up,2,left,0.9236224,1,120,2,3.2.2021,119.9934244
339,"['low', 2, 2, True]",TRUE,2,black,45,right,down,low,black_low_45_down,white_low_135_down,2,right,0.2685014,1,120,2,3.2.2021,119.9934244
340,"['high', 3, 60, False]",FALSE,3,black,135,left,up,high,black_high_135_up,white_high_45_up,60,left,0.441376,1,120,2,3.2.2021,119.9934244
341,"['low', 2, 2, True]",TRUE,2,black,45,right,down,low,black_low_45_down,white_low_135_down,2,right,0.7955692,1,120,2,3.2.2021,119.9934244
342,"['high', 64, 2, True]",TRUE,64,black,135,left,up,high,black_high_135_up,white_high_45_up,2,left,0.1965417,1,120,2,3.2.2021,119.9934244
343,"['high', 8, 2, True]",TRUE,8,white,45,left,down,high,white_high_45_down,black_high_135_down,2,left,0.2733227,1,120,2,3.2.2021,119.9934244
344,"['low', 32, 2, True]",TRUE,32,black,45,right,down,low,black_low_45_down,white_low_135_down,2,right,0.0274067,1,120,2,3.2.2021,119.9934244
345,"['low', 64, 2, True]",TRUE,64,black,135,left,up,low,black_low_135_up,white_low_45_up,2,left,0.3973574,1,120,2,3.2.2021,119.9934244
346,"['low', 4, 2, True]",TRUE,4,black,45,right,down,low,black_low_45_down,white_low_135_down,2,right,0.1975778,1,120,2,3.2.2021,119.9934244
347,"['high', 1, 2, True]",TRUE,1,white,45,left,up,high,white_high_45_up,black_high_135_up,2,left,0.7827605,1,120,2,3.2.2021,119.9934244
348,"['high', 8, 2, True]",TRUE,8,white,135,right,up,high,white_high_135_up,black_high_45_up,2,right,1.1309728,1,120,2,3.2.2021,119.9934244
349,"['low', 32, 2, True]",TRUE,32,white,45,left,down,low,white_low_45_down,black_low_135_down,2,left,0.1584569,1,120,2,3.2.2021,119.9934244
350,"['low', 1, 2, False]",FALSE,1,black,135,left,up,low,black_low_135_up,white_low_45_up,2,left,1.1525486,1,120,2,3.2.2021,119.9934244
351,"['high', 4, 2, True]",TRUE,4,black,45,right,up,high,black_high_45_up,white_high_135_up,2,right,1.9638773,1,120,2,3.2.2021,119.9934244
352,"['high', 64, 2, True]",TRUE,64,white,45,left,down,high,white_high_45_down,black_high_135_down,2,left,0.2504215,1,120,2,3.2.2021,119.9934244
353,"['high', 2, 2, True]",TRUE,2,black,45,right,down,high,black_high_45_down,white_high_135_down,2,left,1.1346472,0,120,2,3.2.2021,119.9934244
354,"['high', 4, 2, True]",TRUE,4,white,45,left,down,high,white_high_45_down,black_high_135_down,2,left,0.7213511,1,120,2,3.2.2021,119.9934244
355,"['low', 3, 2, True]",TRUE,3,black,135,left,up,low,black_low_135_up,white_low_45_up,2,left,1.1173874,1,120,2,3.2.2021,119.9934244
356,"['high', 1, 2, False]",FALSE,1,white,135,right,up,high,white_high_135_up,black_high_45_up,2,left,2.3945933,0,120,2,3.2.2021,119.9934244
357,"['high', 4, 2, True]",TRUE,4,black,135,left,down,high,black_high_135_down,white_high_45_down,2,left,1.3649436,1,120,2,3.2.2021,119.9934244
358,"['high', 2, 2, True]",TRUE,2,black,45,right,down,high,black_high_45_down,white_high_135_down,2,left,0.5175663,0,120,2,3.2.2021,119.9934244
359,"['low', 16, 2, True]",TRUE,16,black,135,left,down,low,black_low_135_down,white_low_45_down,2,left,0.1779043,1,120,2,3.2.2021,119.9934244
360,"['low', 4, 2, True]",TRUE,4,black,45,right,down,low,black_low_45_down,white_low_135_down,2,right,0.7270504,1,120,2,3.2.2021,119.9934244
361,"['high', 2, 2, True]",TRUE,2,white,135,right,down,high,white_high_135_down,black_high_45_down,2,right,1.256302,1,120,2,3.2.2021,119.9934244
362,"['high', 1, 2, False]",FALSE,1,black,135,left,up,high,black_high_135_up,white_high_45_up,2,left,2.7228436,1,120,2,3.2.2021,119.9934244
363,"['high', 16, 2, True]",TRUE,16,black,135,left,up,high,black_high_135_up,white_high_45_up,2,left,0.6395778,1,120,2,3.2.2021,119.9934244
364,"['high', 1, 2, True]",TRUE,1,black,135,left,up,high,black_high_135_up,white_high_45_up,2,left,0.8105464,1,120,2,3.2.2021,119.9934244
365,"['high', 16, 2, True]",TRUE,16,black,45,right,down,high,black_high_45_down,white_high_135_down,2,left,0.3212528,0,120,2,3.2.2021,119.9934244
366,"['high', 16, 2, True]",TRUE,16,black,135,left,down,high,black_high_135_down,white_high_45_down,2,left,0.2126903,1,120,2,3.2.2021,119.9934244
367,"['high', 3, 60, False]",FALSE,3,white,45,left,up,high,white_high_45_up,black_high_135_up,60,left,0.3072606,1,120,2,3.2.2021,119.9934244
368,"['high', 64, 2, True]",TRUE,64,white,135,right,up,high,white_high_135_up,black_high_45_up,2,right,0.283268,1,120,2,3.2.2021,119.9934244
369,"['high', 3, 60, False]",FALSE,3,black,45,right,down,high,black_high_45_down,white_high_135_down,60,right,0.3764611,1,120,2,3.2.2021,119.9934244
370,"['high', 64, 2, True]",TRUE,64,white,135,right,down,high,white_high_135_down,black_high_45_down,2,right,0.236442,1,120,2,3.2.2021,119.9934244
371,"['low', 2, 2, True]",TRUE,2,black,135,left,up,low,black_low_135_up,white_low_45_up,2,left,1.0628326,1,120,2,3.2.2021,119.9934244
372,"['high', 4, 2, True]",TRUE,4,white,45,left,up,high,white_high_45_up,black_high_135_up,2,left,2.4067691,1,120,2,3.2.2021,119.9934244
373,"['high', 4, 2, True]",TRUE,4,black,45,right,up,high,black_high_45_up,white_high_135_up,2,right,1.9771694,1,120,2,3.2.2021,119.9934244
374,"['low', 1, 2, False]",FALSE,1,white,45,left,down,low,white_low_45_down,black_low_135_down,2,left,1.0625719,1,120,2,3.2.2021,119.9934244
375,"['high', 32, 2, True]",TRUE,32,black,45,right,up,high,black_high_45_up,white_high_135_up,2,right,0.3153195,1,120,2,3.2.2021,119.9934244
376,"['high', 1, 2, True]",TRUE,1,black,135,left,down,high,black_high_135_down,white_high_45_down,2,left,0.9722504,1,120,2,3.2.2021,119.9934244
377,"['low', 3, 2, True]",TRUE,3,white,45,left,down,low,white_low_45_down,black_low_135_down,2,left,0.7478577,1,120,2,3.2.2021,119.9934244
378,"['low', 1, 2, False]",FALSE,1,black,135,left,down,low,black_low_135_down,white_low_45_down,2,left,1.0244239,1,120,2,3.2.2021,119.9934244
379,"['low', 64, 2, True]",TRUE,64,black,135,left,up,low,black_low_135_up,white_low_45_up,2,left,0.2180912,1,120,2,3.2.2021,119.9934244
380,"['high', 1, 2, True]",TRUE,1,black,45,right,up,high,black_high_45_up,white_high_135_up,2,right,2.1472327,1,120,2,3.2.2021,119.9934244
381,"['low', 2, 2, True]",TRUE,2,white,45,left,up,low,white_low_45_up,black_low_135_up,2,left,0.6319929,1,120,2,3.2.2021,119.9934244
382,"['high', 8, 2, True]",TRUE,8,white,45,left,up,high,white_high_45_up,black_high_135_up,2,left,1.2536941,1,120,2,3.2.2021,119.9934244
383,"['high', 64, 2, True]",TRUE,64,black,135,left,up,high,black_high_135_up,white_high_45_up,2,left,0.2721281,1,120,2,3.2.2021,119.9934244
384,"['high', 3, 2, True]",TRUE,3,white,135,right,down,high,white_high_135_down,black_high_45_down,2,left,0.619964,0,120,2,3.2.2021,119.9934244
385,"['low', 32, 2, True]",TRUE,32,white,45,left,down,low,white_low_45_down,black_low_135_down,2,left,0.240357,1,120,2,3.2.2021,119.9934244
386,"['high', 2, 2, True]",TRUE,2,black,45,right,down,high,black_high_45_down,white_high_135_down,2,left,0.5076025,0,120,2,3.2.2021,119.9934244
387,"['low', 16, 2, True]",TRUE,16,white,135,right,down,low,white_low_135_down,black_low_45_down,2,right,0.2477013,1,120,2,3.2.2021,119.9934244
388,"['low', 16, 2, True]",TRUE,16,white,45,left,up,low,white_low_45_up,black_low_135_up,2,left,0.248314,1,120,2,3.2.2021,119.9934244
389,"['high', 1, 2, True]",TRUE,1,black,135,left,up,high,black_high_135_up,white_high_45_up,2,left,0.9274676,1,120,2,3.2.2021,119.9934244
390,"['high', 3, 2, True]",TRUE,3,white,45,left,up,high,white_high_45_up,black_high_135_up,2,left,1.8922741,1,120,2,3.2.2021,119.9934244
391,"['high', 3, 60, False]",FALSE,3,black,135,left,up,high,black_high_135_up,white_high_45_up,60,left,0.3789689,1,120,2,3.2.2021,119.9934244
392,"['high', 3, 2, True]",TRUE,3,white,135,right,down,high,white_high_135_down,black_high_45_down,2,left,0.5445759,0,120,2,3.2.2021,119.9934244
393,"['low', 1, 2, True]",TRUE,1,black,135,left,down,low,black_low_135_down,white_low_45_down,2,left,0.4258418,1,120,2,3.2.2021,119.9934244
394,"['high', 64, 2, True]",TRUE,64,black,135,left,up,high,black_high_135_up,white_high_45_up,2,left,0.1717183,1,120,2,3.2.2021,119.9934244
395,"['low', 2, 2, True]",TRUE,2,black,45,right,up,low,black_low_45_up,white_low_135_up,2,right,1.0709396,1,120,2,3.2.2021,119.9934244
396,"['high', 3, 60, False]",FALSE,3,white,135,right,up,high,white_high_135_up,black_high_45_up,60,right,0.2485709,1,120,2,3.2.2021,119.9934244
397,"['low', 8, 2, True]",TRUE,8,white,135,right,up,low,white_low_135_up,black_low_45_up,2,right,0.2139127,1,120,2,3.2.2021,119.9934244
398,"['high', 16, 2, True]",TRUE,16,black,135,left,down,high,black_high_135_down,white_high_45_down,2,left,0.6087966,1,120,2,3.2.2021,119.9934244
399,"['high', 8, 2, True]",TRUE,8,white,135,right,down,high,white_high_135_down,black_high_45_down,2,right,0.1665823,1,120,2,3.2.2021,119.9934244
400,"['low', 8, 2, True]",TRUE,8,white,135,right,down,low,white_low_135_down,black_low_45_down,2,right,0.1327155,1,120,2,3.2.2021,119.9934244
401,"['high', 3, 2, True]",TRUE,3,black,45,right,down,high,black_high_45_down,white_high_135_down,2,left,0.4295771,0,120,2,3.2.2021,119.9934244
402,"['low', 1, 2, False]",FALSE,1,black,45,right,up,low,black_low_45_up,white_low_135_up,2,right,1.7162091,1,120,2,3.2.2021,119.9934244
403,"['low', 2, 2, True]",TRUE,2,black,45,right,up,low,black_low_45_up,white_low_135_up,2,right,0.3082622,1,120,2,3.2.2021,119.9934244
404,"['low', 4, 2, True]",TRUE,4,white,135,right,up,low,white_low_135_up,black_low_45_up,2,right,0.1113668,1,120,2,3.2.2021,119.9934244
405,"['high', 8, 2, True]",TRUE,8,white,135,right,up,high,white_high_135_up,black_high_45_up,2,right,0.0823908,1,120,2,3.2.2021,119.9934244
406,"['high', 32, 2, True]",TRUE,32,black,45,right,up,high,black_high_45_up,white_high_135_up,2,right,0.2975958,1,120,2,3.2.2021,119.9934244
407,"['low', 2, 2, True]",TRUE,2,white,135,right,down,low,white_low_135_down,black_low_45_down,2,right,0.1957689,1,120,2,3.2.2021,119.9934244
408,"['high', 1, 2, True]",TRUE,1,white,45,left,down,high,white_high_45_down,black_high_135_down,2,left,0.3895765,1,120,2,3.2.2021,119.9934244
409,"['high', 64, 2, True]",TRUE,64,black,135,left,up,high,black_high_135_up,white_high_45_up,2,left,0.1811873,1,120,2,3.2.2021,119.9934244
410,"['high', 2, 2, True]",TRUE,2,white,135,right,up,high,white_high_135_up,black_high_45_up,2,right,0.4340894,1,120,2,3.2.2021,119.9934244
411,"['high', 8, 2, True]",TRUE,8,white,45,left,down,high,white_high_45_down,black_high_135_down,2,left,0.2338596,1,120,2,3.2.2021,119.9934244
412,"['low', 3, 2, True]",TRUE,3,black,45,right,up,low,black_low_45_up,white_low_135_up,2,right,0.633897,1,120,2,3.2.2021,119.9934244
413,"['high', 64, 2, True]",TRUE,64,white,135,right,down,high,white_high_135_down,black_high_45_down,2,right,0.0506106,1,120,2,3.2.2021,119.9934244
414,"['low', 8, 2, True]",TRUE,8,black,45,right,down,low,black_low_45_down,white_low_135_down,2,right,0.4750588,1,120,2,3.2.2021,119.9934244
415,"['low', 64, 2, True]",TRUE,64,white,45,left,down,low,white_low_45_down,black_low_135_down,2,left,0.0790221,1,120,2,3.2.2021,119.9934244
416,"['low', 2, 2, True]",TRUE,2,black,135,left,up,low,black_low_135_up,white_low_45_up,2,right,1.2946913,0,120,2,3.2.2021,119.9934244
417,"['low', 3, 2, True]",TRUE,3,white,45,left,down,low,white_low_45_down,black_low_135_down,2,left,0.3742668,1,120,2,3.2.2021,119.9934244
418,"['low', 1, 2, True]",TRUE,1,black,45,right,up,low,black_low_45_up,white_low_135_up,2,right,1.3415529,1,120,2,3.2.2021,119.9934244
419,"['high', 64, 2, True]",TRUE,64,black,45,right,down,high,black_high_45_down,white_high_135_down,2,right,0.2489103,1,120,2,3.2.2021,119.9934244
420,"['low', 4, 2, True]",TRUE,4,black,135,left,down,low,black_low_135_down,white_low_45_down,2,left,0.0565684,1,120,2,3.2.2021,119.9934244
421,"['low', 4, 2, True]",TRUE,4,white,45,left,down,low,white_low_45_down,black_low_135_down,2,left,0.2176439,1,120,2,3.2.2021,119.9934244
422,"['low', 1, 2, True]",TRUE,1,black,45,right,up,low,black_low_45_up,white_low_135_up,2,right,0.7982603,1,120,2,3.2.2021,119.9934244
423,"['low', 8, 2, True]",TRUE,8,black,135,left,up,low,black_low_135_up,white_low_45_up,2,left,0.2209463,1,120,2,3.2.2021,119.9934244
424,"['low', 2, 2, True]",TRUE,2,black,135,left,down,low,black_low_135_down,white_low_45_down,2,right,0.1821938,0,120,2,3.2.2021,119.9934244
425,"['low', 1, 2, True]",TRUE,1,white,135,right,up,low,white_low_135_up,black_low_45_up,2,right,0.7324381,1,120,2,3.2.2021,119.9934244
426,"['high', 4, 2, True]",TRUE,4,black,45,right,down,high,black_high_45_down,white_high_135_down,2,left,0.8037291,0,120,2,3.2.2021,119.9934244
427,"['high', 1, 2, False]",FALSE,1,black,45,right,down,high,black_high_45_down,white_high_135_down,2,right,0.8068327,1,120,2,3.2.2021,119.9934244
428,"['high', 16, 2, True]",TRUE,16,black,135,left,up,high,black_high_135_up,white_high_45_up,2,left,0.1283631,1,120,2,3.2.2021,119.9934244
429,"['low', 4, 2, True]",TRUE,4,white,135,right,down,low,white_low_135_down,black_low_45_down,2,right,0.0345412,1,120,2,3.2.2021,119.9934244
430,"['high', 32, 2, True]",TRUE,32,white,45,left,down,high,white_high_45_down,black_high_135_down,2,left,0.0440463,1,120,2,3.2.2021,119.9934244
431,"['low', 2, 2, True]",TRUE,2,black,135,left,down,low,black_low_135_down,white_low_45_down,2,right,1.35917,0,120,2,3.2.2021,119.9934244
432,"['high', 1, 2, False]",FALSE,1,black,135,left,down,high,black_high_135_down,white_high_45_down,2,left,0.8843037,1,120,2,3.2.2021,119.9934244
433,"['low', 64, 2, True]",TRUE,64,black,45,right,down,low,black_low_45_down,white_low_135_down,2,right,0.1602575,1,120,2,3.2.2021,119.9934244
434,"['low', 3, 2, True]",TRUE,3,black,135,left,up,low,black_low_135_up,white_low_45_up,2,left,1.3260366,1,120,2,3.2.2021,119.9934244
435,"['low', 32, 2, True]",TRUE,32,black,45,right,up,low,black_low_45_up,white_low_135_up,2,right,0.049,1,120,2,3.2.2021,119.9934244
436,"['low', 1, 2, False]",FALSE,1,black,45,right,up,low,black_low_45_up,white_low_135_up,2,right,1.261932,1,120,2,3.2.2021,119.9934244
437,"['low', 64, 2, True]",TRUE,64,black,135,left,up,low,black_low_135_up,white_low_45_up,2,left,0.0862588,1,120,2,3.2.2021,119.9934244
438,"['high', 8, 2, True]",TRUE,8,black,135,left,up,high,black_high_135_up,white_high_45_up,2,left,1.5609787,1,120,2,3.2.2021,119.9934244
439,"['high', 16, 2, True]",TRUE,16,black,135,left,down,high,black_high_135_down,white_high_45_down,2,left,0.2391017,1,120,2,3.2.2021,119.9934244
440,"['low', 4, 2, True]",TRUE,4,black,45,right,down,low,black_low_45_down,white_low_135_down,2,right,0.2173881,1,120,2,3.2.2021,119.9934244
441,"['low', 1, 2, True]",TRUE,1,white,135,right,down,low,white_low_135_down,black_low_45_down,2,right,0.9076152,1,120,2,3.2.2021,119.9934244
442,"['low', 1, 2, True]",TRUE,1,white,135,right,down,low,white_low_135_down,black_low_45_down,2,right,0.617837,1,120,2,3.2.2021,119.9934244
443,"['high', 1, 2, False]",FALSE,1,white,45,left,up,high,white_high_45_up,black_high_135_up,2,right,2.5432373,0,120,2,3.2.2021,119.9934244
444,"['high', 4, 2, True]",TRUE,4,white,135,right,down,high,white_high_135_down,black_high_45_down,2,left,1.7491093,0,120,2,3.2.2021,119.9934244
445,"['high', 4, 2, True]",TRUE,4,white,45,left,up,high,white_high_45_up,black_high_135_up,2,right,0.7377524,0,120,2,3.2.2021,119.9934244
446,"['low', 64, 2, True]",TRUE,64,black,45,right,down,low,black_low_45_down,white_low_135_down,2,right,0.0597077,1,120,2,3.2.2021,119.9934244
447,"['high', 32, 2, True]",TRUE,32,white,45,left,down,high,white_high_45_down,black_high_135_down,2,left,0.2014805,1,120,2,3.2.2021,119.9934244
448,"['high', 3, 2, True]",TRUE,3,white,45,left,down,high,white_high_45_down,black_high_135_down,2,left,0.2391766,1,120,2,3.2.2021,119.9934244
449,"['low', 2, 2, True]",TRUE,2,black,135,left,down,low,black_low_135_down,white_low_45_down,2,right,0.183126,0,120,2,3.2.2021,119.9934244
450,"['high', 3, 2, True]",TRUE,3,white,45,left,up,high,white_high_45_up,black_high_135_up,2,left,2.1732579,1,120,2,3.2.2021,119.9934244
451,"['low', 3, 2, True]",TRUE,3,white,45,left,down,low,white_low_45_down,black_low_135_down,2,left,0.2779746,1,120,2,3.2.2021,119.9934244
452,"['high', 4, 2, True]",TRUE,4,white,135,right,up,high,white_high_135_up,black_high_45_up,2,left,0.7413272,0,120,2,3.2.2021,119.9934244
453,"['low', 3, 2, True]",TRUE,3,white,45,left,down,low,white_low_45_down,black_low_135_down,2,left,0.1828582,1,120,2,3.2.2021,119.9934244
454,"['high', 64, 2, True]",TRUE,64,black,135,left,down,high,black_high_135_down,white_high_45_down,2,left,0.2318117,1,120,2,3.2.2021,119.9934244
455,"['low', 64, 2, True]",TRUE,64,black,135,left,up,low,black_low_135_up,white_low_45_up,2,left,0.0465872,1,120,2,3.2.2021,119.9934244
456,"['low', 64, 2, True]",TRUE,64,black,135,left,up,low,black_low_135_up,white_low_45_up,2,left,0.3822913,1,120,2,3.2.2021,119.9934244
457,"['low', 1, 2, False]",FALSE,1,white,135,right,up,low,white_low_135_up,black_low_45_up,2,right,0.4932584,1,120,2,3.2.2021,119.9934244
458,"['low', 8, 2, True]",TRUE,8,black,45,right,up,low,black_low_45_up,white_low_135_up,2,right,0.1508046,1,120,2,3.2.2021,119.9934244
459,"['high', 32, 2, True]",TRUE,32,black,135,left,up,high,black_high_135_up,white_high_45_up,2,left,0.4322303,1,120,2,3.2.2021,119.9934244
460,"['high', 3, 2, True]",TRUE,3,white,135,right,down,high,white_high_135_down,black_high_45_down,2,left,0.5508146,0,120,2,3.2.2021,119.9934244
461,"['high', 1, 2, False]",FALSE,1,black,135,left,down,high,black_high_135_down,white_high_45_down,2,left,0.8163781,1,120,2,3.2.2021,119.9934244
462,"['high', 2, 2, True]",TRUE,2,black,45,right,down,high,black_high_45_down,white_high_135_down,2,left,0.5289255,0,120,2,3.2.2021,119.9934244
463,"['high', 3, 2, True]",TRUE,3,black,135,left,down,high,black_high_135_down,white_high_45_down,2,left,0.6580722,1,120,2,3.2.2021,119.9934244
464,"['low', 3, 2, True]",TRUE,3,white,135,right,down,low,white_low_135_down,black_low_45_down,2,right,0.1814137,1,120,2,3.2.2021,119.9934244
465,"['high', 1, 2, False]",FALSE,1,white,45,left,down,high,white_high_45_down,black_high_135_down,2,left,0.4158612,1,120,2,3.2.2021,119.9934244
466,"['low', 64, 2, True]",TRUE,64,black,135,left,up,low,black_low_135_up,white_low_45_up,2,left,0.0103279,1,120,2,3.2.2021,119.9934244
467,"['high', 2, 2, True]",TRUE,2,white,135,right,down,high,white_high_135_down,black_high_45_down,2,left,0.5463511,0,120,2,3.2.2021,119.9934244
468,"['high', 4, 2, True]",TRUE,4,black,45,right,up,high,black_high_45_up,white_high_135_up,2,right,1.6606674,1,120,2,3.2.2021,119.9934244
469,"['high', 1, 2, False]",FALSE,1,black,45,right,down,high,black_high_45_down,white_high_135_down,2,right,0.6041813,1,120,2,3.2.2021,119.9934244
470,"['high', 3, 60, False]",FALSE,3,black,45,right,up,high,black_high_45_up,white_high_135_up,60,right,0.2713522,1,120,2,3.2.2021,119.9934244
471,"['high', 2, 2, True]",TRUE,2,white,135,right,up,high,white_high_135_up,black_high_45_up,2,right,1.1089445,1,120,2,3.2.2021,119.9934244
472,"['high', 3, 60, False]",FALSE,3,black,135,left,down,high,black_high_135_down,white_high_45_down,60,left,0.2680055,1,120,2,3.2.2021,119.9934244
473,"['high', 16, 2, True]",TRUE,16,white,45,left,up,high,white_high_45_up,black_high_135_up,2,left,0.2028926,1,120,2,3.2.2021,119.9934244
474,"['low', 16, 2, True]",TRUE,16,black,45,right,up,low,black_low_45_up,white_low_135_up,2,right,0.4239358,1,120,2,3.2.2021,119.9934244
475,"['low', 64, 2, True]",TRUE,64,black,135,left,down,low,black_low_135_down,white_low_45_down,2,left,0.3821613,1,120,2,3.2.2021,119.9934244
476,"['high', 32, 2, True]",TRUE,32,black,45,right,down,high,black_high_45_down,white_high_135_down,2,right,0.2178332,1,120,2,3.2.2021,119.9934244
477,"['low', 4, 2, True]",TRUE,4,white,45,left,down,low,white_low_45_down,black_low_135_down,2,left,0.4184086,1,120,2,3.2.2021,119.9934244
478,"['high', 8, 2, True]",TRUE,8,white,135,right,down,high,white_high_135_down,black_high_45_down,2,right,0.4097468,1,120,2,3.2.2021,119.9934244
479,"['high', 8, 2, True]",TRUE,8,white,45,left,down,high,white_high_45_down,black_high_135_down,2,left,0.364225,1,120,2,3.2.2021,119.9934244
480,"['high', 4, 2, True]",TRUE,4,white,45,left,up,high,white_high_45_up,black_high_135_up,2,left,1.2421551,1,120,2,3.2.2021,119.9934244
481,"['high', 32, 2, True]",TRUE,32,white,135,right,up,high,white_high_135_up,black_high_45_up,2,right,0.264541,1,120,2,3.2.2021,119.9934244
482,"['low', 1, 2, True]",TRUE,1,black,45,right,down,low,black_low_45_down,white_low_135_down,2,left,2.2087359,0,120,2,3.2.2021,119.9934244
483,"['low', 4, 2, True]",TRUE,4,white,135,right,up,low,white_low_135_up,black_low_45_up,2,right,0.2494206,1,120,2,3.2.2021,119.9934244
484,"['low', 32, 2, True]",TRUE,32,black,45,right,up,low,black_low_45_up,white_low_135_up,2,right,0.0889992,1,120,2,3.2.2021,119.9934244
485,"['low', 4, 2, True]",TRUE,4,black,135,left,up,low,black_low_135_up,white_low_45_up,2,left,0.3156473,1,120,2,3.2.2021,119.9934244
486,"['high', 1, 2, False]",FALSE,1,black,45,right,down,high,black_high_45_down,white_high_135_down,2,right,1.0694611,1,120,2,3.2.2021,119.9934244
487,"['low', 32, 2, True]",TRUE,32,white,45,left,up,low,white_low_45_up,black_low_135_up,2,left,0.0334213,1,120,2,3.2.2021,119.9934244
488,"['high', 4, 2, True]",TRUE,4,black,135,left,down,high,black_high_135_down,white_high_45_down,2,right,0.9624472,0,120,2,3.2.2021,119.9934244
489,"['low', 3, 2, True]",TRUE,3,white,45,left,up,low,white_low_45_up,black_low_135_up,2,left,0.3997764,1,120,2,3.2.2021,119.9934244
490,"['high', 8, 2, True]",TRUE,8,white,45,left,up,high,white_high_45_up,black_high_135_up,2,left,1.1433693,1,120,2,3.2.2021,119.9934244
491,"['low', 32, 2, True]",TRUE,32,white,135,right,down,low,white_low_135_down,black_low_45_down,2,right,0.0175637,1,120,2,3.2.2021,119.9934244
492,"['low', 16, 2, True]",TRUE,16,black,45,right,up,low,black_low_45_up,white_low_135_up,2,right,0.2091969,1,120,2,3.2.2021,119.9934244
493,"['low', 1, 2, False]",FALSE,1,white,45,left,up,low,white_low_45_up,black_low_135_up,2,left,0.498069,1,120,2,3.2.2021,119.9934244
494,"['low', 1, 2, False]",FALSE,1,black,135,left,down,low,black_low_135_down,white_low_45_down,2,left,1.0405152,1,120,2,3.2.2021,119.9934244
495,"['high', 8, 2, True]",TRUE,8,black,45,right,down,high,black_high_45_down,white_high_135_down,2,right,2.178782,1,120,2,3.2.2021,119.9934244
496,"['low', 1, 2, True]",TRUE,1,black,45,right,up,low,black_low_45_up,white_low_135_up,2,right,1.0984304,1,120,2,3.2.2021,119.9934244
497,"['low', 1, 2, False]",FALSE,1,white,135,right,down,low,white_low_135_down,black_low_45_down,2,right,0.4378095,1,120,2,3.2.2021,119.9934244
498,"['high', 1, 2, True]",TRUE,1,white,45,left,up,high,white_high_45_up,black_high_135_up,2,left,0.9846897,1,120,2,3.2.2021,119.9934244
499,"['low', 8, 2, True]",TRUE,8,white,45,left,down,low,white_low_45_down,black_low_135_down,2,left,0.702766,1,120,2,3.2.2021,119.9934244
500,"['high', 8, 2, True]",TRUE,8,black,45,right,down,high,black_high_45_down,white_high_135_down,2,right,0.2107041,1,120,2,3.2.2021,119.9934244
501,"['low', 16, 2, True]",TRUE,16,white,45,left,down,low,white_low_45_down,black_low_135_down,2,left,0.2269028,1,120,2,3.2.2021,119.9934244
502,"['low', 1, 2, False]",FALSE,1,white,135,right,down,low,white_low_135_down,black_low_45_down,2,right,0.4908804,1,120,2,3.2.2021,119.9934244
503,"['low', 8, 2, True]",TRUE,8,white,135,right,up,low,white_low_135_up,black_low_45_up,2,right,0.0692675,1,120,2,3.2.2021,119.9934244
504,"['high', 2, 2, True]",TRUE,2,black,135,left,up,high,black_high_135_up,white_high_45_up,2,right,0.8679474,0,120,2,3.2.2021,119.9934244
505,"['low', 8, 2, True]",TRUE,8,white,45,left,down,low,white_low_45_down,black_low_135_down,2,left,0.0318905,1,120,2,3.2.2021,119.9934244
506,"['low', 4, 2, True]",TRUE,4,white,45,left,down,low,white_low_45_down,black_low_135_down,2,left,0.2350495,1,120,2,3.2.2021,119.9934244
507,"['high', 1, 2, False]",FALSE,1,black,45,right,up,high,black_high_45_up,white_high_135_up,2,right,1.229197,1,120,2,3.2.2021,119.9934244
508,"['low', 1, 2, False]",FALSE,1,black,135,left,up,low,black_low_135_up,white_low_45_up,2,left,0.9821538,1,120,2,3.2.2021,119.9934244
509,"['low', 8, 2, True]",TRUE,8,black,135,left,up,low,black_low_135_up,white_low_45_up,2,left,0.1731288,1,120,2,3.2.2021,119.9934244
510,"['high', 4, 2, True]",TRUE,4,black,135,left,down,high,black_high_135_down,white_high_45_down,2,right,1.2958122,0,120,2,3.2.2021,119.9934244
511,"['high', 1, 2, False]",FALSE,1,black,45,right,down,high,black_high_45_down,white_high_135_down,2,right,0.5790067,1,120,2,3.2.2021,119.9934244
512,"['low', 4, 2, True]",TRUE,4,white,135,right,down,low,white_low_135_down,black_low_45_down,2,right,0.1068851,1,120,2,3.2.2021,119.9934244
513,"['low', 8, 2, True]",TRUE,8,white,45,left,down,low,white_low_45_down,black_low_135_down,2,left,0.0606531,1,120,2,3.2.2021,119.9934244
514,"['low', 8, 2, True]",TRUE,8,white,135,right,down,low,white_low_135_down,black_low_45_down,2,right,0.4187897,1,120,2,3.2.2021,119.9934244
515,"['low', 8, 2, True]",TRUE,8,black,45,right,up,low,black_low_45_up,white_low_135_up,2,right,0.4252325,1,120,2,3.2.2021,119.9934244
516,"['low', 32, 2, True]",TRUE,32,white,135,right,up,low,white_low_135_up,black_low_45_up,2,right,0.0367754,1,120,2,3.2.2021,119.9934244
517,"['low', 3, 2, True]",TRUE,3,black,135,left,up,low,black_low_135_up,white_low_45_up,2,left,0.3119328,1,120,2,3.2.2021,119.9934244
518,"['high', 8, 2, True]",TRUE,8,black,135,left,up,high,black_high_135_up,white_high_45_up,2,right,2.0703709,0,120,2,3.2.2021,119.9934244
519,"['low', 2, 2, True]",TRUE,2,black,135,left,down,low,black_low_135_down,white_low_45_down,2,left,0.7520883,1,120,2,3.2.2021,119.9934244
520,"['high', 4, 2, True]",TRUE,4,white,135,right,down,high,white_high_135_down,black_high_45_down,2,right,0.3670208,1,120,2,3.2.2021,119.9934244
521,"['low', 16, 2, True]",TRUE,16,white,45,left,up,low,white_low_45_up,black_low_135_up,2,left,0.3247739,1,120,2,3.2.2021,119.9934244
522,"['high', 3, 60, False]",FALSE,3,white,45,left,up,high,white_high_45_up,black_high_135_up,60,left,0.6800287,1,120,2,3.2.2021,119.9934244
523,"['low', 2, 2, True]",TRUE,2,white,135,right,up,low,white_low_135_up,black_low_45_up,2,right,1.2190422,1,120,2,3.2.2021,119.9934244
524,"['low', 1, 2, True]",TRUE,1,black,45,right,up,low,black_low_45_up,white_low_135_up,2,right,0.6973388,1,120,2,3.2.2021,119.9934244
525,"['low', 2, 2, True]",TRUE,2,white,135,right,up,low,white_low_135_up,black_low_45_up,2,right,0.5851452,1,120,2,3.2.2021,119.9934244
526,"['low', 4, 2, True]",TRUE,4,white,135,right,down,low,white_low_135_down,black_low_45_down,2,right,1.2312668,1,120,2,3.2.2021,119.9934244
527,"['low', 1, 2, False]",FALSE,1,white,135,right,down,low,white_low_135_down,black_low_45_down,2,right,0.7786871,1,120,2,3.2.2021,119.9934244
528,"['low', 2, 2, True]",TRUE,2,black,45,right,down,low,black_low_45_down,white_low_135_down,2,right,0.2819475,1,120,2,3.2.2021,119.9934244
529,"['low', 1, 2, True]",TRUE,1,black,135,left,down,low,black_low_135_down,white_low_45_down,2,right,0.2584244,0,120,2,3.2.2021,119.9934244
530,"['low', 3, 2, True]",TRUE,3,black,45,right,up,low,black_low_45_up,white_low_135_up,2,right,0.9551904,1,120,2,3.2.2021,119.9934244
531,"['high', 64, 2, True]",TRUE,64,white,135,right,down,high,white_high_135_down,black_high_45_down,2,right,0.2214323,1,120,2,3.2.2021,119.9934244
532,"['high', 1, 2, False]",FALSE,1,white,135,right,up,high,white_high_135_up,black_high_45_up,2,left,2.5429209,0,120,2,3.2.2021,119.9934244
533,"['high', 16, 2, True]",TRUE,16,white,135,right,up,high,white_high_135_up,black_high_45_up,2,right,0.2005215,1,120,2,3.2.2021,119.9934244
534,"['high', 4, 2, True]",TRUE,4,white,45,left,up,high,white_high_45_up,black_high_135_up,2,right,0.5591871,0,120,2,3.2.2021,119.9934244
535,"['high', 4, 2, True]",TRUE,4,white,45,left,down,high,white_high_45_down,black_high_135_down,2,right,0.8099662,0,120,2,3.2.2021,119.9934244
536,"['low', 1, 2, True]",TRUE,1,black,135,left,up,low,black_low_135_up,white_low_45_up,2,left,0.6041611,1,120,2,3.2.2021,119.9934244
537,"['low', 4, 2, True]",TRUE,4,black,135,left,down,low,black_low_135_down,white_low_45_down,2,left,0.3219247,1,120,2,3.2.2021,119.9934244
538,"['high', 32, 2, True]",TRUE,32,white,135,right,up,high,white_high_135_up,black_high_45_up,2,right,0.3648886,1,120,2,3.2.2021,119.9934244
539,"['high', 32, 2, True]",TRUE,32,white,135,right,down,high,white_high_135_down,black_high_45_down,2,right,0.0729697,1,120,2,3.2.2021,119.9934244
540,"['high', 8, 2, True]",TRUE,8,white,45,left,down,high,white_high_45_down,black_high_135_down,2,left,0.2193298,1,120,2,3.2.2021,119.9934244
541,"['high', 16, 2, True]",TRUE,16,white,45,left,up,high,white_high_45_up,black_high_135_up,2,left,0.3488811,1,120,2,3.2.2021,119.9934244
542,"['high', 16, 2, True]",TRUE,16,white,135,right,up,high,white_high_135_up,black_high_45_up,2,right,0.046258,1,120,2,3.2.2021,119.9934244
543,"['low', 1, 2, False]",FALSE,1,black,45,right,down,low,black_low_45_down,white_low_135_down,2,right,1.3281608,1,120,2,3.2.2021,119.9934244
544,"['high', 64, 2, True]",TRUE,64,white,135,right,down,high,white_high_135_down,black_high_45_down,2,right,0.2232545,1,120,2,3.2.2021,119.9934244
545,"['low', 3, 2, True]",TRUE,3,black,135,left,up,low,black_low_135_up,white_low_45_up,2,right,1.4352182,0,120,2,3.2.2021,119.9934244
546,"['low', 8, 2, True]",TRUE,8,black,135,left,up,low,black_low_135_up,white_low_45_up,2,left,0.298539,1,120,2,3.2.2021,119.9934244
547,"['high', 1, 2, True]",TRUE,1,white,45,left,up,high,white_high_45_up,black_high_135_up,2,left,1.5322037,1,120,2,3.2.2021,119.9934244
548,"['high', 64, 2, True]",TRUE,64,black,135,left,down,high,black_high_135_down,white_high_45_down,2,left,0.279937,1,120,2,3.2.2021,119.9934244
549,"['high', 64, 2, True]",TRUE,64,black,135,left,up,high,black_high_135_up,white_high_45_up,2,left,0.2912159,1,120,2,3.2.2021,119.9934244
550,"['high', 8, 2, True]",TRUE,8,black,135,left,up,high,black_high_135_up,white_high_45_up,2,left,0.6590349,1,120,2,3.2.2021,119.9934244
551,"['low', 3, 2, True]",TRUE,3,black,135,left,down,low,black_low_135_down,white_low_45_down,2,left,0.3470445,1,120,2,3.2.2021,119.9934244
552,"['high', 4, 2, True]",TRUE,4,black,45,right,up,high,black_high_45_up,white_high_135_up,2,left,2.5261647,0,120,2,3.2.2021,119.9934244
553,"['low', 32, 2, True]",TRUE,32,white,45,left,up,low,white_low_45_up,black_low_135_up,2,left,0.3032826,1,120,2,3.2.2021,119.9934244
554,"['low', 1, 2, False]",FALSE,1,white,45,left,up,low,white_low_45_up,black_low_135_up,2,left,1.3218943,1,120,2,3.2.2021,119.9934244
555,"['high', 3, 60, False]",FALSE,3,black,45,right,up,high,black_high_45_up,white_high_135_up,60,right,0.3968455,1,120,2,3.2.2021,119.9934244
556,"['high', 16, 2, True]",TRUE,16,black,135,left,down,high,black_high_135_down,white_high_45_down,2,left,0.1663725,1,120,2,3.2.2021,119.9934244
557,"['low', 2, 2, True]",TRUE,2,white,45,left,up,low,white_low_45_up,black_low_135_up,2,right,1.2877365,0,120,2,3.2.2021,119.9934244
558,"['high', 16, 2, True]",TRUE,16,white,135,right,up,high,white_high_135_up,black_high_45_up,2,right,0.4864733,1,120,2,3.2.2021,119.9934244
559,"['high', 8, 2, True]",TRUE,8,white,45,left,up,high,white_high_45_up,black_high_135_up,2,left,0.2879341,1,120,2,3.2.2021,119.9934244
560,"['high', 32, 2, True]",TRUE,32,black,45,right,down,high,black_high_45_down,white_high_135_down,2,right,0.3035022,1,120,2,3.2.2021,119.9934244
561,"['low', 2, 2, True]",TRUE,2,white,135,right,down,low,white_low_135_down,black_low_45_down,2,left,0.6046895,0,120,2,3.2.2021,119.9934244
562,"['high', 1, 2, False]",FALSE,1,black,135,left,down,high,black_high_135_down,white_high_45_down,2,right,2.2222725,0,120,2,3.2.2021,119.9934244
563,"['high', 8, 2, True]",TRUE,8,black,135,left,up,high,black_high_135_up,white_high_45_up,2,left,0.3057686,1,120,2,3.2.2021,119.9934244
564,"['low', 64, 2, True]",TRUE,64,white,135,right,down,low,white_low_135_down,black_low_45_down,2,right,0.2379586,1,120,2,3.2.2021,119.9934244
565,"['high', 32, 2, True]",TRUE,32,black,135,left,down,high,black_high_135_down,white_high_45_down,2,left,0.2200659,1,120,2,3.2.2021,119.9934244
566,"['high', 16, 2, True]",TRUE,16,black,135,left,down,high,black_high_135_down,white_high_45_down,2,left,0.2065711,1,120,2,3.2.2021,119.9934244
567,"['high', 8, 2, True]",TRUE,8,black,45,right,up,high,black_high_45_up,white_high_135_up,2,right,0.9902608,1,120,2,3.2.2021,119.9934244
568,"['low', 1, 2, True]",TRUE,1,white,45,left,down,low,white_low_45_down,black_low_135_down,2,right,1.0704352,0,120,2,3.2.2021,119.9934244
569,"['low', 8, 2, True]",TRUE,8,white,45,left,up,low,white_low_45_up,black_low_135_up,2,left,0.3078666,1,120,2,3.2.2021,119.9934244
570,"['high', 64, 2, True]",TRUE,64,white,45,left,down,high,white_high_45_down,black_high_135_down,2,left,0.2084749,1,120,2,3.2.2021,119.9934244
571,"['low', 1, 2, True]",TRUE,1,black,135,left,down,low,black_low_135_down,white_low_45_down,2,right,0.85972,0,120,2,3.2.2021,119.9934244
572,"['high', 1, 2, False]",FALSE,1,white,45,left,up,high,white_high_45_up,black_high_135_up,2,left,2.3347176,1,120,2,3.2.2021,119.9934244
573,"['low', 2, 2, True]",TRUE,2,white,135,right,down,low,white_low_135_down,black_low_45_down,2,right,0.3380112,1,120,2,3.2.2021,119.9934244
574,"['low', 8, 2, True]",TRUE,8,white,135,right,down,low,white_low_135_down,black_low_45_down,2,right,0.1955664,1,120,2,3.2.2021,119.9934244
575,"['high', 3, 2, True]",TRUE,3,white,135,right,down,high,white_high_135_down,black_high_45_down,2,right,0.7107756,1,120,2,3.2.2021,119.9934244
576,"['low', 4, 2, True]",TRUE,4,black,135,left,up,low,black_low_135_up,white_low_45_up,2,left,0.7574429,1,120,2,3.2.2021,119.9934244
577,"['high', 4, 2, True]",TRUE,4,white,45,left,down,high,white_high_45_down,black_high_135_down,2,left,0.5207233,1,120,2,3.2.2021,119.9934244
578,"['high', 64, 2, True]",TRUE,64,black,45,right,down,high,black_high_45_down,white_high_135_down,2,right,0.2417803,1,120,2,3.2.2021,119.9934244
579,"['low', 32, 2, True]",TRUE,32,black,45,right,up,low,black_low_45_up,white_low_135_up,2,right,0.0838718,1,120,2,3.2.2021,119.9934244
580,"['low', 3, 2, True]",TRUE,3,white,45,left,down,low,white_low_45_down,black_low_135_down,2,left,0.1640926,1,120,2,3.2.2021,119.9934244
581,"['high', 64, 2, True]",TRUE,64,white,135,right,up,high,white_high_135_up,black_high_45_up,2,right,0.0909453,1,120,2,3.2.2021,119.9934244
582,"['high', 8, 2, True]",TRUE,8,white,45,left,up,high,white_high_45_up,black_high_135_up,2,left,0.412751,1,120,2,3.2.2021,119.9934244
583,"['low', 64, 2, True]",TRUE,64,black,45,right,down,low,black_low_45_down,white_low_135_down,2,right,0.7220321,1,120,2,3.2.2021,119.9934244
584,"['low', 32, 2, True]",TRUE,32,black,135,left,down,low,black_low_135_down,white_low_45_down,2,left,1.0195017,1,120,2,3.2.2021,119.9934244
585,"['high', 16, 2, True]",TRUE,16,black,45,right,down,high,black_high_45_down,white_high_135_down,2,right,0.4381072,1,120,2,3.2.2021,119.9934244
586,"['high', 3, 2, True]",TRUE,3,black,135,left,up,high,black_high_135_up,white_high_45_up,2,left,2.7451026,1,120,2,3.2.2021,119.9934244
587,"['low', 1, 2, False]",FALSE,1,white,45,left,down,low,white_low_45_down,black_low_135_down,2,left,3.1042258,1,120,2,3.2.2021,119.9934244
588,"['low', 64, 2, True]",TRUE,64,black,135,left,down,low,black_low_135_down,white_low_45_down,2,left,1.2063945,1,120,2,3.2.2021,119.9934244
589,"['high', 16, 2, True]",TRUE,16,white,45,left,up,high,white_high_45_up,black_high_135_up,2,left,0.2199788,1,120,2,3.2.2021,119.9934244
590,"['high', 1, 2, True]",TRUE,1,black,45,right,up,high,black_high_45_up,white_high_135_up,2,right,0.6612339,1,120,2,3.2.2021,119.9934244
591,"['high', 4, 2, True]",TRUE,4,black,45,right,down,high,black_high_45_down,white_high_135_down,2,left,0.9672111,0,120,2,3.2.2021,119.9934244
592,"['high', 8, 2, True]",TRUE,8,black,135,left,down,high,black_high_135_down,white_high_45_down,2,left,0.1803135,1,120,2,3.2.2021,119.9934244
593,"['high', 4, 2, True]",TRUE,4,black,135,left,down,high,black_high_135_down,white_high_45_down,2,left,0.4827912,1,120,2,3.2.2021,119.9934244
594,"['high', 64, 2, True]",TRUE,64,black,135,left,down,high,black_high_135_down,white_high_45_down,2,left,0.2290835,1,120,2,3.2.2021,119.9934244
595,"['low', 1, 2, False]",FALSE,1,black,45,right,up,low,black_low_45_up,white_low_135_up,2,right,1.9595038,1,120,2,3.2.2021,119.9934244
596,"['high', 8, 2, True]",TRUE,8,black,135,left,up,high,black_high_135_up,white_high_45_up,2,left,0.2016626,1,120,2,3.2.2021,119.9934244
597,"['low', 32, 2, True]",TRUE,32,white,135,right,up,low,white_low_135_up,black_low_45_up,2,right,0.0831947,1,120,2,3.2.2021,119.9934244
598,"['high', 64, 2, True]",TRUE,64,white,135,right,down,high,white_high_135_down,black_high_45_down,2,right,0.1742967,1,120,2,3.2.2021,119.9934244
599,"['low', 1, 2, False]",FALSE,1,white,135,right,up,low,white_low_135_up,black_low_45_up,2,right,0.8113715,1,120,2,3.2.2021,119.9934244
600,"['low', 64, 2, True]",TRUE,64,black,45,right,down,low,black_low_45_down,white_low_135_down,2,right,0.2917302,1,120,2,3.2.2021,119.9934244
601,"['low', 8, 2, True]",TRUE,8,black,45,right,up,low,black_low_45_up,white_low_135_up,2,right,0.327597,1,120,2,3.2.2021,119.9934244
602,"['high', 32, 2, True]",TRUE,32,black,135,left,down,high,black_high_135_down,white_high_45_down,2,left,0.2269136,1,120,2,3.2.2021,119.9934244
603,"['low', 3, 2, True]",TRUE,3,black,45,right,down,low,black_low_45_down,white_low_135_down,2,left,0.61306,0,120,2,3.2.2021,119.9934244
604,"['high', 16, 2, True]",TRUE,16,black,135,left,up,high,black_high_135_up,white_high_45_up,2,left,0.1183282,1,120,2,3.2.2021,119.9934244
605,"['low', 4, 2, True]",TRUE,4,white,135,right,down,low,white_low_135_down,black_low_45_down,2,right,0.149804,1,120,2,3.2.2021,119.9934244
606,"['low', 1, 2, False]",FALSE,1,white,135,right,down,low,white_low_135_down,black_low_45_down,2,right,0.3817196,1,120,2,3.2.2021,119.9934244
607,"['low', 1, 2, False]",FALSE,1,white,45,left,up,low,white_low_45_up,black_low_135_up,2,left,1.2050781,1,120,2,3.2.2021,119.9934244
608,"['low', 64, 2, True]",TRUE,64,black,45,right,down,low,black_low_45_down,white_low_135_down,2,right,0.2310661,1,120,2,3.2.2021,119.9934244
609,"['high', 1, 2, False]",FALSE,1,white,45,left,up,high,white_high_45_up,black_high_135_up,2,left,0.6584962,1,120,2,3.2.2021,119.9934244
610,"['low', 64, 2, True]",TRUE,64,black,135,left,down,low,black_low_135_down,white_low_45_down,2,left,0.1131234,1,120,2,3.2.2021,119.9934244
611,"['high', 1, 2, False]",FALSE,1,black,135,left,up,high,black_high_135_up,white_high_45_up,2,left,0.9161089,1,120,2,3.2.2021,119.9934244
612,"['high', 64, 2, True]",TRUE,64,white,45,left,up,high,white_high_45_up,black_high_135_up,2,left,0.1967459,1,120,2,3.2.2021,119.9934244
613,"['high', 32, 2, True]",TRUE,32,white,45,left,up,high,white_high_45_up,black_high_135_up,2,left,0.1605208,1,120,2,3.2.2021,119.9934244
614,"['low', 16, 2, True]",TRUE,16,white,135,right,up,low,white_low_135_up,black_low_45_up,2,right,0.187113,1,120,2,3.2.2021,119.9934244
615,"['low', 32, 2, True]",TRUE,32,black,45,right,up,low,black_low_45_up,white_low_135_up,2,right,0.0806496,1,120,2,3.2.2021,119.9934244
616,"['low', 64, 2, True]",TRUE,64,black,135,left,down,low,black_low_135_down,white_low_45_down,2,left,0.0973568,1,120,2,3.2.2021,119.9934244
617,"['high', 1, 2, True]",TRUE,1,black,135,left,up,high,black_high_135_up,white_high_45_up,2,left,0.9500605,1,120,2,3.2.2021,119.9934244
618,"['high', 64, 2, True]",TRUE,64,white,45,left,down,high,white_high_45_down,black_high_135_down,2,left,0.0810353,1,120,2,3.2.2021,119.9934244
619,"['high', 4, 2, True]",TRUE,4,white,45,left,down,high,white_high_45_down,black_high_135_down,2,left,0.5271336,1,120,2,3.2.2021,119.9934244
620,"['high', 3, 2, True]",TRUE,3,white,135,right,up,high,white_high_135_up,black_high_45_up,2,left,1.2768559,0,120,2,3.2.2021,119.9934244
621,"['low', 3, 2, True]",TRUE,3,white,45,left,up,low,white_low_45_up,black_low_135_up,2,left,0.8194847,1,120,2,3.2.2021,119.9934244
622,"['low', 1, 2, False]",FALSE,1,white,45,left,up,low,white_low_45_up,black_low_135_up,2,left,0.3764171,1,120,2,3.2.2021,119.9934244
623,"['high', 1, 2, False]",FALSE,1,white,45,left,down,high,white_high_45_down,black_high_135_down,2,left,0.4126495,1,120,2,3.2.2021,119.9934244
624,"['low', 3, 2, True]",TRUE,3,black,45,right,down,low,black_low_45_down,white_low_135_down,2,left,0.563608,0,120,2,3.2.2021,119.9934244
625,"['high', 16, 2, True]",TRUE,16,black,45,right,up,high,black_high_45_up,white_high_135_up,2,right,0.1328549,1,120,2,3.2.2021,119.9934244
626,"['high', 1, 2, False]",FALSE,1,black,45,right,down,high,black_high_45_down,white_high_135_down,2,right,0.8283557,1,120,2,3.2.2021,119.9934244
627,"['low', 1, 2, False]",FALSE,1,white,135,right,up,low,white_low_135_up,black_low_45_up,2,right,2.2698398,1,120,2,3.2.2021,119.9934244
628,"['low', 1, 2, True]",TRUE,1,black,135,left,up,low,black_low_135_up,white_low_45_up,2,left,0.6184089,1,120,2,3.2.2021,119.9934244
629,"['low', 2, 2, True]",TRUE,2,black,45,right,up,low,black_low_45_up,white_low_135_up,2,right,0.1052064,1,120,2,3.2.2021,119.9934244
630,"['high', 16, 2, True]",TRUE,16,black,45,right,down,high,black_high_45_down,white_high_135_down,2,right,0.0463448,1,120,2,3.2.2021,119.9934244
631,"['high', 2, 2, True]",TRUE,2,black,45,right,up,high,black_high_45_up,white_high_135_up,2,left,0.4702561,0,120,2,3.2.2021,119.9934244
632,"['high', 2, 2, True]",TRUE,2,black,135,left,up,high,black_high_135_up,white_high_45_up,2,left,0.290525,1,120,2,3.2.2021,119.9934244
633,"['high', 8, 2, True]",TRUE,8,black,45,right,down,high,black_high_45_down,white_high_135_down,2,right,2.0700994,1,120,2,3.2.2021,119.9934244
634,"['low', 8, 2, True]",TRUE,8,black,45,right,down,low,black_low_45_down,white_low_135_down,2,left,0.311548,0,120,2,3.2.2021,119.9934244
635,"['high', 4, 2, True]",TRUE,4,white,135,right,up,high,white_high_135_up,black_high_45_up,2,right,0.9394257,1,120,2,3.2.2021,119.9934244
636,"['high', 64, 2, True]",TRUE,64,black,45,right,down,high,black_high_45_down,white_high_135_down,2,right,0.1800711,1,120,2,3.2.2021,119.9934244
637,"['high', 16, 2, True]",TRUE,16,white,45,left,up,high,white_high_45_up,black_high_135_up,2,left,0.1987744,1,120,2,3.2.2021,119.9934244
638,"['high', 8, 2, True]",TRUE,8,white,45,left,up,high,white_high_45_up,black_high_135_up,2,left,0.2112976,1,120,2,3.2.2021,119.9934244
639,"['high', 3, 60, False]",FALSE,3,white,45,left,up,high,white_high_45_up,black_high_135_up,60,left,0.4796689,1,120,2,3.2.2021,119.9934244
640,"['high', 16, 2, True]",TRUE,16,black,135,left,down,high,black_high_135_down,white_high_45_down,2,left,0.1995929,1,120,2,3.2.2021,119.9934244
641,"['high', 1, 2, True]",TRUE,1,white,45,left,down,high,white_high_45_down,black_high_135_down,2,left,0.5970254,1,120,2,3.2.2021,119.9934244
642,"['high', 2, 2, True]",TRUE,2,white,135,right,up,high,white_high_135_up,black_high_45_up,2,left,1.9362082,0,120,2,3.2.2021,119.9934244
643,"['low', 16, 2, True]",TRUE,16,white,135,right,up,low,white_low_135_up,black_low_45_up,2,right,0.1025724,1,120,2,3.2.2021,119.9934244
644,"['high', 4, 2, True]",TRUE,4,black,135,left,down,high,black_high_135_down,white_high_45_down,2,left,0.6743112,1,120,2,3.2.2021,119.9934244
645,"['high', 2, 2, True]",TRUE,2,black,45,right,up,high,black_high_45_up,white_high_135_up,2,right,0.6649554,1,120,2,3.2.2021,119.9934244
646,"['high', 16, 2, True]",TRUE,16,white,135,right,down,high,white_high_135_down,black_high_45_down,2,right,0.0767802,1,120,2,3.2.2021,119.9934244
647,"['high', 4, 2, True]",TRUE,4,black,135,left,down,high,black_high_135_down,white_high_45_down,2,left,0.4904732,1,120,2,3.2.2021,119.9934244
648,"['low', 3, 2, True]",TRUE,3,black,135,left,down,low,black_low_135_down,white_low_45_down,2,left,0.244212,1,120,2,3.2.2021,119.9934244
649,"['low', 16, 2, True]",TRUE,16,black,135,left,down,low,black_low_135_down,white_low_45_down,2,left,0.0503998,1,120,2,3.2.2021,119.9934244
650,"['low', 32, 2, True]",TRUE,32,black,135,left,down,low,black_low_135_down,white_low_45_down,2,left,0.1072485,1,120,2,3.2.2021,119.9934244
651,"['low', 1, 2, True]",TRUE,1,white,135,right,up,low,white_low_135_up,black_low_45_up,2,left,0.6797031,0,120,2,3.2.2021,119.9934244
652,"['high', 2, 2, True]",TRUE,2,white,45,left,up,high,white_high_45_up,black_high_135_up,2,left,1.0767549,1,120,2,3.2.2021,119.9934244
653,"['low', 64, 2, True]",TRUE,64,white,135,right,up,low,white_low_135_up,black_low_45_up,2,right,0.1361875,1,120,2,3.2.2021,119.9934244
654,"['high', 4, 2, True]",TRUE,4,black,135,left,up,high,black_high_135_up,white_high_45_up,2,left,0.5184103,1,120,2,3.2.2021,119.9934244
655,"['high', 64, 2, True]",TRUE,64,white,45,left,up,high,white_high_45_up,black_high_135_up,2,left,0.1913531,1,120,2,3.2.2021,119.9934244
656,"['high', 64, 2, True]",TRUE,64,white,135,right,down,high,white_high_135_down,black_high_45_down,2,right,0.0588266,1,120,2,3.2.2021,119.9934244
657,"['low', 8, 2, True]",TRUE,8,black,45,right,up,low,black_low_45_up,white_low_135_up,2,right,0.0863823,1,120,2,3.2.2021,119.9934244
658,"['low', 4, 2, True]",TRUE,4,black,45,right,up,low,black_low_45_up,white_low_135_up,2,right,0.0575019,1,120,2,3.2.2021,119.9934244
659,"['low', 1, 2, True]",TRUE,1,white,45,left,up,low,white_low_45_up,black_low_135_up,2,left,0.275995,1,120,2,3.2.2021,119.9934244
660,"['high', 32, 2, True]",TRUE,32,white,45,left,up,high,white_high_45_up,black_high_135_up,2,left,0.1164301,1,120,2,3.2.2021,119.9934244
661,"['low', 8, 2, True]",TRUE,8,white,45,left,down,low,white_low_45_down,black_low_135_down,2,left,0.0594277,1,120,2,3.2.2021,119.9934244
662,"['high', 2, 2, True]",TRUE,2,white,135,right,down,high,white_high_135_down,black_high_45_down,2,left,0.5136241,0,120,2,3.2.2021,119.9934244
663,"['low', 1, 2, True]",TRUE,1,black,135,left,up,low,black_low_135_up,white_low_45_up,2,right,0.8500345,0,120,2,3.2.2021,119.9934244
664,"['low', 32, 2, True]",TRUE,32,white,135,right,up,low,white_low_135_up,black_low_45_up,2,right,0.0391238,1,120,2,3.2.2021,119.9934244
665,"['low', 3, 2, True]",TRUE,3,white,135,right,up,low,white_low_135_up,black_low_45_up,2,right,0.1935128,1,120,2,3.2.2021,119.9934244
666,"['high', 1, 2, False]",FALSE,1,white,45,left,down,high,white_high_45_down,black_high_135_down,2,left,0.719822,1,120,2,3.2.2021,119.9934244
667,"['low', 1, 2, False]",FALSE,1,black,135,left,down,low,black_low_135_down,white_low_45_down,2,left,0.9812303,1,120,2,3.2.2021,119.9934244
668,"['high', 8, 2, True]",TRUE,8,black,135,left,up,high,black_high_135_up,white_high_45_up,2,left,0.4830966,1,120,2,3.2.2021,119.9934244
669,"['low', 1, 2, False]",FALSE,1,white,45,left,down,low,white_low_45_down,black_low_135_down,2,left,0.4379399,1,120,2,3.2.2021,119.9934244
670,"['high', 3, 2, True]",TRUE,3,black,135,left,up,high,black_high_135_up,white_high_45_up,2,left,0.7600507,1,120,2,3.2.2021,119.9934244
671,"['low', 16, 2, True]",TRUE,16,white,45,left,down,low,white_low_45_down,black_low_135_down,2,left,0.1322154,1,120,2,3.2.2021,119.9934244
672,"['high', 2, 2, True]",TRUE,2,black,45,right,up,high,black_high_45_up,white_high_135_up,2,right,0.7046518,1,120,2,3.2.2021,119.9934244
673,"['low', 3, 2, True]",TRUE,3,white,135,right,down,low,white_low_135_down,black_low_45_down,2,right,0.0646777,1,120,2,3.2.2021,119.9934244
674,"['low', 8, 2, True]",TRUE,8,black,45,right,up,low,black_low_45_up,white_low_135_up,2,right,0.9739611,1,120,2,3.2.2021,119.9934244
675,"['high', 32, 2, True]",TRUE,32,white,135,right,down,high,white_high_135_down,black_high_45_down,2,right,0.0642815,1,120,2,3.2.2021,119.9934244
676,"['low', 32, 2, True]",TRUE,32,white,45,left,up,low,white_low_45_up,black_low_135_up,2,left,0.2046695,1,120,2,3.2.2021,119.9934244
677,"['high', 1, 2, True]",TRUE,1,black,135,left,down,high,black_high_135_down,white_high_45_down,2,left,0.5948711,1,120,2,3.2.2021,119.9934244
678,"['low', 4, 2, True]",TRUE,4,white,135,right,down,low,white_low_135_down,black_low_45_down,2,right,0.2384216,1,120,2,3.2.2021,119.9934244
679,"['high', 32, 2, True]",TRUE,32,white,45,left,down,high,white_high_45_down,black_high_135_down,2,left,0.026689,1,120,2,3.2.2021,119.9934244
680,"['high', 2, 2, True]",TRUE,2,white,135,right,down,high,white_high_135_down,black_high_45_down,2,left,0.3299107,0,120,2,3.2.2021,119.9934244
681,"['low', 4, 2, True]",TRUE,4,white,45,left,up,low,white_low_45_up,black_low_135_up,2,left,0.2027784,1,120,2,3.2.2021,119.9934244
682,"['high', 2, 2, True]",TRUE,2,white,45,left,down,high,white_high_45_down,black_high_135_down,2,left,0.3294422,1,120,2,3.2.2021,119.9934244
683,"['low', 2, 2, True]",TRUE,2,white,135,right,up,low,white_low_135_up,black_low_45_up,2,right,0.7071084,1,120,2,3.2.2021,119.9934244
684,"['high', 64, 2, True]",TRUE,64,white,135,right,up,high,white_high_135_up,black_high_45_up,2,right,0.0604528,1,120,2,3.2.2021,119.9934244
685,"['low', 32, 2, True]",TRUE,32,black,135,left,down,low,black_low_135_down,white_low_45_down,2,left,0.0159234,1,120,2,3.2.2021,119.9934244
686,"['high', 4, 2, True]",TRUE,4,white,135,right,up,high,white_high_135_up,black_high_45_up,2,right,1.1248302,1,120,2,3.2.2021,119.9934244
687,"['high', 4, 2, True]",TRUE,4,white,45,left,up,high,white_high_45_up,black_high_135_up,2,right,0.9401061,0,120,2,3.2.2021,119.9934244
688,"['high', 16, 2, True]",TRUE,16,black,45,right,down,high,black_high_45_down,white_high_135_down,2,right,0.0375101,1,120,2,3.2.2021,119.9934244
689,"['low', 1, 2, True]",TRUE,1,white,135,right,up,low,white_low_135_up,black_low_45_up,2,left,0.5557457,0,120,2,3.2.2021,119.9934244
690,"['low', 16, 2, True]",TRUE,16,black,45,right,down,low,black_low_45_down,white_low_135_down,2,right,0.0393527,1,120,2,3.2.2021,119.9934244
691,"['low', 1, 2, False]",FALSE,1,black,45,right,up,low,black_low_45_up,white_low_135_up,2,left,2.758378,0,120,2,3.2.2021,119.9934244
692,"['high', 3, 2, True]",TRUE,3,white,135,right,down,high,white_high_135_down,black_high_45_down,2,left,0.645649,0,120,2,3.2.2021,119.9934244
693,"['low', 32, 2, True]",TRUE,32,black,45,right,down,low,black_low_45_down,white_low_135_down,2,right,0.071941,1,120,2,3.2.2021,119.9934244
694,"['high', 8, 2, True]",TRUE,8,black,45,right,down,high,black_high_45_down,white_high_135_down,2,right,0.1046794,1,120,2,3.2.2021,119.9934244
695,"['high', 3, 60, False]",FALSE,3,white,135,right,up,high,white_high_135_up,black_high_45_up,60,right,0.2581576,1,120,2,3.2.2021,119.9934244
696,"['high', 3, 2, True]",TRUE,3,black,45,right,up,high,black_high_45_up,white_high_135_up,2,right,0.4867242,1,120,2,3.2.2021,119.9934244
697,"['low', 16, 2, True]",TRUE,16,black,135,left,down,low,black_low_135_down,white_low_45_down,2,left,0.2651615,1,120,2,3.2.2021,119.9934244
698,"['high', 4, 2, True]",TRUE,4,black,135,left,up,high,black_high_135_up,white_high_45_up,2,left,0.5483976,1,120,2,3.2.2021,119.9934244
699,"['high', 64, 2, True]",TRUE,64,black,135,left,down,high,black_high_135_down,white_high_45_down,2,left,0.2182038,1,120,2,3.2.2021,119.9934244
700,"['high', 32, 2, True]",TRUE,32,black,135,left,down,high,black_high_135_down,white_high_45_down,2,left,0.1993437,1,120,2,3.2.2021,119.9934244
701,"['high', 3, 2, True]",TRUE,3,white,135,right,down,high,white_high_135_down,black_high_45_down,2,left,0.4072876,0,120,2,3.2.2021,119.9934244
702,"['high', 1, 2, True]",TRUE,1,black,135,left,down,high,black_high_135_down,white_high_45_down,2,left,0.3697257,1,120,2,3.2.2021,119.9934244
703,"['high', 64, 2, True]",TRUE,64,white,45,left,down,high,white_high_45_down,black_high_135_down,2,left,0.1091658,1,120,2,3.2.2021,119.9934244
704,"['high', 1, 2, False]",FALSE,1,white,45,left,down,high,white_high_45_down,black_high_135_down,2,right,1.7353832,0,120,2,3.2.2021,119.9934244
