trial_number,trial_type,mask_present,cycle_number,first_color,first_orientation,correct_response,visual_field,spatial_frequency,first_stim,second_stim,stimulus_frame_duration,answer,rt,accuracy,frame_rate,participant,psychopyVersion,frame_rate_detected
0,"['high', 1, 2, False]",FALSE,1,black,45,right,down,high,black_high_45_down,white_high_135_down,2,right,0.7263315,1,120,5,3.2.2021,119.9868015
1,"['high', 16, 2, True]",TRUE,16,black,135,left,up,high,black_high_135_up,white_high_45_up,2,left,0.3357068,1,120,5,3.2.2021,119.9868015
2,"['high', 1, 2, True]",TRUE,1,black,45,right,down,high,black_high_45_down,white_high_135_down,2,right,0.9988574,1,120,5,3.2.2021,119.9868015
3,"['high', 8, 2, True]",TRUE,8,white,45,left,up,high,white_high_45_up,black_high_135_up,2,left,0.1561412,1,120,5,3.2.2021,119.9868015
4,"['high', 64, 2, True]",TRUE,64,white,135,right,down,high,white_high_135_down,black_high_45_down,2,right,1.0899326,1,120,5,3.2.2021,119.9868015
5,"['high', 16, 2, True]",TRUE,16,black,45,right,up,high,black_high_45_up,white_high_135_up,2,right,0.1461946,1,120,5,3.2.2021,119.9868015
6,"['high', 16, 2, True]",TRUE,16,black,45,right,up,high,black_high_45_up,white_high_135_up,2,right,0.2359277,1,120,5,3.2.2021,119.9868015
7,"['high', 2, 2, True]",TRUE,2,white,135,right,up,high,white_high_135_up,black_high_45_up,2,right,0.1931699,1,120,5,3.2.2021,119.9868015
8,"['high', 64, 2, True]",TRUE,64,white,45,left,up,high,white_high_45_up,black_high_135_up,2,left,0.1504283,1,120,5,3.2.2021,119.9868015
9,"['low', 32, 2, True]",TRUE,32,black,135,left,down,low,black_low_135_down,white_low_45_down,2,left,0.199285,1,120,5,3.2.2021,119.9868015
10,"['high', 8, 2, True]",TRUE,8,black,45,right,up,high,black_high_45_up,white_high_135_up,2,left,0.8750006,0,120,5,3.2.2021,119.9868015
11,"['low', 3, 2, True]",TRUE,3,black,135,left,down,low,black_low_135_down,white_low_45_down,2,right,0.2697827,0,120,5,3.2.2021,119.9868015
12,"['high', 16, 2, True]",TRUE,16,black,135,left,down,high,black_high_135_down,white_high_45_down,2,left,0.2604115,1,120,5,3.2.2021,119.9868015
13,"['low', 64, 2, True]",TRUE,64,black,135,left,down,low,black_low_135_down,white_low_45_down,2,left,0.3193557,1,120,5,3.2.2021,119.9868015
14,"['high', 4, 2, True]",TRUE,4,white,135,right,up,high,white_high_135_up,black_high_45_up,2,left,0.2989848,0,120,5,3.2.2021,119.9868015
15,"['high', 3, 60, False]",FALSE,3,white,45,left,up,high,white_high_45_up,black_high_135_up,60,left,1.1494236,1,120,5,3.2.2021,119.9868015
16,"['high', 32, 2, True]",TRUE,32,white,135,right,down,high,white_high_135_down,black_high_45_down,2,right,0.6702593,1,120,5,3.2.2021,119.9868015
17,"['high', 3, 60, False]",FALSE,3,white,135,right,down,high,white_high_135_down,black_high_45_down,60,right,0.3484878,1,120,5,3.2.2021,119.9868015
18,"['low', 32, 2, True]",TRUE,32,black,45,right,down,low,black_low_45_down,white_low_135_down,2,right,0.4823655,1,120,5,3.2.2021,119.9868015
19,"['high', 1, 2, True]",TRUE,1,white,135,right,up,high,white_high_135_up,black_high_45_up,2,left,1.0708843,0,120,5,3.2.2021,119.9868015
20,"['high', 2, 2, True]",TRUE,2,black,135,left,up,high,black_high_135_up,white_high_45_up,2,left,0.8205663,1,120,5,3.2.2021,119.9868015
21,"['high', 8, 2, True]",TRUE,8,white,135,right,up,high,white_high_135_up,black_high_45_up,2,right,0.3465016,1,120,5,3.2.2021,119.9868015
22,"['low', 8, 2, True]",TRUE,8,black,45,right,up,low,black_low_45_up,white_low_135_up,2,right,0.449835,1,120,5,3.2.2021,119.9868015
23,"['high', 3, 2, True]",TRUE,3,white,45,left,up,high,white_high_45_up,black_high_135_up,2,left,0.1432289,1,120,5,3.2.2021,119.9868015
24,"['high', 16, 2, True]",TRUE,16,black,45,right,down,high,black_high_45_down,white_high_135_down,2,right,0.1805932,1,120,5,3.2.2021,119.9868015
25,"['high', 2, 2, True]",TRUE,2,black,135,left,down,high,black_high_135_down,white_high_45_down,2,right,0.6895977,0,120,5,3.2.2021,119.9868015
26,"['low', 4, 2, True]",TRUE,4,white,135,right,down,low,white_low_135_down,black_low_45_down,2,right,0.4095586,1,120,5,3.2.2021,119.9868015
27,"['high', 1, 2, True]",TRUE,1,black,45,right,up,high,black_high_45_up,white_high_135_up,2,left,0.4686472,0,120,5,3.2.2021,119.9868015
28,"['low', 1, 2, True]",TRUE,1,white,45,left,up,low,white_low_45_up,black_low_135_up,2,left,0.5504228,1,120,5,3.2.2021,119.9868015
29,"['low', 1, 2, True]",TRUE,1,white,135,right,up,low,white_low_135_up,black_low_45_up,2,right,0.3219142,1,120,5,3.2.2021,119.9868015
30,"['high', 1, 2, False]",FALSE,1,black,45,right,down,high,black_high_45_down,white_high_135_down,2,right,1.2781268,1,120,5,3.2.2021,119.9868015
31,"['low', 1, 2, False]",FALSE,1,black,45,right,down,low,black_low_45_down,white_low_135_down,2,right,0.4701889,1,120,5,3.2.2021,119.9868015
32,"['high', 32, 2, True]",TRUE,32,white,45,left,up,high,white_high_45_up,black_high_135_up,2,left,0.5022174,1,120,5,3.2.2021,119.9868015
33,"['low', 4, 2, True]",TRUE,4,white,45,left,down,low,white_low_45_down,black_low_135_down,2,left,0.5914198,1,120,5,3.2.2021,119.9868015
34,"['high', 4, 2, True]",TRUE,4,white,135,right,down,high,white_high_135_down,black_high_45_down,2,right,0.2582963,1,120,5,3.2.2021,119.9868015
35,"['high', 1, 2, True]",TRUE,1,black,135,left,up,high,black_high_135_up,white_high_45_up,2,right,0.7656948,0,120,5,3.2.2021,119.9868015
36,"['high', 2, 2, True]",TRUE,2,white,135,right,up,high,white_high_135_up,black_high_45_up,2,right,0.2194149,1,120,5,3.2.2021,119.9868015
37,"['high', 8, 2, True]",TRUE,8,black,45,right,up,high,black_high_45_up,white_high_135_up,2,right,0.2928382,1,120,5,3.2.2021,119.9868015
38,"['low', 1, 2, True]",TRUE,1,white,45,left,down,low,white_low_45_down,black_low_135_down,2,left,0.6490106,1,120,5,3.2.2021,119.9868015
39,"['low', 16, 2, True]",TRUE,16,black,45,right,up,low,black_low_45_up,white_low_135_up,2,right,0.1120592,1,120,5,3.2.2021,119.9868015
40,"['low', 8, 2, True]",TRUE,8,black,45,right,down,low,black_low_45_down,white_low_135_down,2,right,0.4460755,1,120,5,3.2.2021,119.9868015
41,"['high', 16, 2, True]",TRUE,16,black,135,left,down,high,black_high_135_down,white_high_45_down,2,left,0.394499,1,120,5,3.2.2021,119.9868015
42,"['low', 64, 2, True]",TRUE,64,black,135,left,down,low,black_low_135_down,white_low_45_down,2,left,0.3061434,1,120,5,3.2.2021,119.9868015
43,"['high', 8, 2, True]",TRUE,8,black,135,left,up,high,black_high_135_up,white_high_45_up,2,right,0.2872982,0,120,5,3.2.2021,119.9868015
44,"['high', 3, 60, False]",FALSE,3,black,135,left,up,high,black_high_135_up,white_high_45_up,60,left,0.4238653,1,120,5,3.2.2021,119.9868015
45,"['low', 8, 2, True]",TRUE,8,white,45,left,up,low,white_low_45_up,black_low_135_up,2,left,0.5120654,1,120,5,3.2.2021,119.9868015
46,"['low', 4, 2, True]",TRUE,4,black,45,right,down,low,black_low_45_down,white_low_135_down,2,right,0.2659534,1,120,5,3.2.2021,119.9868015
47,"['high', 32, 2, True]",TRUE,32,white,135,right,down,high,white_high_135_down,black_high_45_down,2,right,0.402948,1,120,5,3.2.2021,119.9868015
48,"['high', 2, 2, True]",TRUE,2,white,135,right,up,high,white_high_135_up,black_high_45_up,2,right,0.4135585,1,120,5,3.2.2021,119.9868015
49,"['low', 16, 2, True]",TRUE,16,black,45,right,up,low,black_low_45_up,white_low_135_up,2,right,0.3037099,1,120,5,3.2.2021,119.9868015
50,"['high', 16, 2, True]",TRUE,16,black,45,right,up,high,black_high_45_up,white_high_135_up,2,right,0.2662017,1,120,5,3.2.2021,119.9868015
51,"['high', 8, 2, True]",TRUE,8,black,135,left,up,high,black_high_135_up,white_high_45_up,2,right,0.2382858,0,120,5,3.2.2021,119.9868015
52,"['high', 3, 2, True]",TRUE,3,black,45,right,down,high,black_high_45_down,white_high_135_down,2,right,0.3536293,1,120,5,3.2.2021,119.9868015
53,"['high', 8, 2, True]",TRUE,8,white,45,left,up,high,white_high_45_up,black_high_135_up,2,right,0.4021867,0,120,5,3.2.2021,119.9868015
54,"['low', 32, 2, True]",TRUE,32,white,45,left,down,low,white_low_45_down,black_low_135_down,2,left,0.3595098,1,120,5,3.2.2021,119.9868015
55,"['low', 4, 2, True]",TRUE,4,white,135,right,down,low,white_low_135_down,black_low_45_down,2,right,0.2076757,1,120,5,3.2.2021,119.9868015
56,"['low', 3, 2, True]",TRUE,3,black,45,right,up,low,black_low_45_up,white_low_135_up,2,right,0.2122284,1,120,5,3.2.2021,119.9868015
57,"['high', 16, 2, True]",TRUE,16,white,135,right,down,high,white_high_135_down,black_high_45_down,2,right,0.6640507,1,120,5,3.2.2021,119.9868015
58,"['high', 1, 2, True]",TRUE,1,black,135,left,up,high,black_high_135_up,white_high_45_up,2,left,1.4750664,1,120,5,3.2.2021,119.9868015
59,"['high', 32, 2, True]",TRUE,32,black,45,right,up,high,black_high_45_up,white_high_135_up,2,right,0.3067323,1,120,5,3.2.2021,119.9868015
60,"['high', 1, 2, False]",FALSE,1,white,45,left,down,high,white_high_45_down,black_high_135_down,2,right,2.5343258,0,120,5,3.2.2021,119.9868015
61,"['high', 32, 2, True]",TRUE,32,black,135,left,up,high,black_high_135_up,white_high_45_up,2,left,0.2901948,1,120,5,3.2.2021,119.9868015
62,"['high', 2, 2, True]",TRUE,2,white,45,left,down,high,white_high_45_down,black_high_135_down,2,right,1.4703238,0,120,5,3.2.2021,119.9868015
63,"['low', 32, 2, True]",TRUE,32,white,135,right,down,low,white_low_135_down,black_low_45_down,2,right,0.2794907,1,120,5,3.2.2021,119.9868015
64,"['high', 16, 2, True]",TRUE,16,black,135,left,down,high,black_high_135_down,white_high_45_down,2,left,0.1830728,1,120,5,3.2.2021,119.9868015
65,"['low', 8, 2, True]",TRUE,8,black,45,right,down,low,black_low_45_down,white_low_135_down,2,right,0.5271449,1,120,5,3.2.2021,119.9868015
66,"['low', 8, 2, True]",TRUE,8,black,45,right,up,low,black_low_45_up,white_low_135_up,2,right,0.2681373,1,120,5,3.2.2021,119.9868015
67,"['low', 3, 2, True]",TRUE,3,black,45,right,up,low,black_low_45_up,white_low_135_up,2,right,0.1550375,1,120,5,3.2.2021,119.9868015
68,"['high', 32, 2, True]",TRUE,32,white,45,left,down,high,white_high_45_down,black_high_135_down,2,left,0.3120853,1,120,5,3.2.2021,119.9868015
69,"['high', 3, 2, True]",TRUE,3,white,135,right,up,high,white_high_135_up,black_high_45_up,2,right,0.1324442,1,120,5,3.2.2021,119.9868015
70,"['low', 1, 2, False]",FALSE,1,white,45,left,down,low,white_low_45_down,black_low_135_down,2,left,0.6196434,1,120,5,3.2.2021,119.9868015
71,"['low', 4, 2, True]",TRUE,4,black,135,left,up,low,black_low_135_up,white_low_45_up,2,right,0.2487254,0,120,5,3.2.2021,119.9868015
72,"['high', 8, 2, True]",TRUE,8,white,45,left,down,high,white_high_45_down,black_high_135_down,2,left,0.4647633,1,120,5,3.2.2021,119.9868015
73,"['high', 16, 2, True]",TRUE,16,white,135,right,down,high,white_high_135_down,black_high_45_down,2,right,0.4199822,1,120,5,3.2.2021,119.9868015
74,"['low', 64, 2, True]",TRUE,64,black,135,left,down,low,black_low_135_down,white_low_45_down,2,left,0.4548668,1,120,5,3.2.2021,119.9868015
75,"['low', 16, 2, True]",TRUE,16,white,135,right,up,low,white_low_135_up,black_low_45_up,2,right,0.4948609,1,120,5,3.2.2021,119.9868015
76,"['low', 2, 2, True]",TRUE,2,black,45,right,up,low,black_low_45_up,white_low_135_up,2,right,0.5331548,1,120,5,3.2.2021,119.9868015
77,"['low', 4, 2, True]",TRUE,4,black,45,right,down,low,black_low_45_down,white_low_135_down,2,right,0.2685676,1,120,5,3.2.2021,119.9868015
78,"['high', 64, 2, True]",TRUE,64,white,135,right,down,high,white_high_135_down,black_high_45_down,2,right,0.2258215,1,120,5,3.2.2021,119.9868015
79,"['low', 2, 2, True]",TRUE,2,black,135,left,up,low,black_low_135_up,white_low_45_up,2,right,0.1241089,0,120,5,3.2.2021,119.9868015
80,"['low', 2, 2, True]",TRUE,2,black,135,left,up,low,black_low_135_up,white_low_45_up,2,right,0.1510523,0,120,5,3.2.2021,119.9868015
81,"['high', 4, 2, True]",TRUE,4,black,45,right,down,high,black_high_45_down,white_high_135_down,2,right,0.487334,1,120,5,3.2.2021,119.9868015
82,"['high', 8, 2, True]",TRUE,8,white,45,left,down,high,white_high_45_down,black_high_135_down,2,left,0.2874261,1,120,5,3.2.2021,119.9868015
83,"['high', 16, 2, True]",TRUE,16,white,45,left,up,high,white_high_45_up,black_high_135_up,2,left,0.3210879,1,120,5,3.2.2021,119.9868015
84,"['low', 1, 2, False]",FALSE,1,black,45,right,up,low,black_low_45_up,white_low_135_up,2,right,0.4628027,1,120,5,3.2.2021,119.9868015
85,"['low', 1, 2, True]",TRUE,1,black,45,right,down,low,black_low_45_down,white_low_135_down,2,left,0.8425556,0,120,5,3.2.2021,119.9868015
86,"['low', 16, 2, True]",TRUE,16,black,135,left,down,low,black_low_135_down,white_low_45_down,2,left,0.280793,1,120,5,3.2.2021,119.9868015
87,"['low', 4, 2, True]",TRUE,4,black,135,left,up,low,black_low_135_up,white_low_45_up,2,right,0.1837698,0,120,5,3.2.2021,119.9868015
88,"['high', 3, 2, True]",TRUE,3,white,135,right,down,high,white_high_135_down,black_high_45_down,2,right,0.2764163,1,120,5,3.2.2021,119.9868015
89,"['high', 8, 2, True]",TRUE,8,white,45,left,up,high,white_high_45_up,black_high_135_up,2,left,1.0825141,1,120,5,3.2.2021,119.9868015
90,"['high', 3, 2, True]",TRUE,3,black,135,left,down,high,black_high_135_down,white_high_45_down,2,left,0.3330021,1,120,5,3.2.2021,119.9868015
91,"['high', 3, 60, False]",FALSE,3,white,45,left,up,high,white_high_45_up,black_high_135_up,60,left,0.5363143,1,120,5,3.2.2021,119.9868015
92,"['low', 3, 2, True]",TRUE,3,black,135,left,down,low,black_low_135_down,white_low_45_down,2,left,0.4327143,1,120,5,3.2.2021,119.9868015
93,"['low', 4, 2, True]",TRUE,4,black,45,right,up,low,black_low_45_up,white_low_135_up,2,right,0.3250842,1,120,5,3.2.2021,119.9868015
94,"['low', 1, 2, False]",FALSE,1,white,45,left,up,low,white_low_45_up,black_low_135_up,2,left,0.520393,1,120,5,3.2.2021,119.9868015
95,"['high', 4, 2, True]",TRUE,4,black,135,left,up,high,black_high_135_up,white_high_45_up,2,left,0.2977266,1,120,5,3.2.2021,119.9868015
96,"['low', 3, 2, True]",TRUE,3,black,135,left,up,low,black_low_135_up,white_low_45_up,2,right,0.1346322,0,120,5,3.2.2021,119.9868015
97,"['low', 3, 2, True]",TRUE,3,white,135,right,up,low,white_low_135_up,black_low_45_up,2,right,0.1670739,1,120,5,3.2.2021,119.9868015
98,"['low', 1, 2, False]",FALSE,1,white,135,right,down,low,white_low_135_down,black_low_45_down,2,right,0.3351875,1,120,5,3.2.2021,119.9868015
99,"['low', 8, 2, True]",TRUE,8,white,135,right,up,low,white_low_135_up,black_low_45_up,2,right,0.1225374,1,120,5,3.2.2021,119.9868015
100,"['high', 1, 2, True]",TRUE,1,black,135,left,down,high,black_high_135_down,white_high_45_down,2,left,0.4401663,1,120,5,3.2.2021,119.9868015
101,"['high', 3, 60, False]",FALSE,3,white,45,left,down,high,white_high_45_down,black_high_135_down,60,left,0.5055474,1,120,5,3.2.2021,119.9868015
102,"['low', 32, 2, True]",TRUE,32,black,45,right,up,low,black_low_45_up,white_low_135_up,2,right,0.5946628,1,120,5,3.2.2021,119.9868015
103,"['low', 16, 2, True]",TRUE,16,black,45,right,down,low,black_low_45_down,white_low_135_down,2,right,0.3350319,1,120,5,3.2.2021,119.9868015
104,"['high', 2, 2, True]",TRUE,2,black,135,left,down,high,black_high_135_down,white_high_45_down,2,right,0.8563001,0,120,5,3.2.2021,119.9868015
105,"['high', 4, 2, True]",TRUE,4,white,135,right,down,high,white_high_135_down,black_high_45_down,2,right,0.3660852,1,120,5,3.2.2021,119.9868015
106,"['high', 2, 2, True]",TRUE,2,white,45,left,down,high,white_high_45_down,black_high_135_down,2,right,0.5344056,0,120,5,3.2.2021,119.9868015
107,"['low', 1, 2, False]",FALSE,1,black,45,right,up,low,black_low_45_up,white_low_135_up,2,right,0.4628401,1,120,5,3.2.2021,119.9868015
108,"['low', 64, 2, True]",TRUE,64,black,45,right,up,low,black_low_45_up,white_low_135_up,2,right,0.5015361,1,120,5,3.2.2021,119.9868015
109,"['high', 64, 2, True]",TRUE,64,white,135,right,up,high,white_high_135_up,black_high_45_up,2,right,0.3076336,1,120,5,3.2.2021,119.9868015
110,"['high', 32, 2, True]",TRUE,32,black,135,left,down,high,black_high_135_down,white_high_45_down,2,left,0.2986275,1,120,5,3.2.2021,119.9868015
111,"['low', 8, 2, True]",TRUE,8,black,45,right,down,low,black_low_45_down,white_low_135_down,2,right,0.0176608,1,120,5,3.2.2021,119.9868015
112,"['high', 4, 2, True]",TRUE,4,white,45,left,up,high,white_high_45_up,black_high_135_up,2,left,0.0614255,1,120,5,3.2.2021,119.9868015
113,"['high', 8, 2, True]",TRUE,8,white,45,left,up,high,white_high_45_up,black_high_135_up,2,left,0.2397135,1,120,5,3.2.2021,119.9868015
114,"['low', 16, 2, True]",TRUE,16,white,135,right,up,low,white_low_135_up,black_low_45_up,2,right,0.3487004,1,120,5,3.2.2021,119.9868015
115,"['low', 16, 2, True]",TRUE,16,black,135,left,up,low,black_low_135_up,white_low_45_up,2,left,0.4514446,1,120,5,3.2.2021,119.9868015
116,"['low', 4, 2, True]",TRUE,4,white,135,right,up,low,white_low_135_up,black_low_45_up,2,right,0.303279,1,120,5,3.2.2021,119.9868015
117,"['low', 32, 2, True]",TRUE,32,black,45,right,down,low,black_low_45_down,white_low_135_down,2,right,0.4044684,1,120,5,3.2.2021,119.9868015
118,"['high', 4, 2, True]",TRUE,4,white,45,left,up,high,white_high_45_up,black_high_135_up,2,left,0.4141338,1,120,5,3.2.2021,119.9868015
119,"['low', 4, 2, True]",TRUE,4,white,135,right,down,low,white_low_135_down,black_low_45_down,2,right,0.0668611,1,120,5,3.2.2021,119.9868015
120,"['high', 3, 2, True]",TRUE,3,white,135,right,down,high,white_high_135_down,black_high_45_down,2,right,0.1458538,1,120,5,3.2.2021,119.9868015
121,"['high', 16, 2, True]",TRUE,16,black,45,right,down,high,black_high_45_down,white_high_135_down,2,right,0.1960404,1,120,5,3.2.2021,119.9868015
122,"['high', 3, 2, True]",TRUE,3,black,45,right,down,high,black_high_45_down,white_high_135_down,2,right,0.1458373,1,120,5,3.2.2021,119.9868015
123,"['low', 1, 2, False]",FALSE,1,white,45,left,down,low,white_low_45_down,black_low_135_down,2,left,0.4016501,1,120,5,3.2.2021,119.9868015
124,"['low', 1, 2, False]",FALSE,1,white,135,right,up,low,white_low_135_up,black_low_45_up,2,right,0.4345523,1,120,5,3.2.2021,119.9868015
125,"['high', 32, 2, True]",TRUE,32,black,135,left,down,high,black_high_135_down,white_high_45_down,2,left,0.2994929,1,120,5,3.2.2021,119.9868015
126,"['low', 1, 2, True]",TRUE,1,black,45,right,up,low,black_low_45_up,white_low_135_up,2,left,0.2603793,0,120,5,3.2.2021,119.9868015
127,"['low', 4, 2, True]",TRUE,4,white,45,left,down,low,white_low_45_down,black_low_135_down,2,left,0.0875817,1,120,5,3.2.2021,119.9868015
128,"['high', 64, 2, True]",TRUE,64,black,135,left,down,high,black_high_135_down,white_high_45_down,2,left,0.4994958,1,120,5,3.2.2021,119.9868015
129,"['high', 4, 2, True]",TRUE,4,white,45,left,down,high,white_high_45_down,black_high_135_down,2,left,0.3954325,1,120,5,3.2.2021,119.9868015
130,"['high', 4, 2, True]",TRUE,4,black,45,right,down,high,black_high_45_down,white_high_135_down,2,right,0.7999406,1,120,5,3.2.2021,119.9868015
131,"['high', 32, 2, True]",TRUE,32,white,135,right,up,high,white_high_135_up,black_high_45_up,2,right,0.302758,1,120,5,3.2.2021,119.9868015
132,"['low', 4, 2, True]",TRUE,4,black,45,right,down,low,black_low_45_down,white_low_135_down,2,right,0.0467642,1,120,5,3.2.2021,119.9868015
133,"['low', 3, 2, True]",TRUE,3,black,135,left,up,low,black_low_135_up,white_low_45_up,2,right,0.3290708,0,120,5,3.2.2021,119.9868015
134,"['high', 32, 2, True]",TRUE,32,black,135,left,down,high,black_high_135_down,white_high_45_down,2,left,0.3642048,1,120,5,3.2.2021,119.9868015
135,"['low', 1, 2, False]",FALSE,1,black,135,left,down,low,black_low_135_down,white_low_45_down,2,right,0.6563337,0,120,5,3.2.2021,119.9868015
136,"['high', 1, 2, False]",FALSE,1,black,45,right,down,high,black_high_45_down,white_high_135_down,2,left,0.3601065,0,120,5,3.2.2021,119.9868015
137,"['high', 1, 2, False]",FALSE,1,white,135,right,up,high,white_high_135_up,black_high_45_up,2,right,0.3566806,1,120,5,3.2.2021,119.9868015
138,"['high', 32, 2, True]",TRUE,32,black,135,left,down,high,black_high_135_down,white_high_45_down,2,left,0.4985035,1,120,5,3.2.2021,119.9868015
139,"['high', 32, 2, True]",TRUE,32,black,135,left,down,high,black_high_135_down,white_high_45_down,2,left,0.459105,1,120,5,3.2.2021,119.9868015
140,"['high', 2, 2, True]",TRUE,2,white,135,right,up,high,white_high_135_up,black_high_45_up,2,right,0.1335526,1,120,5,3.2.2021,119.9868015
141,"['low', 32, 2, True]",TRUE,32,white,45,left,up,low,white_low_45_up,black_low_135_up,2,left,0.3842936,1,120,5,3.2.2021,119.9868015
142,"['low', 2, 2, True]",TRUE,2,white,135,right,up,low,white_low_135_up,black_low_45_up,2,right,0.022708,1,120,5,3.2.2021,119.9868015
143,"['high', 4, 2, True]",TRUE,4,white,135,right,down,high,white_high_135_down,black_high_45_down,2,right,0.2563705,1,120,5,3.2.2021,119.9868015
144,"['low', 8, 2, True]",TRUE,8,black,45,right,up,low,black_low_45_up,white_low_135_up,2,right,0.2533969,1,120,5,3.2.2021,119.9868015
145,"['low', 1, 2, True]",TRUE,1,black,45,right,down,low,black_low_45_down,white_low_135_down,2,left,0.1799171,0,120,5,3.2.2021,119.9868015
146,"['high', 16, 2, True]",TRUE,16,black,135,left,down,high,black_high_135_down,white_high_45_down,2,left,0.3050479,1,120,5,3.2.2021,119.9868015
147,"['high', 1, 2, True]",TRUE,1,black,45,right,up,high,black_high_45_up,white_high_135_up,2,left,0.5059867,0,120,5,3.2.2021,119.9868015
148,"['high', 8, 2, True]",TRUE,8,white,135,right,up,high,white_high_135_up,black_high_45_up,2,right,0.2670197,1,120,5,3.2.2021,119.9868015
149,"['low', 1, 2, False]",FALSE,1,black,45,right,down,low,black_low_45_down,white_low_135_down,2,left,0.3863737,0,120,5,3.2.2021,119.9868015
150,"['low', 3, 2, True]",TRUE,3,black,45,right,down,low,black_low_45_down,white_low_135_down,2,right,0.6073412,1,120,5,3.2.2021,119.9868015
151,"['high', 1, 2, True]",TRUE,1,black,45,right,up,high,black_high_45_up,white_high_135_up,2,right,0.9099445,1,120,5,3.2.2021,119.9868015
152,"['low', 16, 2, True]",TRUE,16,white,45,left,down,low,white_low_45_down,black_low_135_down,2,left,0.3222061,1,120,5,3.2.2021,119.9868015
153,"['high', 64, 2, True]",TRUE,64,black,45,right,down,high,black_high_45_down,white_high_135_down,2,right,0.3029657,1,120,5,3.2.2021,119.9868015
154,"['high', 1, 2, True]",TRUE,1,black,45,right,up,high,black_high_45_up,white_high_135_up,2,left,0.6178599,0,120,5,3.2.2021,119.9868015
155,"['low', 1, 2, True]",TRUE,1,white,45,left,up,low,white_low_45_up,black_low_135_up,2,left,0.1500808,1,120,5,3.2.2021,119.9868015
156,"['high', 1, 2, True]",TRUE,1,white,135,right,down,high,white_high_135_down,black_high_45_down,2,left,0.465627,0,120,5,3.2.2021,119.9868015
157,"['low', 2, 2, True]",TRUE,2,black,45,right,down,low,black_low_45_down,white_low_135_down,2,left,0.5765177,0,120,5,3.2.2021,119.9868015
158,"['high', 64, 2, True]",TRUE,64,white,45,left,down,high,white_high_45_down,black_high_135_down,2,left,0.2952021,1,120,5,3.2.2021,119.9868015
159,"['low', 32, 2, True]",TRUE,32,white,45,left,up,low,white_low_45_up,black_low_135_up,2,left,0.3524259,1,120,5,3.2.2021,119.9868015
160,"['low', 1, 2, True]",TRUE,1,black,45,right,down,low,black_low_45_down,white_low_135_down,2,left,0.4540416,0,120,5,3.2.2021,119.9868015
161,"['low', 64, 2, True]",TRUE,64,white,135,right,up,low,white_low_135_up,black_low_45_up,2,right,0.2009877,1,120,5,3.2.2021,119.9868015
162,"['low', 8, 2, True]",TRUE,8,black,135,left,down,low,black_low_135_down,white_low_45_down,2,left,0.2012272,1,120,5,3.2.2021,119.9868015
163,"['low', 1, 2, False]",FALSE,1,black,45,right,down,low,black_low_45_down,white_low_135_down,2,left,0.377577,0,120,5,3.2.2021,119.9868015
164,"['low', 3, 2, True]",TRUE,3,black,45,right,down,low,black_low_45_down,white_low_135_down,2,right,0.7709558,1,120,5,3.2.2021,119.9868015
165,"['high', 1, 2, True]",TRUE,1,black,45,right,down,high,black_high_45_down,white_high_135_down,2,left,0.7293617,0,120,5,3.2.2021,119.9868015
166,"['high', 32, 2, True]",TRUE,32,white,135,right,down,high,white_high_135_down,black_high_45_down,2,right,0.292723,1,120,5,3.2.2021,119.9868015
167,"['low', 8, 2, True]",TRUE,8,white,135,right,up,low,white_low_135_up,black_low_45_up,2,right,0.2147966,1,120,5,3.2.2021,119.9868015
168,"['low', 32, 2, True]",TRUE,32,black,135,left,up,low,black_low_135_up,white_low_45_up,2,left,0.402847,1,120,5,3.2.2021,119.9868015
169,"['low', 2, 2, True]",TRUE,2,white,135,right,up,low,white_low_135_up,black_low_45_up,2,right,0.0607766,1,120,5,3.2.2021,119.9868015
170,"['high', 32, 2, True]",TRUE,32,black,45,right,down,high,black_high_45_down,white_high_135_down,2,right,0.32087,1,120,5,3.2.2021,119.9868015
171,"['low', 8, 2, True]",TRUE,8,black,45,right,down,low,black_low_45_down,white_low_135_down,2,right,0.2914011,1,120,5,3.2.2021,119.9868015
172,"['high', 32, 2, True]",TRUE,32,white,45,left,down,high,white_high_45_down,black_high_135_down,2,left,0.3139551,1,120,5,3.2.2021,119.9868015
173,"['low', 8, 2, True]",TRUE,8,black,45,right,up,low,black_low_45_up,white_low_135_up,2,right,0.3312251,1,120,5,3.2.2021,119.9868015
174,"['high', 16, 2, True]",TRUE,16,white,45,left,down,high,white_high_45_down,black_high_135_down,2,left,0.2976932,1,120,5,3.2.2021,119.9868015
175,"['low', 32, 2, True]",TRUE,32,black,135,left,down,low,black_low_135_down,white_low_45_down,2,left,0.2921526,1,120,5,3.2.2021,119.9868015
176,"['low', 4, 2, True]",TRUE,4,black,45,right,down,low,black_low_45_down,white_low_135_down,2,right,0.7819722,1,120,5,3.2.2021,119.9868015
177,"['low', 2, 2, True]",TRUE,2,white,135,right,down,low,white_low_135_down,black_low_45_down,2,right,0.857676,1,120,5,3.2.2021,119.9868015
178,"['high', 1, 2, False]",FALSE,1,black,135,left,down,high,black_high_135_down,white_high_45_down,2,left,1.9706364,1,120,5,3.2.2021,119.9868015
179,"['high', 8, 2, True]",TRUE,8,white,135,right,up,high,white_high_135_up,black_high_45_up,2,right,0.2579447,1,120,5,3.2.2021,119.9868015
180,"['high', 32, 2, True]",TRUE,32,white,45,left,up,high,white_high_45_up,black_high_135_up,2,left,0.2837533,1,120,5,3.2.2021,119.9868015
181,"['high', 64, 2, True]",TRUE,64,white,135,right,up,high,white_high_135_up,black_high_45_up,2,right,0.3008525,1,120,5,3.2.2021,119.9868015
182,"['low', 1, 2, True]",TRUE,1,black,45,right,down,low,black_low_45_down,white_low_135_down,2,right,0.8966675,1,120,5,3.2.2021,119.9868015
183,"['low', 16, 2, True]",TRUE,16,white,135,right,down,low,white_low_135_down,black_low_45_down,2,right,0.3468234,1,120,5,3.2.2021,119.9868015
184,"['high', 3, 2, True]",TRUE,3,black,135,left,down,high,black_high_135_down,white_high_45_down,2,right,0.2053889,0,120,5,3.2.2021,119.9868015
185,"['low', 8, 2, True]",TRUE,8,black,45,right,up,low,black_low_45_up,white_low_135_up,2,right,0.7149588,1,120,5,3.2.2021,119.9868015
186,"['high', 32, 2, True]",TRUE,32,white,135,right,down,high,white_high_135_down,black_high_45_down,2,right,0.4730605,1,120,5,3.2.2021,119.9868015
187,"['low', 64, 2, True]",TRUE,64,white,135,right,down,low,white_low_135_down,black_low_45_down,2,right,0.3464467,1,120,5,3.2.2021,119.9868015
188,"['low', 1, 2, False]",FALSE,1,black,45,right,up,low,black_low_45_up,white_low_135_up,2,right,0.4414924,1,120,5,3.2.2021,119.9868015
189,"['low', 8, 2, True]",TRUE,8,white,45,left,down,low,white_low_45_down,black_low_135_down,2,left,0.9096507,1,120,5,3.2.2021,119.9868015
190,"['low', 16, 2, True]",TRUE,16,black,45,right,down,low,black_low_45_down,white_low_135_down,2,right,0.0235123,1,120,5,3.2.2021,119.9868015
191,"['high', 16, 2, True]",TRUE,16,white,45,left,down,high,white_high_45_down,black_high_135_down,2,left,0.200506,1,120,5,3.2.2021,119.9868015
192,"['high', 3, 60, False]",FALSE,3,white,135,right,down,high,white_high_135_down,black_high_45_down,60,right,0.328852,1,120,5,3.2.2021,119.9868015
193,"['high', 1, 2, False]",FALSE,1,white,135,right,down,high,white_high_135_down,black_high_45_down,2,right,0.3988664,1,120,5,3.2.2021,119.9868015
194,"['low', 1, 2, False]",FALSE,1,black,135,left,down,low,black_low_135_down,white_low_45_down,2,right,0.2417762,0,120,5,3.2.2021,119.9868015
195,"['high', 2, 2, True]",TRUE,2,black,135,left,down,high,black_high_135_down,white_high_45_down,2,left,0.0660089,1,120,5,3.2.2021,119.9868015
196,"['low', 2, 2, True]",TRUE,2,white,135,right,up,low,white_low_135_up,black_low_45_up,2,right,0.5177432,1,120,5,3.2.2021,119.9868015
197,"['low', 64, 2, True]",TRUE,64,white,45,left,up,low,white_low_45_up,black_low_135_up,2,left,0.0598544,1,120,5,3.2.2021,119.9868015
198,"['high', 64, 2, True]",TRUE,64,black,45,right,down,high,black_high_45_down,white_high_135_down,2,right,0.3241089,1,120,5,3.2.2021,119.9868015
199,"['high', 3, 60, False]",FALSE,3,white,135,right,down,high,white_high_135_down,black_high_45_down,60,right,0.406241,1,120,5,3.2.2021,119.9868015
200,"['low', 1, 2, False]",FALSE,1,white,135,right,up,low,white_low_135_up,black_low_45_up,2,right,0.3346928,1,120,5,3.2.2021,119.9868015
201,"['high', 16, 2, True]",TRUE,16,white,45,left,down,high,white_high_45_down,black_high_135_down,2,left,1.3649845,1,120,5,3.2.2021,119.9868015
202,"['low', 32, 2, True]",TRUE,32,white,45,left,up,low,white_low_45_up,black_low_135_up,2,left,0.4448881,1,120,5,3.2.2021,119.9868015
203,"['low', 1, 2, True]",TRUE,1,black,45,right,down,low,black_low_45_down,white_low_135_down,2,left,0.4576215,0,120,5,3.2.2021,119.9868015
204,"['high', 8, 2, True]",TRUE,8,white,45,left,up,high,white_high_45_up,black_high_135_up,2,left,0.2691132,1,120,5,3.2.2021,119.9868015
205,"['high', 4, 2, True]",TRUE,4,black,45,right,up,high,black_high_45_up,white_high_135_up,2,left,0.2577488,0,120,5,3.2.2021,119.9868015
206,"['low', 1, 2, True]",TRUE,1,black,45,right,down,low,black_low_45_down,white_low_135_down,2,left,0.2468629,0,120,5,3.2.2021,119.9868015
207,"['low', 32, 2, True]",TRUE,32,white,45,left,down,low,white_low_45_down,black_low_135_down,2,left,0.3593034,1,120,5,3.2.2021,119.9868015
208,"['low', 4, 2, True]",TRUE,4,white,45,left,down,low,white_low_45_down,black_low_135_down,2,left,0.3369942,1,120,5,3.2.2021,119.9868015
209,"['high', 8, 2, True]",TRUE,8,black,135,left,down,high,black_high_135_down,white_high_45_down,2,left,0.3022254,1,120,5,3.2.2021,119.9868015
210,"['high', 1, 2, False]",FALSE,1,white,135,right,down,high,white_high_135_down,black_high_45_down,2,right,0.3899093,1,120,5,3.2.2021,119.9868015
211,"['high', 1, 2, False]",FALSE,1,black,135,left,down,high,black_high_135_down,white_high_45_down,2,right,0.5993551,0,120,5,3.2.2021,119.9868015
212,"['high', 4, 2, True]",TRUE,4,black,45,right,up,high,black_high_45_up,white_high_135_up,2,right,0.3466686,1,120,5,3.2.2021,119.9868015
213,"['high', 1, 2, False]",FALSE,1,white,45,left,down,high,white_high_45_down,black_high_135_down,2,left,0.4672566,1,120,5,3.2.2021,119.9868015
214,"['high', 32, 2, True]",TRUE,32,black,135,left,up,high,black_high_135_up,white_high_45_up,2,left,0.3642124,1,120,5,3.2.2021,119.9868015
215,"['high', 32, 2, True]",TRUE,32,black,45,right,down,high,black_high_45_down,white_high_135_down,2,right,0.3097769,1,120,5,3.2.2021,119.9868015
216,"['low', 4, 2, True]",TRUE,4,black,45,right,down,low,black_low_45_down,white_low_135_down,2,right,0.2471361,1,120,5,3.2.2021,119.9868015
217,"['high', 8, 2, True]",TRUE,8,white,135,right,up,high,white_high_135_up,black_high_45_up,2,right,0.2502576,1,120,5,3.2.2021,119.9868015
218,"['low', 1, 2, False]",FALSE,1,black,45,right,down,low,black_low_45_down,white_low_135_down,2,left,0.3408255,0,120,5,3.2.2021,119.9868015
219,"['low', 8, 2, True]",TRUE,8,white,135,right,down,low,white_low_135_down,black_low_45_down,2,right,0.7549231,1,120,5,3.2.2021,119.9868015
220,"['high', 3, 2, True]",TRUE,3,black,45,right,down,high,black_high_45_down,white_high_135_down,2,right,0.025266,1,120,5,3.2.2021,119.9868015
221,"['high', 2, 2, True]",TRUE,2,black,45,right,up,high,black_high_45_up,white_high_135_up,2,right,0.0401051,1,120,5,3.2.2021,119.9868015
222,"['low', 16, 2, True]",TRUE,16,black,45,right,down,low,black_low_45_down,white_low_135_down,2,right,0.4146685,1,120,5,3.2.2021,119.9868015
223,"['low', 1, 2, True]",TRUE,1,white,45,left,up,low,white_low_45_up,black_low_135_up,2,left,0.3062724,1,120,5,3.2.2021,119.9868015
224,"['high', 1, 2, True]",TRUE,1,white,45,left,up,high,white_high_45_up,black_high_135_up,2,right,0.1788949,0,120,5,3.2.2021,119.9868015
225,"['high', 1, 2, False]",FALSE,1,black,45,right,down,high,black_high_45_down,white_high_135_down,2,left,1.849775,0,120,5,3.2.2021,119.9868015
226,"['low', 32, 2, True]",TRUE,32,white,45,left,down,low,white_low_45_down,black_low_135_down,2,left,0.3160472,1,120,5,3.2.2021,119.9868015
227,"['high', 3, 60, False]",FALSE,3,black,45,right,up,high,black_high_45_up,white_high_135_up,60,right,0.3621712,1,120,5,3.2.2021,119.9868015
228,"['high', 1, 2, True]",TRUE,1,black,45,right,down,high,black_high_45_down,white_high_135_down,2,left,0.2740802,0,120,5,3.2.2021,119.9868015
229,"['low', 2, 2, True]",TRUE,2,white,45,left,up,low,white_low_45_up,black_low_135_up,2,left,0.419244,1,120,5,3.2.2021,119.9868015
230,"['low', 3, 2, True]",TRUE,3,white,135,right,down,low,white_low_135_down,black_low_45_down,2,right,0.2834503,1,120,5,3.2.2021,119.9868015
231,"['high', 16, 2, True]",TRUE,16,black,135,left,down,high,black_high_135_down,white_high_45_down,2,left,0.2714733,1,120,5,3.2.2021,119.9868015
232,"['low', 2, 2, True]",TRUE,2,white,45,left,up,low,white_low_45_up,black_low_135_up,2,left,0.932047,1,120,5,3.2.2021,119.9868015
233,"['high', 64, 2, True]",TRUE,64,black,135,left,up,high,black_high_135_up,white_high_45_up,2,left,1.0371442,1,120,5,3.2.2021,119.9868015
234,"['high', 2, 2, True]",TRUE,2,black,135,left,down,high,black_high_135_down,white_high_45_down,2,left,0.3516505,1,120,5,3.2.2021,119.9868015
235,"['low', 32, 2, True]",TRUE,32,white,45,left,down,low,white_low_45_down,black_low_135_down,2,left,0.4078364,1,120,5,3.2.2021,119.9868015
236,"['low', 3, 2, True]",TRUE,3,black,135,left,up,low,black_low_135_up,white_low_45_up,2,left,0.1102968,1,120,5,3.2.2021,119.9868015
237,"['high', 8, 2, True]",TRUE,8,white,45,left,down,high,white_high_45_down,black_high_135_down,2,left,0.0676514,1,120,5,3.2.2021,119.9868015
238,"['low', 16, 2, True]",TRUE,16,white,135,right,down,low,white_low_135_down,black_low_45_down,2,right,0.4342944,1,120,5,3.2.2021,119.9868015
239,"['high', 32, 2, True]",TRUE,32,black,45,right,down,high,black_high_45_down,white_high_135_down,2,right,0.2573993,1,120,5,3.2.2021,119.9868015
240,"['low', 64, 2, True]",TRUE,64,white,135,right,down,low,white_low_135_down,black_low_45_down,2,right,0.2806784,1,120,5,3.2.2021,119.9868015
241,"['high', 16, 2, True]",TRUE,16,white,135,right,down,high,white_high_135_down,black_high_45_down,2,right,0.2159743,1,120,5,3.2.2021,119.9868015
242,"['low', 3, 2, True]",TRUE,3,black,45,right,down,low,black_low_45_down,white_low_135_down,2,right,0.4876777,1,120,5,3.2.2021,119.9868015
243,"['low', 1, 2, False]",FALSE,1,white,135,right,up,low,white_low_135_up,black_low_45_up,2,right,0.3572077,1,120,5,3.2.2021,119.9868015
244,"['low', 8, 2, True]",TRUE,8,white,135,right,up,low,white_low_135_up,black_low_45_up,2,right,0.0964502,1,120,5,3.2.2021,119.9868015
245,"['low', 64, 2, True]",TRUE,64,white,45,left,up,low,white_low_45_up,black_low_135_up,2,left,0.3171568,1,120,5,3.2.2021,119.9868015
246,"['low', 3, 2, True]",TRUE,3,black,135,left,up,low,black_low_135_up,white_low_45_up,2,left,0.290054,1,120,5,3.2.2021,119.9868015
247,"['low', 1, 2, False]",FALSE,1,white,45,left,up,low,white_low_45_up,black_low_135_up,2,left,0.351187,1,120,5,3.2.2021,119.9868015
248,"['low', 32, 2, True]",TRUE,32,white,135,right,up,low,white_low_135_up,black_low_45_up,2,right,0.3131177,1,120,5,3.2.2021,119.9868015
249,"['high', 64, 2, True]",TRUE,64,white,135,right,up,high,white_high_135_up,black_high_45_up,2,right,0.2751463,1,120,5,3.2.2021,119.9868015
250,"['high', 64, 2, True]",TRUE,64,black,135,left,up,high,black_high_135_up,white_high_45_up,2,left,0.2928461,1,120,5,3.2.2021,119.9868015
251,"['low', 64, 2, True]",TRUE,64,white,45,left,up,low,white_low_45_up,black_low_135_up,2,left,0.413945,1,120,5,3.2.2021,119.9868015
252,"['high', 3, 2, True]",TRUE,3,black,45,right,down,high,black_high_45_down,white_high_135_down,2,right,0.6170027,1,120,5,3.2.2021,119.9868015
253,"['low', 64, 2, True]",TRUE,64,black,135,left,down,low,black_low_135_down,white_low_45_down,2,left,0.4695896,1,120,5,3.2.2021,119.9868015
254,"['high', 1, 2, False]",FALSE,1,black,135,left,down,high,black_high_135_down,white_high_45_down,2,left,1.5830533,1,120,5,3.2.2021,119.9868015
255,"['high', 8, 2, True]",TRUE,8,black,135,left,down,high,black_high_135_down,white_high_45_down,2,left,0.222395,1,120,5,3.2.2021,119.9868015
256,"['high', 1, 2, True]",TRUE,1,black,45,right,up,high,black_high_45_up,white_high_135_up,2,right,0.4153659,1,120,5,3.2.2021,119.9868015
257,"['low', 16, 2, True]",TRUE,16,black,45,right,down,low,black_low_45_down,white_low_135_down,2,right,0.241692,1,120,5,3.2.2021,119.9868015
258,"['low', 3, 2, True]",TRUE,3,white,45,left,up,low,white_low_45_up,black_low_135_up,2,left,0.2636789,1,120,5,3.2.2021,119.9868015
259,"['high', 32, 2, True]",TRUE,32,black,135,left,up,high,black_high_135_up,white_high_45_up,2,left,0.3984095,1,120,5,3.2.2021,119.9868015
260,"['low', 4, 2, True]",TRUE,4,black,135,left,down,low,black_low_135_down,white_low_45_down,2,left,0.4619053,1,120,5,3.2.2021,119.9868015
261,"['low', 2, 2, True]",TRUE,2,white,45,left,down,low,white_low_45_down,black_low_135_down,2,left,0.3213701,1,120,5,3.2.2021,119.9868015
262,"['high', 1, 2, False]",FALSE,1,white,45,left,up,high,white_high_45_up,black_high_135_up,2,left,0.3497837,1,120,5,3.2.2021,119.9868015
263,"['low', 8, 2, True]",TRUE,8,black,45,right,up,low,black_low_45_up,white_low_135_up,2,right,0.075623,1,120,5,3.2.2021,119.9868015
264,"['high', 1, 2, False]",FALSE,1,white,135,right,up,high,white_high_135_up,black_high_45_up,2,right,0.428631,1,120,5,3.2.2021,119.9868015
265,"['low', 1, 2, False]",FALSE,1,white,45,left,down,low,white_low_45_down,black_low_135_down,2,left,0.4743114,1,120,5,3.2.2021,119.9868015
266,"['high', 3, 2, True]",TRUE,3,black,135,left,up,high,black_high_135_up,white_high_45_up,2,right,0.1460402,0,120,5,3.2.2021,119.9868015
267,"['high', 8, 2, True]",TRUE,8,white,45,left,down,high,white_high_45_down,black_high_135_down,2,left,0.2543811,1,120,5,3.2.2021,119.9868015
268,"['high', 8, 2, True]",TRUE,8,white,45,left,down,high,white_high_45_down,black_high_135_down,2,left,0.2679427,1,120,5,3.2.2021,119.9868015
269,"['low', 1, 2, True]",TRUE,1,white,45,left,up,low,white_low_45_up,black_low_135_up,2,left,0.3581591,1,120,5,3.2.2021,119.9868015
270,"['low', 1, 2, False]",FALSE,1,black,135,left,down,low,black_low_135_down,white_low_45_down,2,left,0.4818739,1,120,5,3.2.2021,119.9868015
271,"['low', 8, 2, True]",TRUE,8,black,135,left,up,low,black_low_135_up,white_low_45_up,2,left,0.1797775,1,120,5,3.2.2021,119.9868015
272,"['high', 2, 2, True]",TRUE,2,white,135,right,up,high,white_high_135_up,black_high_45_up,2,left,0.1682111,0,120,5,3.2.2021,119.9868015
273,"['low', 1, 2, False]",FALSE,1,black,135,left,up,low,black_low_135_up,white_low_45_up,2,left,0.8475478,1,120,5,3.2.2021,119.9868015
274,"['high', 3, 2, True]",TRUE,3,black,45,right,up,high,black_high_45_up,white_high_135_up,2,right,1.9183658,1,120,5,3.2.2021,119.9868015
275,"['high', 1, 2, True]",TRUE,1,white,135,right,up,high,white_high_135_up,black_high_45_up,2,right,0.4018613,1,120,5,3.2.2021,119.9868015
276,"['high', 16, 2, True]",TRUE,16,white,45,left,down,high,white_high_45_down,black_high_135_down,2,left,0.2557515,1,120,5,3.2.2021,119.9868015
277,"['low', 2, 2, True]",TRUE,2,white,45,left,down,low,white_low_45_down,black_low_135_down,2,left,0.129845,1,120,5,3.2.2021,119.9868015
278,"['low', 2, 2, True]",TRUE,2,black,45,right,up,low,black_low_45_up,white_low_135_up,2,left,0.1028186,0,120,5,3.2.2021,119.9868015
279,"['low', 2, 2, True]",TRUE,2,white,135,right,up,low,white_low_135_up,black_low_45_up,2,right,0.302832,1,120,5,3.2.2021,119.9868015
280,"['high', 3, 60, False]",FALSE,3,black,45,right,up,high,black_high_45_up,white_high_135_up,60,right,0.3015346,1,120,5,3.2.2021,119.9868015
281,"['low', 64, 2, True]",TRUE,64,black,135,left,up,low,black_low_135_up,white_low_45_up,2,left,0.3220548,1,120,5,3.2.2021,119.9868015
282,"['high', 16, 2, True]",TRUE,16,white,135,right,up,high,white_high_135_up,black_high_45_up,2,right,0.2991814,1,120,5,3.2.2021,119.9868015
283,"['low', 64, 2, True]",TRUE,64,black,135,left,down,low,black_low_135_down,white_low_45_down,2,left,0.5084443,1,120,5,3.2.2021,119.9868015
284,"['low', 4, 2, True]",TRUE,4,white,135,right,up,low,white_low_135_up,black_low_45_up,2,right,0.2199918,1,120,5,3.2.2021,119.9868015
285,"['high', 32, 2, True]",TRUE,32,black,135,left,down,high,black_high_135_down,white_high_45_down,2,left,0.3594573,1,120,5,3.2.2021,119.9868015
286,"['high', 8, 2, True]",TRUE,8,white,45,left,up,high,white_high_45_up,black_high_135_up,2,left,0.2073337,1,120,5,3.2.2021,119.9868015
287,"['high', 1, 2, True]",TRUE,1,black,45,right,up,high,black_high_45_up,white_high_135_up,2,left,0.3170202,0,120,5,3.2.2021,119.9868015
288,"['low', 1, 2, True]",TRUE,1,white,45,left,down,low,white_low_45_down,black_low_135_down,2,left,0.206985,1,120,5,3.2.2021,119.9868015
289,"['low', 16, 2, True]",TRUE,16,black,135,left,down,low,black_low_135_down,white_low_45_down,2,left,0.3230192,1,120,5,3.2.2021,119.9868015
290,"['low', 2, 2, True]",TRUE,2,black,135,left,up,low,black_low_135_up,white_low_45_up,2,right,0.0495845,0,120,5,3.2.2021,119.9868015
291,"['high', 3, 2, True]",TRUE,3,white,135,right,down,high,white_high_135_down,black_high_45_down,2,right,0.2963931,1,120,5,3.2.2021,119.9868015
292,"['low', 8, 2, True]",TRUE,8,white,135,right,down,low,white_low_135_down,black_low_45_down,2,right,0.2775363,1,120,5,3.2.2021,119.9868015
293,"['low', 3, 2, True]",TRUE,3,white,45,left,up,low,white_low_45_up,black_low_135_up,2,left,0.2576827,1,120,5,3.2.2021,119.9868015
294,"['high', 3, 60, False]",FALSE,3,black,135,left,up,high,black_high_135_up,white_high_45_up,60,left,0.3569503,1,120,5,3.2.2021,119.9868015
295,"['low', 1, 2, True]",TRUE,1,black,45,right,up,low,black_low_45_up,white_low_135_up,2,left,0.1822049,0,120,5,3.2.2021,119.9868015
296,"['low', 1, 2, False]",FALSE,1,black,45,right,down,low,black_low_45_down,white_low_135_down,2,right,0.4292837,1,120,5,3.2.2021,119.9868015
297,"['low', 64, 2, True]",TRUE,64,black,135,left,down,low,black_low_135_down,white_low_45_down,2,left,0.3216059,1,120,5,3.2.2021,119.9868015
298,"['low', 2, 2, True]",TRUE,2,white,135,right,down,low,white_low_135_down,black_low_45_down,2,right,0.0332928,1,120,5,3.2.2021,119.9868015
299,"['high', 1, 2, True]",TRUE,1,white,135,right,down,high,white_high_135_down,black_high_45_down,2,right,0.3610633,1,120,5,3.2.2021,119.9868015
300,"['low', 4, 2, True]",TRUE,4,black,45,right,down,low,black_low_45_down,white_low_135_down,2,right,0.1623415,1,120,5,3.2.2021,119.9868015
301,"['low', 16, 2, True]",TRUE,16,black,45,right,down,low,black_low_45_down,white_low_135_down,2,right,0.2930535,1,120,5,3.2.2021,119.9868015
302,"['low', 3, 2, True]",TRUE,3,white,45,left,down,low,white_low_45_down,black_low_135_down,2,left,0.209061,1,120,5,3.2.2021,119.9868015
303,"['high', 1, 2, False]",FALSE,1,black,45,right,up,high,black_high_45_up,white_high_135_up,2,left,0.5508406,0,120,5,3.2.2021,119.9868015
304,"['high', 64, 2, True]",TRUE,64,black,135,left,down,high,black_high_135_down,white_high_45_down,2,left,0.3530258,1,120,5,3.2.2021,119.9868015
305,"['high', 2, 2, True]",TRUE,2,black,135,left,up,high,black_high_135_up,white_high_45_up,2,right,0.8814355,0,120,5,3.2.2021,119.9868015
306,"['high', 16, 2, True]",TRUE,16,black,135,left,up,high,black_high_135_up,white_high_45_up,2,left,0.2373439,1,120,5,3.2.2021,119.9868015
307,"['high', 1, 2, True]",TRUE,1,white,135,right,up,high,white_high_135_up,black_high_45_up,2,left,0.617123,0,120,5,3.2.2021,119.9868015
308,"['high', 2, 2, True]",TRUE,2,white,135,right,up,high,white_high_135_up,black_high_45_up,2,right,0.2745008,1,120,5,3.2.2021,119.9868015
309,"['low', 4, 2, True]",TRUE,4,black,135,left,up,low,black_low_135_up,white_low_45_up,2,left,0.0782887,1,120,5,3.2.2021,119.9868015
310,"['high', 2, 2, True]",TRUE,2,white,135,right,up,high,white_high_135_up,black_high_45_up,2,right,0.1243578,1,120,5,3.2.2021,119.9868015
311,"['low', 8, 2, True]",TRUE,8,black,135,left,up,low,black_low_135_up,white_low_45_up,2,left,0.2051367,1,120,5,3.2.2021,119.9868015
312,"['low', 4, 2, True]",TRUE,4,black,45,right,up,low,black_low_45_up,white_low_135_up,2,right,0.0315939,1,120,5,3.2.2021,119.9868015
313,"['low', 2, 2, True]",TRUE,2,black,45,right,up,low,black_low_45_up,white_low_135_up,2,right,0.2017274,1,120,5,3.2.2021,119.9868015
314,"['high', 64, 2, True]",TRUE,64,black,135,left,down,high,black_high_135_down,white_high_45_down,2,left,0.2792774,1,120,5,3.2.2021,119.9868015
315,"['high', 2, 2, True]",TRUE,2,white,45,left,down,high,white_high_45_down,black_high_135_down,2,left,0.2445007,1,120,5,3.2.2021,119.9868015
316,"['high', 64, 2, True]",TRUE,64,black,45,right,up,high,black_high_45_up,white_high_135_up,2,right,0.124834,1,120,5,3.2.2021,119.9868015
317,"['high', 32, 2, True]",TRUE,32,black,45,right,up,high,black_high_45_up,white_high_135_up,2,right,0.6129782,1,120,5,3.2.2021,119.9868015
318,"['low', 16, 2, True]",TRUE,16,black,45,right,down,low,black_low_45_down,white_low_135_down,2,right,0.2239208,1,120,5,3.2.2021,119.9868015
319,"['low', 2, 2, True]",TRUE,2,white,135,right,down,low,white_low_135_down,black_low_45_down,2,right,0.0936621,1,120,5,3.2.2021,119.9868015
320,"['low', 4, 2, True]",TRUE,4,white,45,left,down,low,white_low_45_down,black_low_135_down,2,left,0.019952,1,120,5,3.2.2021,119.9868015
321,"['low', 16, 2, True]",TRUE,16,white,135,right,down,low,white_low_135_down,black_low_45_down,2,right,0.1381135,1,120,5,3.2.2021,119.9868015
322,"['high', 64, 2, True]",TRUE,64,black,45,right,down,high,black_high_45_down,white_high_135_down,2,right,0.2903468,1,120,5,3.2.2021,119.9868015
323,"['high', 64, 2, True]",TRUE,64,white,45,left,down,high,white_high_45_down,black_high_135_down,2,left,0.3354348,1,120,5,3.2.2021,119.9868015
324,"['high', 32, 2, True]",TRUE,32,white,45,left,down,high,white_high_45_down,black_high_135_down,2,left,0.0789547,1,120,5,3.2.2021,119.9868015
325,"['low', 16, 2, True]",TRUE,16,white,45,left,up,low,white_low_45_up,black_low_135_up,2,left,0.4350572,1,120,5,3.2.2021,119.9868015
326,"['low', 16, 2, True]",TRUE,16,black,135,left,up,low,black_low_135_up,white_low_45_up,2,left,0.330078,1,120,5,3.2.2021,119.9868015
327,"['low', 64, 2, True]",TRUE,64,white,135,right,up,low,white_low_135_up,black_low_45_up,2,right,0.2770698,1,120,5,3.2.2021,119.9868015
328,"['low', 8, 2, True]",TRUE,8,white,45,left,up,low,white_low_45_up,black_low_135_up,2,left,0.2729947,1,120,5,3.2.2021,119.9868015
329,"['high', 16, 2, True]",TRUE,16,white,45,left,up,high,white_high_45_up,black_high_135_up,2,left,0.2613269,1,120,5,3.2.2021,119.9868015
330,"['low', 16, 2, True]",TRUE,16,black,45,right,up,low,black_low_45_up,white_low_135_up,2,right,0.2638964,1,120,5,3.2.2021,119.9868015
331,"['low', 2, 2, True]",TRUE,2,white,135,right,up,low,white_low_135_up,black_low_45_up,2,right,0.1281087,1,120,5,3.2.2021,119.9868015
332,"['low', 2, 2, True]",TRUE,2,white,45,left,down,low,white_low_45_down,black_low_135_down,2,left,0.0832846,1,120,5,3.2.2021,119.9868015
333,"['low', 1, 2, True]",TRUE,1,white,45,left,up,low,white_low_45_up,black_low_135_up,2,left,2.6539352,1,120,5,3.2.2021,119.9868015
334,"['high', 64, 2, True]",TRUE,64,white,135,right,down,high,white_high_135_down,black_high_45_down,2,right,0.2962923,1,120,5,3.2.2021,119.9868015
335,"['low', 2, 2, True]",TRUE,2,white,135,right,down,low,white_low_135_down,black_low_45_down,2,right,0.6694509,1,120,5,3.2.2021,119.9868015
336,"['high', 3, 60, False]",FALSE,3,black,45,right,up,high,black_high_45_up,white_high_135_up,60,right,0.4012388,1,120,5,3.2.2021,119.9868015
337,"['low', 3, 2, True]",TRUE,3,white,45,left,down,low,white_low_45_down,black_low_135_down,2,left,0.2363497,1,120,5,3.2.2021,119.9868015
338,"['low', 8, 2, True]",TRUE,8,black,135,left,up,low,black_low_135_up,white_low_45_up,2,left,0.1952978,1,120,5,3.2.2021,119.9868015
339,"['low', 4, 2, True]",TRUE,4,white,135,right,down,low,white_low_135_down,black_low_45_down,2,right,0.4638086,1,120,5,3.2.2021,119.9868015
340,"['low', 16, 2, True]",TRUE,16,white,135,right,down,low,white_low_135_down,black_low_45_down,2,right,0.2471301,1,120,5,3.2.2021,119.9868015
341,"['low', 2, 2, True]",TRUE,2,black,45,right,up,low,black_low_45_up,white_low_135_up,2,left,0.5411325,0,120,5,3.2.2021,119.9868015
342,"['high', 1, 2, True]",TRUE,1,black,135,left,up,high,black_high_135_up,white_high_45_up,2,left,0.3998207,1,120,5,3.2.2021,119.9868015
343,"['low', 1, 2, True]",TRUE,1,black,135,left,down,low,black_low_135_down,white_low_45_down,2,right,0.4667255,0,120,5,3.2.2021,119.9868015
344,"['high', 64, 2, True]",TRUE,64,white,135,right,up,high,white_high_135_up,black_high_45_up,2,right,0.290999,1,120,5,3.2.2021,119.9868015
345,"['high', 3, 2, True]",TRUE,3,white,45,left,up,high,white_high_45_up,black_high_135_up,2,right,0.6930448,0,120,5,3.2.2021,119.9868015
346,"['low', 64, 2, True]",TRUE,64,white,135,right,up,low,white_low_135_up,black_low_45_up,2,right,0.1235093,1,120,5,3.2.2021,119.9868015
347,"['low', 3, 2, True]",TRUE,3,black,45,right,down,low,black_low_45_down,white_low_135_down,2,right,0.1967155,1,120,5,3.2.2021,119.9868015
348,"['high', 3, 2, True]",TRUE,3,black,45,right,down,high,black_high_45_down,white_high_135_down,2,right,0.1917581,1,120,5,3.2.2021,119.9868015
349,"['high', 1, 2, True]",TRUE,1,black,135,left,up,high,black_high_135_up,white_high_45_up,2,right,0.3295124,0,120,5,3.2.2021,119.9868015
350,"['low', 1, 2, True]",TRUE,1,black,45,right,down,low,black_low_45_down,white_low_135_down,2,left,0.7946918,0,120,5,3.2.2021,119.9868015
351,"['high', 3, 60, False]",FALSE,3,black,135,left,down,high,black_high_135_down,white_high_45_down,60,left,0.4191394,1,120,5,3.2.2021,119.9868015
352,"['low', 2, 2, True]",TRUE,2,black,135,left,down,low,black_low_135_down,white_low_45_down,2,right,0.2987668,0,120,5,3.2.2021,119.9868015
353,"['low', 1, 2, True]",TRUE,1,white,45,left,down,low,white_low_45_down,black_low_135_down,2,left,0.3633557,1,120,5,3.2.2021,119.9868015
354,"['low', 2, 2, True]",TRUE,2,white,135,right,down,low,white_low_135_down,black_low_45_down,2,right,0.1844579,1,120,5,3.2.2021,119.9868015
355,"['high', 4, 2, True]",TRUE,4,black,135,left,up,high,black_high_135_up,white_high_45_up,2,left,0.6523199,1,120,5,3.2.2021,119.9868015
356,"['high', 8, 2, True]",TRUE,8,white,45,left,down,high,white_high_45_down,black_high_135_down,2,left,0.2451759,1,120,5,3.2.2021,119.9868015
357,"['high', 32, 2, True]",TRUE,32,black,135,left,down,high,black_high_135_down,white_high_45_down,2,left,0.3078859,1,120,5,3.2.2021,119.9868015
358,"['high', 32, 2, True]",TRUE,32,white,45,left,down,high,white_high_45_down,black_high_135_down,2,left,0.2875225,1,120,5,3.2.2021,119.9868015
359,"['high', 1, 2, True]",TRUE,1,white,45,left,down,high,white_high_45_down,black_high_135_down,2,left,0.1634665,1,120,5,3.2.2021,119.9868015
360,"['high', 32, 2, True]",TRUE,32,white,135,right,up,high,white_high_135_up,black_high_45_up,2,right,0.3225819,1,120,5,3.2.2021,119.9868015
361,"['high', 64, 2, True]",TRUE,64,black,45,right,up,high,black_high_45_up,white_high_135_up,2,right,0.2901484,1,120,5,3.2.2021,119.9868015
362,"['high', 1, 2, True]",TRUE,1,white,135,right,down,high,white_high_135_down,black_high_45_down,2,left,1.0740244,0,120,5,3.2.2021,119.9868015
363,"['low', 3, 2, True]",TRUE,3,black,135,left,up,low,black_low_135_up,white_low_45_up,2,right,0.3215802,0,120,5,3.2.2021,119.9868015
364,"['low', 1, 2, False]",FALSE,1,black,135,left,up,low,black_low_135_up,white_low_45_up,2,left,1.1278343,1,120,5,3.2.2021,119.9868015
365,"['low', 1, 2, True]",TRUE,1,black,135,left,down,low,black_low_135_down,white_low_45_down,2,left,0.4188055,1,120,5,3.2.2021,119.9868015
366,"['low', 4, 2, True]",TRUE,4,white,135,right,up,low,white_low_135_up,black_low_45_up,2,right,0.3423536,1,120,5,3.2.2021,119.9868015
367,"['low', 2, 2, True]",TRUE,2,black,135,left,up,low,black_low_135_up,white_low_45_up,2,left,0.6344326,1,120,5,3.2.2021,119.9868015
368,"['low', 64, 2, True]",TRUE,64,white,135,right,up,low,white_low_135_up,black_low_45_up,2,right,0.2999942,1,120,5,3.2.2021,119.9868015
369,"['low', 2, 2, True]",TRUE,2,black,135,left,up,low,black_low_135_up,white_low_45_up,2,left,0.7911633,1,120,5,3.2.2021,119.9868015
370,"['low', 1, 2, False]",FALSE,1,black,45,right,up,low,black_low_45_up,white_low_135_up,2,left,1.20838,0,120,5,3.2.2021,119.9868015
371,"['low', 1, 2, False]",FALSE,1,black,45,right,up,low,black_low_45_up,white_low_135_up,2,right,1.2476327,1,120,5,3.2.2021,119.9868015
372,"['high', 64, 2, True]",TRUE,64,white,45,left,down,high,white_high_45_down,black_high_135_down,2,left,0.4414221,1,120,5,3.2.2021,119.9868015
373,"['low', 1, 2, False]",FALSE,1,white,45,left,up,low,white_low_45_up,black_low_135_up,2,left,0.9295204,1,120,5,3.2.2021,119.9868015
374,"['high', 1, 2, True]",TRUE,1,black,45,right,down,high,black_high_45_down,white_high_135_down,2,left,0.3795786,0,120,5,3.2.2021,119.9868015
375,"['low', 64, 2, True]",TRUE,64,black,45,right,up,low,black_low_45_up,white_low_135_up,2,right,0.2713592,1,120,5,3.2.2021,119.9868015
376,"['high', 1, 2, True]",TRUE,1,black,45,right,up,high,black_high_45_up,white_high_135_up,2,left,0.4892927,0,120,5,3.2.2021,119.9868015
377,"['low', 32, 2, True]",TRUE,32,white,45,left,down,low,white_low_45_down,black_low_135_down,2,left,0.2746382,1,120,5,3.2.2021,119.9868015
378,"['low', 64, 2, True]",TRUE,64,black,135,left,up,low,black_low_135_up,white_low_45_up,2,left,0.2850558,1,120,5,3.2.2021,119.9868015
379,"['high', 4, 2, True]",TRUE,4,white,135,right,up,high,white_high_135_up,black_high_45_up,2,right,0.3520494,1,120,5,3.2.2021,119.9868015
380,"['low', 2, 2, True]",TRUE,2,white,45,left,down,low,white_low_45_down,black_low_135_down,2,left,0.1086043,1,120,5,3.2.2021,119.9868015
381,"['high', 1, 2, True]",TRUE,1,white,135,right,down,high,white_high_135_down,black_high_45_down,2,right,0.2976127,1,120,5,3.2.2021,119.9868015
382,"['high', 2, 2, True]",TRUE,2,black,45,right,down,high,black_high_45_down,white_high_135_down,2,left,1.6441497,0,120,5,3.2.2021,119.9868015
383,"['high', 16, 2, True]",TRUE,16,white,135,right,down,high,white_high_135_down,black_high_45_down,2,right,0.3264062,1,120,5,3.2.2021,119.9868015
384,"['low', 32, 2, True]",TRUE,32,white,45,left,down,low,white_low_45_down,black_low_135_down,2,left,0.2343544,1,120,5,3.2.2021,119.9868015
385,"['high', 16, 2, True]",TRUE,16,white,135,right,up,high,white_high_135_up,black_high_45_up,2,right,0.46824,1,120,5,3.2.2021,119.9868015
386,"['low', 1, 2, True]",TRUE,1,black,135,left,up,low,black_low_135_up,white_low_45_up,2,right,0.0511174,0,120,5,3.2.2021,119.9868015
387,"['low', 1, 2, True]",TRUE,1,white,45,left,up,low,white_low_45_up,black_low_135_up,2,left,0.2414336,1,120,5,3.2.2021,119.9868015
388,"['low', 64, 2, True]",TRUE,64,black,45,right,down,low,black_low_45_down,white_low_135_down,2,right,0.1274245,1,120,5,3.2.2021,119.9868015
389,"['low', 64, 2, True]",TRUE,64,black,135,left,up,low,black_low_135_up,white_low_45_up,2,left,0.0314107,1,120,5,3.2.2021,119.9868015
390,"['low', 64, 2, True]",TRUE,64,white,135,right,up,low,white_low_135_up,black_low_45_up,2,right,0.404124,1,120,5,3.2.2021,119.9868015
391,"['high', 64, 2, True]",TRUE,64,white,45,left,up,high,white_high_45_up,black_high_135_up,2,left,0.2734015,1,120,5,3.2.2021,119.9868015
392,"['low', 64, 2, True]",TRUE,64,black,45,right,down,low,black_low_45_down,white_low_135_down,2,right,0.2904486,1,120,5,3.2.2021,119.9868015
393,"['high', 1, 2, True]",TRUE,1,white,45,left,up,high,white_high_45_up,black_high_135_up,2,left,0.2270567,1,120,5,3.2.2021,119.9868015
394,"['high', 3, 2, True]",TRUE,3,black,135,left,up,high,black_high_135_up,white_high_45_up,2,right,0.2908093,0,120,5,3.2.2021,119.9868015
395,"['low', 1, 2, False]",FALSE,1,white,45,left,up,low,white_low_45_up,black_low_135_up,2,left,0.3189809,1,120,5,3.2.2021,119.9868015
396,"['high', 4, 2, True]",TRUE,4,white,135,right,up,high,white_high_135_up,black_high_45_up,2,left,0.6997333,0,120,5,3.2.2021,119.9868015
397,"['low', 1, 2, True]",TRUE,1,black,135,left,down,low,black_low_135_down,white_low_45_down,2,right,1.0892772,0,120,5,3.2.2021,119.9868015
398,"['low', 1, 2, True]",TRUE,1,black,135,left,down,low,black_low_135_down,white_low_45_down,2,right,0.1629105,0,120,5,3.2.2021,119.9868015
399,"['high', 2, 2, True]",TRUE,2,black,135,left,down,high,black_high_135_down,white_high_45_down,2,right,0.2440664,0,120,5,3.2.2021,119.9868015
400,"['high', 2, 2, True]",TRUE,2,black,135,left,down,high,black_high_135_down,white_high_45_down,2,left,0.481569,1,120,5,3.2.2021,119.9868015
401,"['low', 2, 2, True]",TRUE,2,black,135,left,up,low,black_low_135_up,white_low_45_up,2,right,1.0212932,0,120,5,3.2.2021,119.9868015
402,"['low', 4, 2, True]",TRUE,4,white,135,right,up,low,white_low_135_up,black_low_45_up,2,right,0.2413663,1,120,5,3.2.2021,119.9868015
403,"['high', 4, 2, True]",TRUE,4,black,45,right,up,high,black_high_45_up,white_high_135_up,2,right,0.3654859,1,120,5,3.2.2021,119.9868015
404,"['low', 3, 2, True]",TRUE,3,black,45,right,down,low,black_low_45_down,white_low_135_down,2,right,0.9145863,1,120,5,3.2.2021,119.9868015
405,"['high', 1, 2, False]",FALSE,1,black,45,right,up,high,black_high_45_up,white_high_135_up,2,right,0.7342928,1,120,5,3.2.2021,119.9868015
406,"['low', 8, 2, True]",TRUE,8,black,135,left,up,low,black_low_135_up,white_low_45_up,2,left,0.2152191,1,120,5,3.2.2021,119.9868015
407,"['low', 1, 2, True]",TRUE,1,white,45,left,down,low,white_low_45_down,black_low_135_down,2,left,0.1396717,1,120,5,3.2.2021,119.9868015
408,"['low', 32, 2, True]",TRUE,32,black,45,right,down,low,black_low_45_down,white_low_135_down,2,right,0.2750179,1,120,5,3.2.2021,119.9868015
409,"['high', 8, 2, True]",TRUE,8,black,45,right,up,high,black_high_45_up,white_high_135_up,2,right,0.0666017,1,120,5,3.2.2021,119.9868015
410,"['high', 4, 2, True]",TRUE,4,white,45,left,down,high,white_high_45_down,black_high_135_down,2,left,0.0118435,1,120,5,3.2.2021,119.9868015
411,"['low', 3, 2, True]",TRUE,3,black,45,right,up,low,black_low_45_up,white_low_135_up,2,right,0.1981617,1,120,5,3.2.2021,119.9868015
412,"['low', 64, 2, True]",TRUE,64,black,45,right,up,low,black_low_45_up,white_low_135_up,2,right,0.2808701,1,120,5,3.2.2021,119.9868015
413,"['low', 64, 2, True]",TRUE,64,black,45,right,down,low,black_low_45_down,white_low_135_down,2,right,0.2859876,1,120,5,3.2.2021,119.9868015
414,"['high', 64, 2, True]",TRUE,64,white,135,right,down,high,white_high_135_down,black_high_45_down,2,right,0.3218439,1,120,5,3.2.2021,119.9868015
415,"['low', 32, 2, True]",TRUE,32,white,45,left,down,low,white_low_45_down,black_low_135_down,2,left,0.2815563,1,120,5,3.2.2021,119.9868015
416,"['high', 8, 2, True]",TRUE,8,black,135,left,down,high,black_high_135_down,white_high_45_down,2,left,0.1655506,1,120,5,3.2.2021,119.9868015
417,"['low', 2, 2, True]",TRUE,2,black,45,right,up,low,black_low_45_up,white_low_135_up,2,right,0.1530083,1,120,5,3.2.2021,119.9868015
418,"['high', 2, 2, True]",TRUE,2,black,45,right,up,high,black_high_45_up,white_high_135_up,2,right,0.2259968,1,120,5,3.2.2021,119.9868015
419,"['high', 64, 2, True]",TRUE,64,white,45,left,down,high,white_high_45_down,black_high_135_down,2,left,0.247065,1,120,5,3.2.2021,119.9868015
420,"['low', 64, 2, True]",TRUE,64,white,45,left,up,low,white_low_45_up,black_low_135_up,2,left,0.2374324,1,120,5,3.2.2021,119.9868015
421,"['low', 4, 2, True]",TRUE,4,black,45,right,down,low,black_low_45_down,white_low_135_down,2,right,0.2274848,1,120,5,3.2.2021,119.9868015
422,"['low', 1, 2, False]",FALSE,1,black,135,left,up,low,black_low_135_up,white_low_45_up,2,left,0.9297453,1,120,5,3.2.2021,119.9868015
423,"['high', 2, 2, True]",TRUE,2,white,135,right,up,high,white_high_135_up,black_high_45_up,2,right,0.1611669,1,120,5,3.2.2021,119.9868015
424,"['high', 8, 2, True]",TRUE,8,white,45,left,up,high,white_high_45_up,black_high_135_up,2,left,0.1074424,1,120,5,3.2.2021,119.9868015
425,"['high', 2, 2, True]",TRUE,2,black,135,left,up,high,black_high_135_up,white_high_45_up,2,right,0.3868251,0,120,5,3.2.2021,119.9868015
426,"['high', 1, 2, False]",FALSE,1,white,135,right,down,high,white_high_135_down,black_high_45_down,2,right,0.4901507,1,120,5,3.2.2021,119.9868015
427,"['low', 1, 2, False]",FALSE,1,black,135,left,up,low,black_low_135_up,white_low_45_up,2,left,1.5664519,1,120,5,3.2.2021,119.9868015
428,"['low', 64, 2, True]",TRUE,64,black,135,left,up,low,black_low_135_up,white_low_45_up,2,left,0.1243009,1,120,5,3.2.2021,119.9868015
429,"['high', 8, 2, True]",TRUE,8,white,135,right,up,high,white_high_135_up,black_high_45_up,2,right,0.0750721,1,120,5,3.2.2021,119.9868015
430,"['high', 32, 2, True]",TRUE,32,black,45,right,down,high,black_high_45_down,white_high_135_down,2,right,0.3692054,1,120,5,3.2.2021,119.9868015
431,"['low', 64, 2, True]",TRUE,64,white,45,left,down,low,white_low_45_down,black_low_135_down,2,left,0.2001252,1,120,5,3.2.2021,119.9868015
432,"['low', 8, 2, True]",TRUE,8,black,135,left,up,low,black_low_135_up,white_low_45_up,2,left,0.1132228,1,120,5,3.2.2021,119.9868015
433,"['low', 32, 2, True]",TRUE,32,white,45,left,up,low,white_low_45_up,black_low_135_up,2,left,0.3336658,1,120,5,3.2.2021,119.9868015
434,"['high', 3, 2, True]",TRUE,3,black,45,right,up,high,black_high_45_up,white_high_135_up,2,left,0.6754207,0,120,5,3.2.2021,119.9868015
435,"['high', 1, 2, False]",FALSE,1,black,45,right,up,high,black_high_45_up,white_high_135_up,2,left,0.4411831,0,120,5,3.2.2021,119.9868015
436,"['low', 4, 2, True]",TRUE,4,black,135,left,up,low,black_low_135_up,white_low_45_up,2,left,0.2643356,1,120,5,3.2.2021,119.9868015
437,"['low', 3, 2, True]",TRUE,3,white,45,left,up,low,white_low_45_up,black_low_135_up,2,left,0.2235794,1,120,5,3.2.2021,119.9868015
438,"['low', 4, 2, True]",TRUE,4,white,45,left,down,low,white_low_45_down,black_low_135_down,2,left,0.0642989,1,120,5,3.2.2021,119.9868015
439,"['high', 1, 2, False]",FALSE,1,black,45,right,down,high,black_high_45_down,white_high_135_down,2,right,2.6864695,1,120,5,3.2.2021,119.9868015
440,"['low', 3, 2, True]",TRUE,3,black,45,right,down,low,black_low_45_down,white_low_135_down,2,right,0.2126037,1,120,5,3.2.2021,119.9868015
441,"['low', 8, 2, True]",TRUE,8,white,135,right,up,low,white_low_135_up,black_low_45_up,2,right,0.164287,1,120,5,3.2.2021,119.9868015
442,"['low', 1, 2, False]",FALSE,1,white,135,right,down,low,white_low_135_down,black_low_45_down,2,right,0.2387484,1,120,5,3.2.2021,119.9868015
443,"['high', 8, 2, True]",TRUE,8,white,45,left,down,high,white_high_45_down,black_high_135_down,2,left,0.4819864,1,120,5,3.2.2021,119.9868015
444,"['high', 3, 2, True]",TRUE,3,white,45,left,down,high,white_high_45_down,black_high_135_down,2,left,1.0723401,1,120,5,3.2.2021,119.9868015
445,"['high', 16, 2, True]",TRUE,16,black,135,left,up,high,black_high_135_up,white_high_45_up,2,left,0.1446233,1,120,5,3.2.2021,119.9868015
446,"['low', 8, 2, True]",TRUE,8,white,135,right,down,low,white_low_135_down,black_low_45_down,2,right,0.4113354,1,120,5,3.2.2021,119.9868015
447,"['low', 64, 2, True]",TRUE,64,black,45,right,down,low,black_low_45_down,white_low_135_down,2,right,0.2240041,1,120,5,3.2.2021,119.9868015
448,"['high', 2, 2, True]",TRUE,2,black,45,right,down,high,black_high_45_down,white_high_135_down,2,right,0.0861342,1,120,5,3.2.2021,119.9868015
449,"['high', 2, 2, True]",TRUE,2,white,45,left,down,high,white_high_45_down,black_high_135_down,2,left,0.1917849,1,120,5,3.2.2021,119.9868015
450,"['low', 64, 2, True]",TRUE,64,black,45,right,up,low,black_low_45_up,white_low_135_up,2,right,0.1697435,1,120,5,3.2.2021,119.9868015
451,"['high', 16, 2, True]",TRUE,16,white,135,right,down,high,white_high_135_down,black_high_45_down,2,right,0.0828592,1,120,5,3.2.2021,119.9868015
452,"['low', 4, 2, True]",TRUE,4,black,45,right,up,low,black_low_45_up,white_low_135_up,2,right,0.1206214,1,120,5,3.2.2021,119.9868015
453,"['low', 8, 2, True]",TRUE,8,white,45,left,down,low,white_low_45_down,black_low_135_down,2,left,0.2609396,1,120,5,3.2.2021,119.9868015
454,"['high', 4, 2, True]",TRUE,4,black,45,right,up,high,black_high_45_up,white_high_135_up,2,right,0.0770558,1,120,5,3.2.2021,119.9868015
455,"['high', 3, 2, True]",TRUE,3,white,135,right,up,high,white_high_135_up,black_high_45_up,2,right,0.1069819,1,120,5,3.2.2021,119.9868015
456,"['low', 8, 2, True]",TRUE,8,black,45,right,down,low,black_low_45_down,white_low_135_down,2,right,0.4321079,1,120,5,3.2.2021,119.9868015
457,"['low', 4, 2, True]",TRUE,4,white,45,left,up,low,white_low_45_up,black_low_135_up,2,left,0.1267443,1,120,5,3.2.2021,119.9868015
458,"['high', 2, 2, True]",TRUE,2,black,45,right,down,high,black_high_45_down,white_high_135_down,2,right,0.1602578,1,120,5,3.2.2021,119.9868015
459,"['high', 32, 2, True]",TRUE,32,black,135,left,down,high,black_high_135_down,white_high_45_down,2,left,0.3089854,1,120,5,3.2.2021,119.9868015
460,"['low', 16, 2, True]",TRUE,16,white,45,left,up,low,white_low_45_up,black_low_135_up,2,left,0.3065581,1,120,5,3.2.2021,119.9868015
461,"['low', 64, 2, True]",TRUE,64,white,135,right,up,low,white_low_135_up,black_low_45_up,2,right,0.2657203,1,120,5,3.2.2021,119.9868015
462,"['high', 1, 2, False]",FALSE,1,black,45,right,down,high,black_high_45_down,white_high_135_down,2,right,1.7547728,1,120,5,3.2.2021,119.9868015
463,"['low', 3, 2, True]",TRUE,3,black,45,right,up,low,black_low_45_up,white_low_135_up,2,right,0.1011643,1,120,5,3.2.2021,119.9868015
464,"['high', 1, 2, False]",FALSE,1,black,45,right,down,high,black_high_45_down,white_high_135_down,2,right,1.0950844,1,120,5,3.2.2021,119.9868015
465,"['low', 64, 2, True]",TRUE,64,white,45,left,up,low,white_low_45_up,black_low_135_up,2,left,0.2723589,1,120,5,3.2.2021,119.9868015
466,"['low', 32, 2, True]",TRUE,32,white,45,left,down,low,white_low_45_down,black_low_135_down,2,left,0.2791093,1,120,5,3.2.2021,119.9868015
467,"['high', 3, 2, True]",TRUE,3,white,45,left,up,high,white_high_45_up,black_high_135_up,2,left,1.1550417,1,120,5,3.2.2021,119.9868015
468,"['high', 2, 2, True]",TRUE,2,black,45,right,down,high,black_high_45_down,white_high_135_down,2,left,0.2789066,0,120,5,3.2.2021,119.9868015
469,"['low', 32, 2, True]",TRUE,32,black,45,right,up,low,black_low_45_up,white_low_135_up,2,right,0.2614074,1,120,5,3.2.2021,119.9868015
470,"['low', 2, 2, True]",TRUE,2,white,135,right,down,low,white_low_135_down,black_low_45_down,2,right,0.0333263,1,120,5,3.2.2021,119.9868015
471,"['low', 16, 2, True]",TRUE,16,white,45,left,up,low,white_low_45_up,black_low_135_up,2,left,0.2024816,1,120,5,3.2.2021,119.9868015
472,"['high', 4, 2, True]",TRUE,4,white,135,right,up,high,white_high_135_up,black_high_45_up,2,right,0.0302165,1,120,5,3.2.2021,119.9868015
473,"['high', 4, 2, True]",TRUE,4,black,45,right,down,high,black_high_45_down,white_high_135_down,2,left,0.9141247,0,120,5,3.2.2021,119.9868015
474,"['low', 1, 2, True]",TRUE,1,white,45,left,up,low,white_low_45_up,black_low_135_up,2,left,0.253182,1,120,5,3.2.2021,119.9868015
475,"['low', 3, 2, True]",TRUE,3,white,45,left,down,low,white_low_45_down,black_low_135_down,2,left,0.0879969,1,120,5,3.2.2021,119.9868015
476,"['low', 16, 2, True]",TRUE,16,black,45,right,down,low,black_low_45_down,white_low_135_down,2,right,0.2866666,1,120,5,3.2.2021,119.9868015
477,"['low', 4, 2, True]",TRUE,4,black,45,right,up,low,black_low_45_up,white_low_135_up,2,right,0.2063359,1,120,5,3.2.2021,119.9868015
478,"['low', 1, 2, True]",TRUE,1,black,45,right,down,low,black_low_45_down,white_low_135_down,2,left,0.3743111,0,120,5,3.2.2021,119.9868015
479,"['high', 64, 2, True]",TRUE,64,black,45,right,up,high,black_high_45_up,white_high_135_up,2,right,0.2092763,1,120,5,3.2.2021,119.9868015
480,"['low', 8, 2, True]",TRUE,8,white,135,right,up,low,white_low_135_up,black_low_45_up,2,right,0.078239,1,120,5,3.2.2021,119.9868015
481,"['low', 32, 2, True]",TRUE,32,white,45,left,down,low,white_low_45_down,black_low_135_down,2,left,0.0743143,1,120,5,3.2.2021,119.9868015
482,"['high', 1, 2, False]",FALSE,1,black,135,left,down,high,black_high_135_down,white_high_45_down,2,left,0.9710688,1,120,5,3.2.2021,119.9868015
483,"['high', 3, 60, False]",FALSE,3,white,45,left,down,high,white_high_45_down,black_high_135_down,60,left,0.3803621,1,120,5,3.2.2021,119.9868015
484,"['high', 3, 60, False]",FALSE,3,white,135,right,down,high,white_high_135_down,black_high_45_down,60,right,0.3165982,1,120,5,3.2.2021,119.9868015
485,"['high', 8, 2, True]",TRUE,8,white,135,right,down,high,white_high_135_down,black_high_45_down,2,right,0.0094908,1,120,5,3.2.2021,119.9868015
486,"['low', 1, 2, False]",FALSE,1,black,45,right,up,low,black_low_45_up,white_low_135_up,2,left,1.4640611,0,120,5,3.2.2021,119.9868015
487,"['high', 4, 2, True]",TRUE,4,black,45,right,up,high,black_high_45_up,white_high_135_up,2,left,0.3245967,0,120,5,3.2.2021,119.9868015
488,"['high', 1, 2, True]",TRUE,1,black,135,left,up,high,black_high_135_up,white_high_45_up,2,left,0.7648412,1,120,5,3.2.2021,119.9868015
489,"['low', 16, 2, True]",TRUE,16,black,45,right,up,low,black_low_45_up,white_low_135_up,2,right,0.3961826,1,120,5,3.2.2021,119.9868015
490,"['high', 4, 2, True]",TRUE,4,black,135,left,up,high,black_high_135_up,white_high_45_up,2,left,1.2108599,1,120,5,3.2.2021,119.9868015
491,"['low', 1, 2, False]",FALSE,1,white,135,right,down,low,white_low_135_down,black_low_45_down,2,right,0.6605031,1,120,5,3.2.2021,119.9868015
492,"['high', 1, 2, True]",TRUE,1,white,45,left,down,high,white_high_45_down,black_high_135_down,2,left,0.1811468,1,120,5,3.2.2021,119.9868015
493,"['high', 8, 2, True]",TRUE,8,black,135,left,up,high,black_high_135_up,white_high_45_up,2,left,0.2921251,1,120,5,3.2.2021,119.9868015
494,"['high', 2, 2, True]",TRUE,2,white,135,right,up,high,white_high_135_up,black_high_45_up,2,left,0.7002807,0,120,5,3.2.2021,119.9868015
495,"['high', 64, 2, True]",TRUE,64,black,45,right,up,high,black_high_45_up,white_high_135_up,2,right,0.1498459,1,120,5,3.2.2021,119.9868015
496,"['low', 16, 2, True]",TRUE,16,black,45,right,down,low,black_low_45_down,white_low_135_down,2,right,0.2076299,1,120,5,3.2.2021,119.9868015
497,"['high', 64, 2, True]",TRUE,64,white,135,right,up,high,white_high_135_up,black_high_45_up,2,right,0.2955075,1,120,5,3.2.2021,119.9868015
498,"['low', 3, 2, True]",TRUE,3,white,135,right,up,low,white_low_135_up,black_low_45_up,2,right,0.0427824,1,120,5,3.2.2021,119.9868015
499,"['high', 3, 2, True]",TRUE,3,black,135,left,up,high,black_high_135_up,white_high_45_up,2,right,0.0083509,0,120,5,3.2.2021,119.9868015
500,"['low', 2, 2, True]",TRUE,2,black,45,right,up,low,black_low_45_up,white_low_135_up,2,right,0.9938592,1,120,5,3.2.2021,119.9868015
501,"['high', 1, 2, False]",FALSE,1,white,45,left,down,high,white_high_45_down,black_high_135_down,2,left,0.6903958,1,120,5,3.2.2021,119.9868015
502,"['high', 2, 2, True]",TRUE,2,white,135,right,down,high,white_high_135_down,black_high_45_down,2,right,0.0737225,1,120,5,3.2.2021,119.9868015
503,"['high', 2, 2, True]",TRUE,2,white,135,right,up,high,white_high_135_up,black_high_45_up,2,right,0.3792369,1,120,5,3.2.2021,119.9868015
504,"['high', 2, 2, True]",TRUE,2,black,135,left,down,high,black_high_135_down,white_high_45_down,2,left,0.1086837,1,120,5,3.2.2021,119.9868015
505,"['low', 8, 2, True]",TRUE,8,white,135,right,up,low,white_low_135_up,black_low_45_up,2,right,0.0711726,1,120,5,3.2.2021,119.9868015
506,"['low', 4, 2, True]",TRUE,4,white,135,right,up,low,white_low_135_up,black_low_45_up,2,right,0.5209426,1,120,5,3.2.2021,119.9868015
507,"['high', 8, 2, True]",TRUE,8,white,45,left,up,high,white_high_45_up,black_high_135_up,2,right,0.0375678,0,120,5,3.2.2021,119.9868015
508,"['low', 8, 2, True]",TRUE,8,black,45,right,down,low,black_low_45_down,white_low_135_down,2,right,0.2343589,1,120,5,3.2.2021,119.9868015
509,"['low', 64, 2, True]",TRUE,64,white,45,left,down,low,white_low_45_down,black_low_135_down,2,left,0.2640621,1,120,5,3.2.2021,119.9868015
510,"['low', 8, 2, True]",TRUE,8,white,45,left,down,low,white_low_45_down,black_low_135_down,2,left,0.1076239,1,120,5,3.2.2021,119.9868015
511,"['high', 64, 2, True]",TRUE,64,black,45,right,down,high,black_high_45_down,white_high_135_down,2,right,0.2340646,1,120,5,3.2.2021,119.9868015
512,"['low', 1, 2, False]",FALSE,1,black,135,left,down,low,black_low_135_down,white_low_45_down,2,left,0.8815746,1,120,5,3.2.2021,119.9868015
513,"['high', 8, 2, True]",TRUE,8,black,135,left,up,high,black_high_135_up,white_high_45_up,2,left,0.3001223,1,120,5,3.2.2021,119.9868015
514,"['high', 32, 2, True]",TRUE,32,white,135,right,down,high,white_high_135_down,black_high_45_down,2,right,0.2672962,1,120,5,3.2.2021,119.9868015
515,"['low', 64, 2, True]",TRUE,64,white,45,left,up,low,white_low_45_up,black_low_135_up,2,left,0.3066975,1,120,5,3.2.2021,119.9868015
516,"['high', 1, 2, True]",TRUE,1,black,45,right,down,high,black_high_45_down,white_high_135_down,2,right,0.3953632,1,120,5,3.2.2021,119.9868015
517,"['high', 64, 2, True]",TRUE,64,black,135,left,down,high,black_high_135_down,white_high_45_down,2,left,0.081084,1,120,5,3.2.2021,119.9868015
518,"['low', 16, 2, True]",TRUE,16,white,45,left,down,low,white_low_45_down,black_low_135_down,2,left,0.2862104,1,120,5,3.2.2021,119.9868015
519,"['low', 8, 2, True]",TRUE,8,white,45,left,down,low,white_low_45_down,black_low_135_down,2,left,0.1102375,1,120,5,3.2.2021,119.9868015
520,"['low', 3, 2, True]",TRUE,3,black,135,left,down,low,black_low_135_down,white_low_45_down,2,left,0.777831,1,120,5,3.2.2021,119.9868015
521,"['high', 1, 2, False]",FALSE,1,black,45,right,up,high,black_high_45_up,white_high_135_up,2,right,1.3124787,1,120,5,3.2.2021,119.9868015
522,"['high', 3, 2, True]",TRUE,3,black,45,right,up,high,black_high_45_up,white_high_135_up,2,left,0.4468284,0,120,5,3.2.2021,119.9868015
523,"['high', 1, 2, False]",FALSE,1,black,45,right,up,high,black_high_45_up,white_high_135_up,2,right,0.9145237,1,120,5,3.2.2021,119.9868015
524,"['low', 32, 2, True]",TRUE,32,black,135,left,down,low,black_low_135_down,white_low_45_down,2,left,0.3644485,1,120,5,3.2.2021,119.9868015
525,"['low', 1, 2, True]",TRUE,1,white,135,right,up,low,white_low_135_up,black_low_45_up,2,right,0.7271957,1,120,5,3.2.2021,119.9868015
526,"['high', 1, 2, True]",TRUE,1,black,135,left,up,high,black_high_135_up,white_high_45_up,2,left,0.3763504,1,120,5,3.2.2021,119.9868015
527,"['low', 32, 2, True]",TRUE,32,white,135,right,down,low,white_low_135_down,black_low_45_down,2,right,0.4234796,1,120,5,3.2.2021,119.9868015
528,"['low', 2, 2, True]",TRUE,2,black,45,right,up,low,black_low_45_up,white_low_135_up,2,right,0.1553311,1,120,5,3.2.2021,119.9868015
529,"['high', 1, 2, False]",FALSE,1,white,45,left,down,high,white_high_45_down,black_high_135_down,2,left,0.7206744,1,120,5,3.2.2021,119.9868015
530,"['high', 1, 2, False]",FALSE,1,white,45,left,down,high,white_high_45_down,black_high_135_down,2,left,0.3839567,1,120,5,3.2.2021,119.9868015
531,"['high', 4, 2, True]",TRUE,4,black,45,right,up,high,black_high_45_up,white_high_135_up,2,left,0.1811368,0,120,5,3.2.2021,119.9868015
532,"['low', 2, 2, True]",TRUE,2,black,45,right,down,low,black_low_45_down,white_low_135_down,2,right,0.4924347,1,120,5,3.2.2021,119.9868015
533,"['high', 64, 2, True]",TRUE,64,white,45,left,down,high,white_high_45_down,black_high_135_down,2,left,0.1782569,1,120,5,3.2.2021,119.9868015
534,"['low', 32, 2, True]",TRUE,32,black,135,left,up,low,black_low_135_up,white_low_45_up,2,left,0.2573674,1,120,5,3.2.2021,119.9868015
535,"['high', 8, 2, True]",TRUE,8,black,135,left,down,high,black_high_135_down,white_high_45_down,2,left,0.1961319,1,120,5,3.2.2021,119.9868015
536,"['low', 16, 2, True]",TRUE,16,white,45,left,up,low,white_low_45_up,black_low_135_up,2,left,0.0663485,1,120,5,3.2.2021,119.9868015
537,"['high', 3, 2, True]",TRUE,3,black,135,left,up,high,black_high_135_up,white_high_45_up,2,left,0.0795739,1,120,5,3.2.2021,119.9868015
538,"['high', 4, 2, True]",TRUE,4,black,45,right,up,high,black_high_45_up,white_high_135_up,2,left,0.0654427,0,120,5,3.2.2021,119.9868015
539,"['low', 3, 2, True]",TRUE,3,white,45,left,up,low,white_low_45_up,black_low_135_up,2,left,0.1710167,1,120,5,3.2.2021,119.9868015
540,"['low', 64, 2, True]",TRUE,64,white,135,right,up,low,white_low_135_up,black_low_45_up,2,right,0.119326,1,120,5,3.2.2021,119.9868015
541,"['high', 64, 2, True]",TRUE,64,white,135,right,up,high,white_high_135_up,black_high_45_up,2,right,0.1203727,1,120,5,3.2.2021,119.9868015
542,"['high', 4, 2, True]",TRUE,4,white,45,left,down,high,white_high_45_down,black_high_135_down,2,left,0.3345455,1,120,5,3.2.2021,119.9868015
543,"['low', 2, 2, True]",TRUE,2,black,135,left,up,low,black_low_135_up,white_low_45_up,2,right,1.1829594,0,120,5,3.2.2021,119.9868015
544,"['high', 16, 2, True]",TRUE,16,black,45,right,down,high,black_high_45_down,white_high_135_down,2,right,0.3266885,1,120,5,3.2.2021,119.9868015
545,"['low', 16, 2, True]",TRUE,16,white,135,right,up,low,white_low_135_up,black_low_45_up,2,right,0.2130365,1,120,5,3.2.2021,119.9868015
546,"['low', 3, 2, True]",TRUE,3,black,45,right,down,low,black_low_45_down,white_low_135_down,2,right,0.4044356,1,120,5,3.2.2021,119.9868015
547,"['high', 1, 2, True]",TRUE,1,black,45,right,down,high,black_high_45_down,white_high_135_down,2,left,0.2429752,0,120,5,3.2.2021,119.9868015
548,"['high', 4, 2, True]",TRUE,4,black,45,right,down,high,black_high_45_down,white_high_135_down,2,right,0.2476953,1,120,5,3.2.2021,119.9868015
549,"['high', 2, 2, True]",TRUE,2,white,135,right,up,high,white_high_135_up,black_high_45_up,2,right,0.0385318,1,120,5,3.2.2021,119.9868015
550,"['low', 32, 2, True]",TRUE,32,black,135,left,up,low,black_low_135_up,white_low_45_up,2,left,0.3089963,1,120,5,3.2.2021,119.9868015
551,"['high', 64, 2, True]",TRUE,64,black,45,right,down,high,black_high_45_down,white_high_135_down,2,right,0.2593011,1,120,5,3.2.2021,119.9868015
552,"['low', 32, 2, True]",TRUE,32,white,135,right,down,low,white_low_135_down,black_low_45_down,2,right,0.2874166,1,120,5,3.2.2021,119.9868015
553,"['high', 3, 2, True]",TRUE,3,white,135,right,up,high,white_high_135_up,black_high_45_up,2,right,0.3983506,1,120,5,3.2.2021,119.9868015
554,"['low', 1, 2, False]",FALSE,1,white,45,left,up,low,white_low_45_up,black_low_135_up,2,left,0.3800435,1,120,5,3.2.2021,119.9868015
555,"['high', 32, 2, True]",TRUE,32,black,135,left,up,high,black_high_135_up,white_high_45_up,2,left,0.2857272,1,120,5,3.2.2021,119.9868015
556,"['low', 1, 2, False]",FALSE,1,white,135,right,up,low,white_low_135_up,black_low_45_up,2,right,0.4056073,1,120,5,3.2.2021,119.9868015
557,"['high', 3, 2, True]",TRUE,3,white,135,right,up,high,white_high_135_up,black_high_45_up,2,left,0.2553602,0,120,5,3.2.2021,119.9868015
558,"['low', 16, 2, True]",TRUE,16,white,135,right,up,low,white_low_135_up,black_low_45_up,2,right,0.2749327,1,120,5,3.2.2021,119.9868015
559,"['high', 32, 2, True]",TRUE,32,white,45,left,down,high,white_high_45_down,black_high_135_down,2,left,0.1485249,1,120,5,3.2.2021,119.9868015
560,"['low', 1, 2, True]",TRUE,1,black,45,right,up,low,black_low_45_up,white_low_135_up,2,left,0.1395621,0,120,5,3.2.2021,119.9868015
561,"['low', 2, 2, True]",TRUE,2,black,45,right,down,low,black_low_45_down,white_low_135_down,2,right,0.1336185,1,120,5,3.2.2021,119.9868015
562,"['high', 4, 2, True]",TRUE,4,white,135,right,down,high,white_high_135_down,black_high_45_down,2,right,0.1777546,1,120,5,3.2.2021,119.9868015
563,"['low', 16, 2, True]",TRUE,16,black,135,left,down,low,black_low_135_down,white_low_45_down,2,left,0.2583348,1,120,5,3.2.2021,119.9868015
564,"['low', 16, 2, True]",TRUE,16,white,45,left,up,low,white_low_45_up,black_low_135_up,2,left,0.2827171,1,120,5,3.2.2021,119.9868015
565,"['high', 2, 2, True]",TRUE,2,black,45,right,up,high,black_high_45_up,white_high_135_up,2,left,0.1676827,0,120,5,3.2.2021,119.9868015
566,"['low', 4, 2, True]",TRUE,4,black,135,left,down,low,black_low_135_down,white_low_45_down,2,left,0.1247898,1,120,5,3.2.2021,119.9868015
567,"['high', 16, 2, True]",TRUE,16,black,45,right,down,high,black_high_45_down,white_high_135_down,2,right,0.1994856,1,120,5,3.2.2021,119.9868015
568,"['low', 4, 2, True]",TRUE,4,black,45,right,up,low,black_low_45_up,white_low_135_up,2,right,0.4342984,1,120,5,3.2.2021,119.9868015
569,"['low', 2, 2, True]",TRUE,2,black,135,left,up,low,black_low_135_up,white_low_45_up,2,left,0.4182653,1,120,5,3.2.2021,119.9868015
570,"['low', 1, 2, True]",TRUE,1,white,45,left,down,low,white_low_45_down,black_low_135_down,2,left,0.1476353,1,120,5,3.2.2021,119.9868015
571,"['low', 32, 2, True]",TRUE,32,black,135,left,up,low,black_low_135_up,white_low_45_up,2,left,0.2414075,1,120,5,3.2.2021,119.9868015
572,"['high', 1, 2, True]",TRUE,1,white,135,right,down,high,white_high_135_down,black_high_45_down,2,right,0.1943451,1,120,5,3.2.2021,119.9868015
573,"['high', 3, 60, False]",FALSE,3,black,45,right,up,high,black_high_45_up,white_high_135_up,60,right,0.2779331,1,120,5,3.2.2021,119.9868015
574,"['low', 3, 2, True]",TRUE,3,black,45,right,up,low,black_low_45_up,white_low_135_up,2,left,0.6808082,0,120,5,3.2.2021,119.9868015
575,"['high', 4, 2, True]",TRUE,4,black,45,right,down,high,black_high_45_down,white_high_135_down,2,right,0.7251899,1,120,5,3.2.2021,119.9868015
576,"['high', 1, 2, False]",FALSE,1,white,135,right,up,high,white_high_135_up,black_high_45_up,2,right,0.3409271,1,120,5,3.2.2021,119.9868015
577,"['high', 3, 60, False]",FALSE,3,white,45,left,up,high,white_high_45_up,black_high_135_up,60,left,0.3625039,1,120,5,3.2.2021,119.9868015
578,"['high', 16, 2, True]",TRUE,16,white,45,left,up,high,white_high_45_up,black_high_135_up,2,left,0.1758005,1,120,5,3.2.2021,119.9868015
579,"['low', 64, 2, True]",TRUE,64,black,135,left,down,low,black_low_135_down,white_low_45_down,2,left,0.2396698,1,120,5,3.2.2021,119.9868015
580,"['low', 1, 2, False]",FALSE,1,white,135,right,up,low,white_low_135_up,black_low_45_up,2,right,0.2971536,1,120,5,3.2.2021,119.9868015
581,"['low', 4, 2, True]",TRUE,4,white,45,left,up,low,white_low_45_up,black_low_135_up,2,left,0.1844644,1,120,5,3.2.2021,119.9868015
582,"['high', 3, 2, True]",TRUE,3,black,135,left,up,high,black_high_135_up,white_high_45_up,2,left,0.0199163,1,120,5,3.2.2021,119.9868015
583,"['low', 4, 2, True]",TRUE,4,white,135,right,up,low,white_low_135_up,black_low_45_up,2,right,0.1678686,1,120,5,3.2.2021,119.9868015
584,"['high', 16, 2, True]",TRUE,16,white,135,right,up,high,white_high_135_up,black_high_45_up,2,right,0.3413364,1,120,5,3.2.2021,119.9868015
585,"['low', 8, 2, True]",TRUE,8,white,135,right,down,low,white_low_135_down,black_low_45_down,2,right,0.2280781,1,120,5,3.2.2021,119.9868015
586,"['low', 16, 2, True]",TRUE,16,black,45,right,up,low,black_low_45_up,white_low_135_up,2,right,0.2565611,1,120,5,3.2.2021,119.9868015
587,"['low', 4, 2, True]",TRUE,4,white,135,right,up,low,white_low_135_up,black_low_45_up,2,right,0.0351754,1,120,5,3.2.2021,119.9868015
588,"['high', 1, 2, False]",FALSE,1,black,135,left,up,high,black_high_135_up,white_high_45_up,2,left,0.6963437,1,120,5,3.2.2021,119.9868015
589,"['high', 3, 2, True]",TRUE,3,white,135,right,down,high,white_high_135_down,black_high_45_down,2,left,1.1351053,0,120,5,3.2.2021,119.9868015
590,"['high', 4, 2, True]",TRUE,4,black,45,right,up,high,black_high_45_up,white_high_135_up,2,left,0.3005778,0,120,5,3.2.2021,119.9868015
591,"['low', 1, 2, False]",FALSE,1,white,45,left,up,low,white_low_45_up,black_low_135_up,2,right,0.3879981,0,120,5,3.2.2021,119.9868015
592,"['high', 3, 2, True]",TRUE,3,black,135,left,up,high,black_high_135_up,white_high_45_up,2,right,0.295059,0,120,5,3.2.2021,119.9868015
593,"['high', 4, 2, True]",TRUE,4,white,45,left,down,high,white_high_45_down,black_high_135_down,2,right,1.1758859,0,120,5,3.2.2021,119.9868015
594,"['high', 64, 2, True]",TRUE,64,black,45,right,up,high,black_high_45_up,white_high_135_up,2,right,0.2796319,1,120,5,3.2.2021,119.9868015
595,"['high', 3, 2, True]",TRUE,3,white,135,right,down,high,white_high_135_down,black_high_45_down,2,right,0.2504593,1,120,5,3.2.2021,119.9868015
596,"['high', 1, 2, True]",TRUE,1,white,135,right,down,high,white_high_135_down,black_high_45_down,2,left,0.3349717,0,120,5,3.2.2021,119.9868015
597,"['low', 16, 2, True]",TRUE,16,black,135,left,up,low,black_low_135_up,white_low_45_up,2,left,0.2338835,1,120,5,3.2.2021,119.9868015
598,"['high', 64, 2, True]",TRUE,64,black,135,left,down,high,black_high_135_down,white_high_45_down,2,left,0.2796772,1,120,5,3.2.2021,119.9868015
599,"['high', 3, 2, True]",TRUE,3,black,45,right,up,high,black_high_45_up,white_high_135_up,2,right,0.3618536,1,120,5,3.2.2021,119.9868015
600,"['low', 2, 2, True]",TRUE,2,black,45,right,down,low,black_low_45_down,white_low_135_down,2,right,0.4801786,1,120,5,3.2.2021,119.9868015
601,"['low', 16, 2, True]",TRUE,16,white,45,left,down,low,white_low_45_down,black_low_135_down,2,left,0.2273672,1,120,5,3.2.2021,119.9868015
602,"['low', 64, 2, True]",TRUE,64,white,135,right,up,low,white_low_135_up,black_low_45_up,2,right,1.0575442,1,120,5,3.2.2021,119.9868015
603,"['low', 1, 2, True]",TRUE,1,white,45,left,down,low,white_low_45_down,black_low_135_down,2,left,0.098171,1,120,5,3.2.2021,119.9868015
604,"['high', 1, 2, True]",TRUE,1,white,135,right,down,high,white_high_135_down,black_high_45_down,2,right,0.3031044,1,120,5,3.2.2021,119.9868015
605,"['high', 4, 2, True]",TRUE,4,black,135,left,up,high,black_high_135_up,white_high_45_up,2,left,0.2794129,1,120,5,3.2.2021,119.9868015
606,"['low', 16, 2, True]",TRUE,16,white,45,left,down,low,white_low_45_down,black_low_135_down,2,left,0.2633697,1,120,5,3.2.2021,119.9868015
607,"['high', 1, 2, True]",TRUE,1,white,45,left,down,high,white_high_45_down,black_high_135_down,2,left,0.1278676,1,120,5,3.2.2021,119.9868015
608,"['low', 16, 2, True]",TRUE,16,black,45,right,down,low,black_low_45_down,white_low_135_down,2,right,0.2316531,1,120,5,3.2.2021,119.9868015
609,"['high', 64, 2, True]",TRUE,64,black,45,right,down,high,black_high_45_down,white_high_135_down,2,right,0.2839071,1,120,5,3.2.2021,119.9868015
610,"['high', 4, 2, True]",TRUE,4,black,135,left,up,high,black_high_135_up,white_high_45_up,2,right,0.0675839,0,120,5,3.2.2021,119.9868015
611,"['high', 2, 2, True]",TRUE,2,black,45,right,down,high,black_high_45_down,white_high_135_down,2,left,0.0104484,0,120,5,3.2.2021,119.9868015
612,"['high', 16, 2, True]",TRUE,16,black,135,left,up,high,black_high_135_up,white_high_45_up,2,left,0.775739,1,120,5,3.2.2021,119.9868015
613,"['high', 16, 2, True]",TRUE,16,black,135,left,down,high,black_high_135_down,white_high_45_down,2,left,0.2807857,1,120,5,3.2.2021,119.9868015
614,"['low', 3, 2, True]",TRUE,3,white,45,left,up,low,white_low_45_up,black_low_135_up,2,left,0.1026366,1,120,5,3.2.2021,119.9868015
615,"['high', 2, 2, True]",TRUE,2,white,45,left,down,high,white_high_45_down,black_high_135_down,2,left,0.1320714,1,120,5,3.2.2021,119.9868015
616,"['low', 1, 2, True]",TRUE,1,white,135,right,up,low,white_low_135_up,black_low_45_up,2,right,0.0548068,1,120,5,3.2.2021,119.9868015
617,"['low', 1, 2, False]",FALSE,1,white,135,right,down,low,white_low_135_down,black_low_45_down,2,right,0.2205325,1,120,5,3.2.2021,119.9868015
618,"['low', 4, 2, True]",TRUE,4,black,135,left,up,low,black_low_135_up,white_low_45_up,2,left,0.190022,1,120,5,3.2.2021,119.9868015
619,"['high', 3, 2, True]",TRUE,3,black,135,left,down,high,black_high_135_down,white_high_45_down,2,left,0.0376045,1,120,5,3.2.2021,119.9868015
620,"['high', 64, 2, True]",TRUE,64,white,45,left,down,high,white_high_45_down,black_high_135_down,2,left,0.2227506,1,120,5,3.2.2021,119.9868015
621,"['low', 32, 2, True]",TRUE,32,black,135,left,down,low,black_low_135_down,white_low_45_down,2,left,0.0682768,1,120,5,3.2.2021,119.9868015
622,"['low', 1, 2, False]",FALSE,1,white,135,right,down,low,white_low_135_down,black_low_45_down,2,right,0.351972,1,120,5,3.2.2021,119.9868015
623,"['high', 2, 2, True]",TRUE,2,white,135,right,down,high,white_high_135_down,black_high_45_down,2,right,0.0341441,1,120,5,3.2.2021,119.9868015
624,"['low', 32, 2, True]",TRUE,32,black,135,left,down,low,black_low_135_down,white_low_45_down,2,left,0.2123293,1,120,5,3.2.2021,119.9868015
625,"['low', 8, 2, True]",TRUE,8,black,135,left,down,low,black_low_135_down,white_low_45_down,2,left,0.073487,1,120,5,3.2.2021,119.9868015
626,"['low', 3, 2, True]",TRUE,3,white,135,right,down,low,white_low_135_down,black_low_45_down,2,right,0.1167052,1,120,5,3.2.2021,119.9868015
627,"['low', 32, 2, True]",TRUE,32,white,135,right,down,low,white_low_135_down,black_low_45_down,2,right,0.1972458,1,120,5,3.2.2021,119.9868015
628,"['low', 8, 2, True]",TRUE,8,white,135,right,down,low,white_low_135_down,black_low_45_down,2,right,0.161032,1,120,5,3.2.2021,119.9868015
629,"['high', 1, 2, False]",FALSE,1,black,135,left,down,high,black_high_135_down,white_high_45_down,2,left,0.6226913,1,120,5,3.2.2021,119.9868015
630,"['high', 2, 2, True]",TRUE,2,black,45,right,up,high,black_high_45_up,white_high_135_up,2,right,0.182999,1,120,5,3.2.2021,119.9868015
631,"['high', 1, 2, True]",TRUE,1,white,45,left,up,high,white_high_45_up,black_high_135_up,2,left,0.1015978,1,120,5,3.2.2021,119.9868015
632,"['low', 1, 2, False]",FALSE,1,black,45,right,down,low,black_low_45_down,white_low_135_down,2,right,0.6387819,1,120,5,3.2.2021,119.9868015
633,"['high', 8, 2, True]",TRUE,8,white,135,right,down,high,white_high_135_down,black_high_45_down,2,right,0.100764,1,120,5,3.2.2021,119.9868015
634,"['low', 32, 2, True]",TRUE,32,white,45,left,up,low,white_low_45_up,black_low_135_up,2,left,0.1211296,1,120,5,3.2.2021,119.9868015
635,"['high', 8, 2, True]",TRUE,8,black,45,right,down,high,black_high_45_down,white_high_135_down,2,right,0.1017471,1,120,5,3.2.2021,119.9868015
636,"['high', 1, 2, False]",FALSE,1,black,135,left,down,high,black_high_135_down,white_high_45_down,2,left,0.3862524,1,120,5,3.2.2021,119.9868015
637,"['low', 64, 2, True]",TRUE,64,black,135,left,up,low,black_low_135_up,white_low_45_up,2,left,0.2816583,1,120,5,3.2.2021,119.9868015
638,"['low', 1, 2, False]",FALSE,1,white,45,left,down,low,white_low_45_down,black_low_135_down,2,left,0.9181707,1,120,5,3.2.2021,119.9868015
639,"['high', 2, 2, True]",TRUE,2,black,135,left,up,high,black_high_135_up,white_high_45_up,2,right,0.4405521,0,120,5,3.2.2021,119.9868015
640,"['high', 3, 2, True]",TRUE,3,white,135,right,up,high,white_high_135_up,black_high_45_up,2,right,0.1860211,1,120,5,3.2.2021,119.9868015
641,"['low', 4, 2, True]",TRUE,4,white,45,left,up,low,white_low_45_up,black_low_135_up,2,right,0.0342926,0,120,5,3.2.2021,119.9868015
642,"['low', 2, 2, True]",TRUE,2,white,135,right,down,low,white_low_135_down,black_low_45_down,2,right,0.4646179,1,120,5,3.2.2021,119.9868015
643,"['low', 3, 2, True]",TRUE,3,white,135,right,up,low,white_low_135_up,black_low_45_up,2,right,0.2229184,1,120,5,3.2.2021,119.9868015
644,"['high', 4, 2, True]",TRUE,4,white,45,left,up,high,white_high_45_up,black_high_135_up,2,right,0.626271,0,120,5,3.2.2021,119.9868015
645,"['low', 16, 2, True]",TRUE,16,white,135,right,up,low,white_low_135_up,black_low_45_up,2,right,0.1187689,1,120,5,3.2.2021,119.9868015
646,"['low', 1, 2, True]",TRUE,1,white,45,left,up,low,white_low_45_up,black_low_135_up,2,left,0.1433708,1,120,5,3.2.2021,119.9868015
647,"['high', 3, 2, True]",TRUE,3,black,135,left,down,high,black_high_135_down,white_high_45_down,2,left,0.8981394,1,120,5,3.2.2021,119.9868015
648,"['high', 16, 2, True]",TRUE,16,white,45,left,up,high,white_high_45_up,black_high_135_up,2,left,0.2481341,1,120,5,3.2.2021,119.9868015
649,"['high', 3, 60, False]",FALSE,3,black,45,right,down,high,black_high_45_down,white_high_135_down,60,right,0.3322733,1,120,5,3.2.2021,119.9868015
650,"['low', 2, 2, True]",TRUE,2,black,135,left,down,low,black_low_135_down,white_low_45_down,2,left,0.8461964,1,120,5,3.2.2021,119.9868015
651,"['high', 2, 2, True]",TRUE,2,black,45,right,down,high,black_high_45_down,white_high_135_down,2,right,0.2237209,1,120,5,3.2.2021,119.9868015
652,"['high', 8, 2, True]",TRUE,8,white,45,left,up,high,white_high_45_up,black_high_135_up,2,right,3.5585185,0,120,5,3.2.2021,119.9868015
653,"['low', 16, 2, True]",TRUE,16,black,135,left,up,low,black_low_135_up,white_low_45_up,2,left,0.2378166,1,120,5,3.2.2021,119.9868015
654,"['low', 64, 2, True]",TRUE,64,white,135,right,down,low,white_low_135_down,black_low_45_down,2,right,0.286437,1,120,5,3.2.2021,119.9868015
655,"['high', 32, 2, True]",TRUE,32,white,45,left,up,high,white_high_45_up,black_high_135_up,2,left,0.2047392,1,120,5,3.2.2021,119.9868015
656,"['low', 3, 2, True]",TRUE,3,white,135,right,up,low,white_low_135_up,black_low_45_up,2,right,0.14717,1,120,5,3.2.2021,119.9868015
657,"['high', 32, 2, True]",TRUE,32,black,135,left,up,high,black_high_135_up,white_high_45_up,2,left,0.3108716,1,120,5,3.2.2021,119.9868015
658,"['high', 3, 2, True]",TRUE,3,white,135,right,down,high,white_high_135_down,black_high_45_down,2,right,0.7334982,1,120,5,3.2.2021,119.9868015
659,"['low', 3, 2, True]",TRUE,3,black,135,left,up,low,black_low_135_up,white_low_45_up,2,right,0.0911062,0,120,5,3.2.2021,119.9868015
660,"['high', 32, 2, True]",TRUE,32,black,45,right,up,high,black_high_45_up,white_high_135_up,2,right,0.2655512,1,120,5,3.2.2021,119.9868015
661,"['high', 1, 2, False]",FALSE,1,white,135,right,up,high,white_high_135_up,black_high_45_up,2,right,0.3434423,1,120,5,3.2.2021,119.9868015
662,"['low', 32, 2, True]",TRUE,32,black,135,left,up,low,black_low_135_up,white_low_45_up,2,left,0.3159738,1,120,5,3.2.2021,119.9868015
663,"['low', 1, 2, False]",FALSE,1,black,45,right,down,low,black_low_45_down,white_low_135_down,2,left,1.3127311,0,120,5,3.2.2021,119.9868015
664,"['high', 8, 2, True]",TRUE,8,black,45,right,up,high,black_high_45_up,white_high_135_up,2,right,0.1284199,1,120,5,3.2.2021,119.9868015
665,"['high', 4, 2, True]",TRUE,4,black,135,left,up,high,black_high_135_up,white_high_45_up,2,left,0.2678662,1,120,5,3.2.2021,119.9868015
666,"['high', 2, 2, True]",TRUE,2,white,45,left,down,high,white_high_45_down,black_high_135_down,2,right,0.6387792,0,120,5,3.2.2021,119.9868015
667,"['high', 64, 2, True]",TRUE,64,white,45,left,down,high,white_high_45_down,black_high_135_down,2,left,0.1654533,1,120,5,3.2.2021,119.9868015
668,"['low', 1, 2, True]",TRUE,1,black,45,right,down,low,black_low_45_down,white_low_135_down,2,left,0.1437998,0,120,5,3.2.2021,119.9868015
669,"['low', 8, 2, True]",TRUE,8,black,135,left,up,low,black_low_135_up,white_low_45_up,2,left,0.1386365,1,120,5,3.2.2021,119.9868015
670,"['high', 3, 2, True]",TRUE,3,black,135,left,down,high,black_high_135_down,white_high_45_down,2,left,0.05484,1,120,5,3.2.2021,119.9868015
671,"['low', 3, 2, True]",TRUE,3,white,45,left,up,low,white_low_45_up,black_low_135_up,2,left,0.0304581,1,120,5,3.2.2021,119.9868015
672,"['low', 2, 2, True]",TRUE,2,white,135,right,up,low,white_low_135_up,black_low_45_up,2,right,0.0338715,1,120,5,3.2.2021,119.9868015
673,"['low', 8, 2, True]",TRUE,8,black,45,right,up,low,black_low_45_up,white_low_135_up,2,right,0.4697432,1,120,5,3.2.2021,119.9868015
674,"['high', 1, 2, True]",TRUE,1,white,135,right,down,high,white_high_135_down,black_high_45_down,2,right,0.1493365,1,120,5,3.2.2021,119.9868015
675,"['low', 3, 2, True]",TRUE,3,white,45,left,down,low,white_low_45_down,black_low_135_down,2,left,0.2217059,1,120,5,3.2.2021,119.9868015
676,"['low', 1, 2, True]",TRUE,1,black,135,left,up,low,black_low_135_up,white_low_45_up,2,right,0.0307098,0,120,5,3.2.2021,119.9868015
677,"['low', 1, 2, True]",TRUE,1,black,45,right,up,low,black_low_45_up,white_low_135_up,2,left,0.9266806,0,120,5,3.2.2021,119.9868015
678,"['high', 8, 2, True]",TRUE,8,black,45,right,up,high,black_high_45_up,white_high_135_up,2,right,0.1882023,1,120,5,3.2.2021,119.9868015
679,"['low', 1, 2, False]",FALSE,1,white,135,right,up,low,white_low_135_up,black_low_45_up,2,right,0.3871241,1,120,5,3.2.2021,119.9868015
680,"['low', 4, 2, True]",TRUE,4,white,135,right,up,low,white_low_135_up,black_low_45_up,2,right,0.2200161,1,120,5,3.2.2021,119.9868015
681,"['low', 2, 2, True]",TRUE,2,black,135,left,down,low,black_low_135_down,white_low_45_down,2,left,0.0877831,1,120,5,3.2.2021,119.9868015
682,"['high', 16, 2, True]",TRUE,16,black,45,right,up,high,black_high_45_up,white_high_135_up,2,right,0.3231452,1,120,5,3.2.2021,119.9868015
683,"['high', 1, 2, False]",FALSE,1,white,45,left,down,high,white_high_45_down,black_high_135_down,2,left,0.3687544,1,120,5,3.2.2021,119.9868015
684,"['low', 2, 2, True]",TRUE,2,black,135,left,up,low,black_low_135_up,white_low_45_up,2,right,0.0195854,0,120,5,3.2.2021,119.9868015
685,"['low', 8, 2, True]",TRUE,8,white,45,left,up,low,white_low_45_up,black_low_135_up,2,left,0.0584928,1,120,5,3.2.2021,119.9868015
686,"['low', 16, 2, True]",TRUE,16,black,45,right,up,low,black_low_45_up,white_low_135_up,2,right,0.3443911,1,120,5,3.2.2021,119.9868015
687,"['low', 1, 2, False]",FALSE,1,white,135,right,up,low,white_low_135_up,black_low_45_up,2,right,0.3773414,1,120,5,3.2.2021,119.9868015
688,"['high', 64, 2, True]",TRUE,64,black,135,left,down,high,black_high_135_down,white_high_45_down,2,left,0.3019076,1,120,5,3.2.2021,119.9868015
689,"['high', 64, 2, True]",TRUE,64,black,135,left,up,high,black_high_135_up,white_high_45_up,2,left,0.2492392,1,120,5,3.2.2021,119.9868015
690,"['high', 16, 2, True]",TRUE,16,black,45,right,up,high,black_high_45_up,white_high_135_up,2,right,0.224537,1,120,5,3.2.2021,119.9868015
691,"['high', 4, 2, True]",TRUE,4,white,45,left,up,high,white_high_45_up,black_high_135_up,2,left,0.2517745,1,120,5,3.2.2021,119.9868015
692,"['high', 64, 2, True]",TRUE,64,black,135,left,down,high,black_high_135_down,white_high_45_down,2,left,0.2537152,1,120,5,3.2.2021,119.9868015
693,"['high', 3, 60, False]",FALSE,3,white,135,right,up,high,white_high_135_up,black_high_45_up,60,right,0.5279444,1,120,5,3.2.2021,119.9868015
694,"['low', 4, 2, True]",TRUE,4,white,45,left,up,low,white_low_45_up,black_low_135_up,2,left,0.2749765,1,120,5,3.2.2021,119.9868015
695,"['high', 32, 2, True]",TRUE,32,white,45,left,down,high,white_high_45_down,black_high_135_down,2,left,0.1823801,1,120,5,3.2.2021,119.9868015
696,"['high', 1, 2, False]",FALSE,1,white,135,right,up,high,white_high_135_up,black_high_45_up,2,right,0.3783011,1,120,5,3.2.2021,119.9868015
697,"['low', 32, 2, True]",TRUE,32,white,45,left,down,low,white_low_45_down,black_low_135_down,2,left,0.2306127,1,120,5,3.2.2021,119.9868015
698,"['high', 3, 60, False]",FALSE,3,black,45,right,down,high,black_high_45_down,white_high_135_down,60,right,0.3874588,1,120,5,3.2.2021,119.9868015
699,"['low', 32, 2, True]",TRUE,32,black,45,right,down,low,black_low_45_down,white_low_135_down,2,right,0.3098617,1,120,5,3.2.2021,119.9868015
700,"['high', 8, 2, True]",TRUE,8,white,135,right,down,high,white_high_135_down,black_high_45_down,2,right,0.195786,1,120,5,3.2.2021,119.9868015
701,"['high', 16, 2, True]",TRUE,16,black,135,left,up,high,black_high_135_up,white_high_45_up,2,left,0.2411482,1,120,5,3.2.2021,119.9868015
702,"['low', 16, 2, True]",TRUE,16,white,45,left,down,low,white_low_45_down,black_low_135_down,2,left,0.1972673,1,120,5,3.2.2021,119.9868015
703,"['high', 4, 2, True]",TRUE,4,white,45,left,up,high,white_high_45_up,black_high_135_up,2,left,0.5749198,1,120,5,3.2.2021,119.9868015
704,"['high', 32, 2, True]",TRUE,32,white,45,left,up,high,white_high_45_up,black_high_135_up,2,left,0.0712207,1,120,5,3.2.2021,119.9868015
705,"['high', 1, 2, False]",FALSE,1,black,45,right,down,high,black_high_45_down,white_high_135_down,2,right,0.5231293,1,120,5,3.2.2021,119.9868015
