trial_number,trial_type,mask_present,cycle_number,first_color,first_orientation,correct_response,visual_field,spatial_frequency,first_stim,second_stim,stimulus_frame_duration,answer,rt,accuracy,frame_rate,participant,psychopyVersion,frame_rate_detected
0,"['low', 4, 2, True]",TRUE,4,white,135,right,up,low,white_low_135_up,black_low_45_up,2,right,0.1841387,1,120,6,3.2.2021,120.2852685
1,"['low', 2, 2, True]",TRUE,2,black,135,left,down,low,black_low_135_down,white_low_45_down,2,right,0.5778257,0,120,6,3.2.2021,120.2852685
2,"['low', 16, 2, True]",TRUE,16,black,45,right,down,low,black_low_45_down,white_low_135_down,2,right,0.5604918,1,120,6,3.2.2021,120.2852685
3,"['low', 4, 2, True]",TRUE,4,white,135,right,down,low,white_low_135_down,black_low_45_down,2,right,0.4774635,1,120,6,3.2.2021,120.2852685
4,"['low', 1, 2, False]",FALSE,1,black,45,right,up,low,black_low_45_up,white_low_135_up,2,right,1.2099195,1,120,6,3.2.2021,120.2852685
5,"['low', 32, 2, True]",TRUE,32,black,45,right,down,low,black_low_45_down,white_low_135_down,2,right,0.0139829,1,120,6,3.2.2021,120.2852685
6,"['low', 64, 2, True]",TRUE,64,black,135,left,down,low,black_low_135_down,white_low_45_down,2,right,0.519503,0,120,6,3.2.2021,120.2852685
7,"['high', 3, 2, True]",TRUE,3,black,45,right,up,high,black_high_45_up,white_high_135_up,2,right,2.8728976,1,120,6,3.2.2021,120.2852685
8,"['high', 64, 2, True]",TRUE,64,white,45,left,down,high,white_high_45_down,black_high_135_down,2,left,0.390256,1,120,6,3.2.2021,120.2852685
9,"['high', 32, 2, True]",TRUE,32,black,45,right,up,high,black_high_45_up,white_high_135_up,2,right,0.2472946,1,120,6,3.2.2021,120.2852685
10,"['high', 1, 2, True]",TRUE,1,white,45,left,down,high,white_high_45_down,black_high_135_down,2,left,0.8610152,1,120,6,3.2.2021,120.2852685
11,"['high', 1, 2, False]",FALSE,1,white,45,left,down,high,white_high_45_down,black_high_135_down,2,left,1.3360488,1,120,6,3.2.2021,120.2852685
12,"['low', 4, 2, True]",TRUE,4,black,135,left,down,low,black_low_135_down,white_low_45_down,2,right,2.804456,0,120,6,3.2.2021,120.2852685
13,"['high', 4, 2, True]",TRUE,4,white,135,right,down,high,white_high_135_down,black_high_45_down,2,right,0.4505643,1,120,6,3.2.2021,120.2852685
14,"['high', 4, 2, True]",TRUE,4,black,45,right,down,high,black_high_45_down,white_high_135_down,2,right,0.365687,1,120,6,3.2.2021,120.2852685
15,"['high', 3, 2, True]",TRUE,3,black,135,left,up,high,black_high_135_up,white_high_45_up,2,right,0.6365725,0,120,6,3.2.2021,120.2852685
16,"['high', 16, 2, True]",TRUE,16,white,45,left,up,high,white_high_45_up,black_high_135_up,2,left,0.241276,1,120,6,3.2.2021,120.2852685
17,"['low', 1, 2, False]",FALSE,1,white,45,left,up,low,white_low_45_up,black_low_135_up,2,right,0.9493602,0,120,6,3.2.2021,120.2852685
18,"['low', 1, 2, True]",TRUE,1,black,135,left,up,low,black_low_135_up,white_low_45_up,2,right,0.7299836,0,120,6,3.2.2021,120.2852685
19,"['low', 8, 2, True]",TRUE,8,white,135,right,down,low,white_low_135_down,black_low_45_down,2,right,0.3035137,1,120,6,3.2.2021,120.2852685
20,"['low', 1, 2, True]",TRUE,1,white,45,left,down,low,white_low_45_down,black_low_135_down,2,left,1.1176413,1,120,6,3.2.2021,120.2852685
21,"['high', 3, 2, True]",TRUE,3,white,135,right,down,high,white_high_135_down,black_high_45_down,2,right,0.4338142,1,120,6,3.2.2021,120.2852685
22,"['low', 64, 2, True]",TRUE,64,white,45,left,down,low,white_low_45_down,black_low_135_down,2,left,0.2834143,1,120,6,3.2.2021,120.2852685
23,"['high', 1, 2, False]",FALSE,1,black,135,left,up,high,black_high_135_up,white_high_45_up,2,left,2.247079,1,120,6,3.2.2021,120.2852685
24,"['low', 4, 2, True]",TRUE,4,black,45,right,down,low,black_low_45_down,white_low_135_down,2,left,2.312488,0,120,6,3.2.2021,120.2852685
25,"['high', 8, 2, True]",TRUE,8,black,135,left,up,high,black_high_135_up,white_high_45_up,2,right,0.9053478,0,120,6,3.2.2021,120.2852685
26,"['high', 3, 2, True]",TRUE,3,black,45,right,down,high,black_high_45_down,white_high_135_down,2,right,0.5302229,1,120,6,3.2.2021,120.2852685
27,"['high', 64, 2, True]",TRUE,64,black,135,left,up,high,black_high_135_up,white_high_45_up,2,left,0.2639751,1,120,6,3.2.2021,120.2852685
28,"['low', 64, 2, True]",TRUE,64,black,45,right,up,low,black_low_45_up,white_low_135_up,2,right,0.3053762,1,120,6,3.2.2021,120.2852685
29,"['high', 2, 2, True]",TRUE,2,black,45,right,down,high,black_high_45_down,white_high_135_down,2,right,1.6410584,1,120,6,3.2.2021,120.2852685
30,"['low', 2, 2, True]",TRUE,2,white,135,right,down,low,white_low_135_down,black_low_45_down,2,right,0.5778194,1,120,6,3.2.2021,120.2852685
31,"['high', 4, 2, True]",TRUE,4,black,45,right,up,high,black_high_45_up,white_high_135_up,2,right,0.6519257,1,120,6,3.2.2021,120.2852685
32,"['high', 2, 2, True]",TRUE,2,white,45,left,down,high,white_high_45_down,black_high_135_down,2,left,1.7757874,1,120,6,3.2.2021,120.2852685
33,"['low', 3, 2, True]",TRUE,3,black,135,left,down,low,black_low_135_down,white_low_45_down,2,right,2.5755046,0,120,6,3.2.2021,120.2852685
34,"['high', 4, 2, True]",TRUE,4,black,135,left,down,high,black_high_135_down,white_high_45_down,2,left,1.305655,1,120,6,3.2.2021,120.2852685
35,"['high', 8, 2, True]",TRUE,8,white,135,right,down,high,white_high_135_down,black_high_45_down,2,right,0.8554499,1,120,6,3.2.2021,120.2852685
36,"['low', 3, 2, True]",TRUE,3,white,45,left,up,low,white_low_45_up,black_low_135_up,2,left,0.6074765,1,120,6,3.2.2021,120.2852685
37,"['high', 3, 2, True]",TRUE,3,white,45,left,down,high,white_high_45_down,black_high_135_down,2,left,0.6864186,1,120,6,3.2.2021,120.2852685
38,"['high', 16, 2, True]",TRUE,16,white,45,left,down,high,white_high_45_down,black_high_135_down,2,left,0.2611229,1,120,6,3.2.2021,120.2852685
39,"['high', 64, 2, True]",TRUE,64,white,135,right,up,high,white_high_135_up,black_high_45_up,2,right,0.1326874,1,120,6,3.2.2021,120.2852685
40,"['low', 64, 2, True]",TRUE,64,black,135,left,up,low,black_low_135_up,white_low_45_up,2,left,0.2761503,1,120,6,3.2.2021,120.2852685
41,"['high', 4, 2, True]",TRUE,4,black,45,right,down,high,black_high_45_down,white_high_135_down,2,left,1.6137968,0,120,6,3.2.2021,120.2852685
42,"['high', 3, 2, True]",TRUE,3,white,45,left,up,high,white_high_45_up,black_high_135_up,2,right,0.5294111,0,120,6,3.2.2021,120.2852685
43,"['low', 16, 2, True]",TRUE,16,black,45,right,down,low,black_low_45_down,white_low_135_down,2,right,0.3016561,1,120,6,3.2.2021,120.2852685
44,"['low', 3, 2, True]",TRUE,3,white,45,left,down,low,white_low_45_down,black_low_135_down,2,right,1.4273544,0,120,6,3.2.2021,120.2852685
45,"['high', 16, 2, True]",TRUE,16,white,45,left,up,high,white_high_45_up,black_high_135_up,2,left,0.283802,1,120,6,3.2.2021,120.2852685
46,"['high', 32, 2, True]",TRUE,32,black,135,left,down,high,black_high_135_down,white_high_45_down,2,left,0.2559951,1,120,6,3.2.2021,120.2852685
47,"['high', 8, 2, True]",TRUE,8,black,135,left,down,high,black_high_135_down,white_high_45_down,2,left,0.0904464,1,120,6,3.2.2021,120.2852685
48,"['high', 3, 60, False]",FALSE,3,white,45,left,down,high,white_high_45_down,black_high_135_down,60,left,0.2637539,1,120,6,3.2.2021,120.2852685
49,"['high', 64, 2, True]",TRUE,64,black,45,right,up,high,black_high_45_up,white_high_135_up,2,right,0.2693372,1,120,6,3.2.2021,120.2852685
50,"['low', 3, 2, True]",TRUE,3,black,135,left,down,low,black_low_135_down,white_low_45_down,2,right,0.2784918,0,120,6,3.2.2021,120.2852685
51,"['high', 8, 2, True]",TRUE,8,black,45,right,up,high,black_high_45_up,white_high_135_up,2,right,0.2901188,1,120,6,3.2.2021,120.2852685
52,"['high', 1, 2, False]",FALSE,1,white,135,right,down,high,white_high_135_down,black_high_45_down,2,left,0.6937808,0,120,6,3.2.2021,120.2852685
53,"['high', 1, 2, True]",TRUE,1,black,45,right,down,high,black_high_45_down,white_high_135_down,2,left,0.6443581,0,120,6,3.2.2021,120.2852685
54,"['high', 16, 2, True]",TRUE,16,black,135,left,up,high,black_high_135_up,white_high_45_up,2,left,0.276792,1,120,6,3.2.2021,120.2852685
55,"['low', 3, 2, True]",TRUE,3,black,135,left,down,low,black_low_135_down,white_low_45_down,2,right,0.7996524,0,120,6,3.2.2021,120.2852685
56,"['low', 1, 2, False]",FALSE,1,black,135,left,down,low,black_low_135_down,white_low_45_down,2,left,2.369703,1,120,6,3.2.2021,120.2852685
57,"['high', 4, 2, True]",TRUE,4,black,45,right,down,high,black_high_45_down,white_high_135_down,2,left,0.6483708,0,120,6,3.2.2021,120.2852685
58,"['low', 2, 2, True]",TRUE,2,white,45,left,up,low,white_low_45_up,black_low_135_up,2,right,0.2294961,0,120,6,3.2.2021,120.2852685
59,"['high', 32, 2, True]",TRUE,32,white,135,right,down,high,white_high_135_down,black_high_45_down,2,right,1.0411982,1,120,6,3.2.2021,120.2852685
60,"['low', 1, 2, True]",TRUE,1,white,45,left,up,low,white_low_45_up,black_low_135_up,2,right,0.9614673,0,120,6,3.2.2021,120.2852685
61,"['high', 3, 60, False]",FALSE,3,white,45,left,down,high,white_high_45_down,black_high_135_down,60,left,0.2842249,1,120,6,3.2.2021,120.2852685
62,"['low', 32, 2, True]",TRUE,32,black,45,right,down,low,black_low_45_down,white_low_135_down,2,right,0.3317061,1,120,6,3.2.2021,120.2852685
63,"['low', 64, 2, True]",TRUE,64,white,45,left,up,low,white_low_45_up,black_low_135_up,2,left,0.2543418,1,120,6,3.2.2021,120.2852685
64,"['high', 1, 2, True]",TRUE,1,black,45,right,up,high,black_high_45_up,white_high_135_up,2,left,0.282186,0,120,6,3.2.2021,120.2852685
65,"['high', 1, 2, True]",TRUE,1,white,45,left,down,high,white_high_45_down,black_high_135_down,2,left,0.5263986,1,120,6,3.2.2021,120.2852685
66,"['high', 4, 2, True]",TRUE,4,white,45,left,down,high,white_high_45_down,black_high_135_down,2,left,0.4727007,1,120,6,3.2.2021,120.2852685
67,"['high', 64, 2, True]",TRUE,64,black,45,right,down,high,black_high_45_down,white_high_135_down,2,right,0.268325,1,120,6,3.2.2021,120.2852685
68,"['low', 32, 2, True]",TRUE,32,black,45,right,down,low,black_low_45_down,white_low_135_down,2,right,0.1778772,1,120,6,3.2.2021,120.2852685
69,"['high', 16, 2, True]",TRUE,16,black,45,right,up,high,black_high_45_up,white_high_135_up,2,right,2.8440977,1,120,6,3.2.2021,120.2852685
70,"['low', 64, 2, True]",TRUE,64,white,135,right,down,low,white_low_135_down,black_low_45_down,2,right,0.6710972,1,120,6,3.2.2021,120.2852685
71,"['high', 2, 2, True]",TRUE,2,black,45,right,up,high,black_high_45_up,white_high_135_up,2,right,0.5538922,1,120,6,3.2.2021,120.2852685
72,"['low', 16, 2, True]",TRUE,16,white,135,right,up,low,white_low_135_up,black_low_45_up,2,right,0.4188158,1,120,6,3.2.2021,120.2852685
73,"['low', 1, 2, True]",TRUE,1,black,45,right,up,low,black_low_45_up,white_low_135_up,2,right,0.5095357,1,120,6,3.2.2021,120.2852685
74,"['low', 16, 2, True]",TRUE,16,white,135,right,up,low,white_low_135_up,black_low_45_up,2,right,0.134863,1,120,6,3.2.2021,120.2852685
75,"['low', 3, 2, True]",TRUE,3,white,135,right,down,low,white_low_135_down,black_low_45_down,2,right,0.4601521,1,120,6,3.2.2021,120.2852685
76,"['high', 1, 2, True]",TRUE,1,black,45,right,down,high,black_high_45_down,white_high_135_down,2,right,0.3863922,1,120,6,3.2.2021,120.2852685
77,"['low', 1, 2, False]",FALSE,1,black,135,left,up,low,black_low_135_up,white_low_45_up,2,left,0.3335296,1,120,6,3.2.2021,120.2852685
78,"['high', 2, 2, True]",TRUE,2,white,135,right,up,high,white_high_135_up,black_high_45_up,2,right,0.8211638,1,120,6,3.2.2021,120.2852685
79,"['high', 16, 2, True]",TRUE,16,black,135,left,down,high,black_high_135_down,white_high_45_down,2,left,0.5164678,1,120,6,3.2.2021,120.2852685
80,"['high', 1, 2, True]",TRUE,1,white,135,right,up,high,white_high_135_up,black_high_45_up,2,right,0.4420644,1,120,6,3.2.2021,120.2852685
81,"['high', 4, 2, True]",TRUE,4,black,135,left,up,high,black_high_135_up,white_high_45_up,2,left,0.1357006,1,120,6,3.2.2021,120.2852685
82,"['low', 1, 2, False]",FALSE,1,white,45,left,up,low,white_low_45_up,black_low_135_up,2,left,0.7761383,1,120,6,3.2.2021,120.2852685
83,"['high', 32, 2, True]",TRUE,32,black,45,right,up,high,black_high_45_up,white_high_135_up,2,right,0.3320946,1,120,6,3.2.2021,120.2852685
84,"['low', 32, 2, True]",TRUE,32,white,135,right,up,low,white_low_135_up,black_low_45_up,2,right,0.2224655,1,120,6,3.2.2021,120.2852685
85,"['low', 4, 2, True]",TRUE,4,black,135,left,down,low,black_low_135_down,white_low_45_down,2,left,0.2518613,1,120,6,3.2.2021,120.2852685
86,"['low', 3, 2, True]",TRUE,3,black,135,left,down,low,black_low_135_down,white_low_45_down,2,left,0.0213569,1,120,6,3.2.2021,120.2852685
87,"['high', 3, 2, True]",TRUE,3,white,135,right,down,high,white_high_135_down,black_high_45_down,2,left,0.8903764,0,120,6,3.2.2021,120.2852685
88,"['low', 64, 2, True]",TRUE,64,black,45,right,up,low,black_low_45_up,white_low_135_up,2,right,0.2718868,1,120,6,3.2.2021,120.2852685
89,"['low', 16, 2, True]",TRUE,16,white,135,right,down,low,white_low_135_down,black_low_45_down,2,right,0.2468364,1,120,6,3.2.2021,120.2852685
90,"['low', 2, 2, True]",TRUE,2,black,45,right,up,low,black_low_45_up,white_low_135_up,2,right,0.3033829,1,120,6,3.2.2021,120.2852685
91,"['low', 1, 2, False]",FALSE,1,white,135,right,up,low,white_low_135_up,black_low_45_up,2,right,0.4493526,1,120,6,3.2.2021,120.2852685
92,"['high', 3, 60, False]",FALSE,3,white,135,right,up,high,white_high_135_up,black_high_45_up,60,right,0.2888667,1,120,6,3.2.2021,120.2852685
93,"['high', 16, 2, True]",TRUE,16,black,135,left,down,high,black_high_135_down,white_high_45_down,2,left,0.4076554,1,120,6,3.2.2021,120.2852685
94,"['low', 1, 2, False]",FALSE,1,white,135,right,down,low,white_low_135_down,black_low_45_down,2,left,0.9157009,0,120,6,3.2.2021,120.2852685
95,"['low', 2, 2, True]",TRUE,2,black,45,right,down,low,black_low_45_down,white_low_135_down,2,left,0.7615757,0,120,6,3.2.2021,120.2852685
96,"['low', 1, 2, True]",TRUE,1,white,135,right,down,low,white_low_135_down,black_low_45_down,2,left,0.4249615,0,120,6,3.2.2021,120.2852685
97,"['high', 32, 2, True]",TRUE,32,white,45,left,up,high,white_high_45_up,black_high_135_up,2,left,0.3289208,1,120,6,3.2.2021,120.2852685
98,"['low', 8, 2, True]",TRUE,8,white,135,right,up,low,white_low_135_up,black_low_45_up,2,left,0.0815417,0,120,6,3.2.2021,120.2852685
99,"['high', 32, 2, True]",TRUE,32,white,45,left,down,high,white_high_45_down,black_high_135_down,2,left,0.4554758,1,120,6,3.2.2021,120.2852685
100,"['high', 32, 2, True]",TRUE,32,white,135,right,down,high,white_high_135_down,black_high_45_down,2,right,0.2767712,1,120,6,3.2.2021,120.2852685
101,"['high', 4, 2, True]",TRUE,4,white,135,right,down,high,white_high_135_down,black_high_45_down,2,right,0.5466862,1,120,6,3.2.2021,120.2852685
102,"['high', 2, 2, True]",TRUE,2,white,45,left,down,high,white_high_45_down,black_high_135_down,2,left,0.4256019,1,120,6,3.2.2021,120.2852685
103,"['low', 16, 2, True]",TRUE,16,black,45,right,up,low,black_low_45_up,white_low_135_up,2,right,0.2787184,1,120,6,3.2.2021,120.2852685
104,"['low', 1, 2, True]",TRUE,1,black,45,right,down,low,black_low_45_down,white_low_135_down,2,right,0.3020327,1,120,6,3.2.2021,120.2852685
105,"['low', 64, 2, True]",TRUE,64,black,45,right,down,low,black_low_45_down,white_low_135_down,2,right,0.3000791,1,120,6,3.2.2021,120.2852685
106,"['high', 2, 2, True]",TRUE,2,white,135,right,up,high,white_high_135_up,black_high_45_up,2,right,0.4111155,1,120,6,3.2.2021,120.2852685
107,"['high', 1, 2, False]",FALSE,1,white,45,left,down,high,white_high_45_down,black_high_135_down,2,left,0.917782,1,120,6,3.2.2021,120.2852685
108,"['high', 32, 2, True]",TRUE,32,white,135,right,up,high,white_high_135_up,black_high_45_up,2,right,0.3472604,1,120,6,3.2.2021,120.2852685
109,"['high', 3, 2, True]",TRUE,3,black,45,right,up,high,black_high_45_up,white_high_135_up,2,right,0.2751549,1,120,6,3.2.2021,120.2852685
110,"['low', 32, 2, True]",TRUE,32,black,135,left,up,low,black_low_135_up,white_low_45_up,2,left,0.298604,1,120,6,3.2.2021,120.2852685
111,"['high', 3, 60, False]",FALSE,3,white,135,right,up,high,white_high_135_up,black_high_45_up,60,right,0.338738,1,120,6,3.2.2021,120.2852685
112,"['high', 32, 2, True]",TRUE,32,black,45,right,down,high,black_high_45_down,white_high_135_down,2,right,0.4922757,1,120,6,3.2.2021,120.2852685
113,"['low', 1, 2, True]",TRUE,1,white,135,right,up,low,white_low_135_up,black_low_45_up,2,left,0.6486692,0,120,6,3.2.2021,120.2852685
114,"['low', 2, 2, True]",TRUE,2,black,45,right,up,low,black_low_45_up,white_low_135_up,2,right,0.4358176,1,120,6,3.2.2021,120.2852685
115,"['low', 16, 2, True]",TRUE,16,white,135,right,down,low,white_low_135_down,black_low_45_down,2,right,0.3209457,1,120,6,3.2.2021,120.2852685
116,"['low', 1, 2, True]",TRUE,1,white,135,right,up,low,white_low_135_up,black_low_45_up,2,left,1.2412447,0,120,6,3.2.2021,120.2852685
117,"['low', 8, 2, True]",TRUE,8,white,45,left,up,low,white_low_45_up,black_low_135_up,2,left,0.321537,1,120,6,3.2.2021,120.2852685
118,"['low', 1, 2, True]",TRUE,1,black,135,left,down,low,black_low_135_down,white_low_45_down,2,left,0.4450766,1,120,6,3.2.2021,120.2852685
119,"['high', 3, 2, True]",TRUE,3,black,135,left,down,high,black_high_135_down,white_high_45_down,2,left,0.3387407,1,120,6,3.2.2021,120.2852685
120,"['low', 32, 2, True]",TRUE,32,white,135,right,up,low,white_low_135_up,black_low_45_up,2,right,0.5268987,1,120,6,3.2.2021,120.2852685
121,"['low', 3, 2, True]",TRUE,3,white,135,right,up,low,white_low_135_up,black_low_45_up,2,right,0.5053643,1,120,6,3.2.2021,120.2852685
122,"['high', 1, 2, True]",TRUE,1,white,45,left,down,high,white_high_45_down,black_high_135_down,2,right,0.7368952,0,120,6,3.2.2021,120.2852685
123,"['low', 4, 2, True]",TRUE,4,white,135,right,down,low,white_low_135_down,black_low_45_down,2,right,0.753287,1,120,6,3.2.2021,120.2852685
124,"['low', 1, 2, True]",TRUE,1,black,45,right,up,low,black_low_45_up,white_low_135_up,2,right,0.433397,1,120,6,3.2.2021,120.2852685
125,"['low', 16, 2, True]",TRUE,16,black,135,left,down,low,black_low_135_down,white_low_45_down,2,left,0.3696847,1,120,6,3.2.2021,120.2852685
126,"['low', 4, 2, True]",TRUE,4,black,135,left,up,low,black_low_135_up,white_low_45_up,2,left,0.5221232,1,120,6,3.2.2021,120.2852685
127,"['high', 1, 2, False]",FALSE,1,black,45,right,up,high,black_high_45_up,white_high_135_up,2,right,0.5528948,1,120,6,3.2.2021,120.2852685
128,"['high', 32, 2, True]",TRUE,32,black,135,left,up,high,black_high_135_up,white_high_45_up,2,left,0.4177321,1,120,6,3.2.2021,120.2852685
129,"['low', 32, 2, True]",TRUE,32,black,45,right,up,low,black_low_45_up,white_low_135_up,2,right,0.2804585,1,120,6,3.2.2021,120.2852685
130,"['low', 8, 2, True]",TRUE,8,black,135,left,down,low,black_low_135_down,white_low_45_down,2,left,0.3807222,1,120,6,3.2.2021,120.2852685
131,"['high', 3, 60, False]",FALSE,3,black,135,left,up,high,black_high_135_up,white_high_45_up,60,left,0.375908,1,120,6,3.2.2021,120.2852685
132,"['high', 1, 2, True]",TRUE,1,white,45,left,down,high,white_high_45_down,black_high_135_down,2,right,0.5311272,0,120,6,3.2.2021,120.2852685
133,"['high', 16, 2, True]",TRUE,16,white,45,left,down,high,white_high_45_down,black_high_135_down,2,left,0.2764654,1,120,6,3.2.2021,120.2852685
134,"['low', 2, 2, True]",TRUE,2,white,135,right,up,low,white_low_135_up,black_low_45_up,2,left,0.6153971,0,120,6,3.2.2021,120.2852685
135,"['high', 2, 2, True]",TRUE,2,white,135,right,up,high,white_high_135_up,black_high_45_up,2,left,0.3420558,0,120,6,3.2.2021,120.2852685
136,"['low', 3, 2, True]",TRUE,3,white,135,right,up,low,white_low_135_up,black_low_45_up,2,left,0.4724656,0,120,6,3.2.2021,120.2852685
137,"['low', 64, 2, True]",TRUE,64,black,135,left,down,low,black_low_135_down,white_low_45_down,2,left,0.3027087,1,120,6,3.2.2021,120.2852685
138,"['low', 3, 2, True]",TRUE,3,white,45,left,up,low,white_low_45_up,black_low_135_up,2,left,0.3473873,1,120,6,3.2.2021,120.2852685
139,"['high', 1, 2, False]",FALSE,1,white,135,right,up,high,white_high_135_up,black_high_45_up,2,left,0.5805918,0,120,6,3.2.2021,120.2852685
140,"['high', 8, 2, True]",TRUE,8,white,135,right,down,high,white_high_135_down,black_high_45_down,2,left,0.3514568,0,120,6,3.2.2021,120.2852685
141,"['high', 3, 2, True]",TRUE,3,white,135,right,down,high,white_high_135_down,black_high_45_down,2,right,1.2859925,1,120,6,3.2.2021,120.2852685
142,"['high', 16, 2, True]",TRUE,16,white,45,left,down,high,white_high_45_down,black_high_135_down,2,left,0.4820219,1,120,6,3.2.2021,120.2852685
143,"['low', 4, 2, True]",TRUE,4,black,45,right,down,low,black_low_45_down,white_low_135_down,2,right,0.2516979,1,120,6,3.2.2021,120.2852685
144,"['high', 16, 2, True]",TRUE,16,black,135,left,up,high,black_high_135_up,white_high_45_up,2,left,0.2777969,1,120,6,3.2.2021,120.2852685
145,"['low', 64, 2, True]",TRUE,64,black,135,left,up,low,black_low_135_up,white_low_45_up,2,left,0.3365135,1,120,6,3.2.2021,120.2852685
146,"['low', 3, 2, True]",TRUE,3,black,135,left,down,low,black_low_135_down,white_low_45_down,2,left,0.4152946,1,120,6,3.2.2021,120.2852685
147,"['high', 1, 2, True]",TRUE,1,white,45,left,up,high,white_high_45_up,black_high_135_up,2,left,0.0233942,1,120,6,3.2.2021,120.2852685
148,"['low', 1, 2, False]",FALSE,1,black,135,left,down,low,black_low_135_down,white_low_45_down,2,left,0.5285132,1,120,6,3.2.2021,120.2852685
149,"['low', 64, 2, True]",TRUE,64,black,135,left,down,low,black_low_135_down,white_low_45_down,2,left,0.5643381,1,120,6,3.2.2021,120.2852685
150,"['low', 8, 2, True]",TRUE,8,black,135,left,down,low,black_low_135_down,white_low_45_down,2,left,0.3094919,1,120,6,3.2.2021,120.2852685
151,"['high', 4, 2, True]",TRUE,4,white,45,left,down,high,white_high_45_down,black_high_135_down,2,left,0.3517549,1,120,6,3.2.2021,120.2852685
152,"['high', 2, 2, True]",TRUE,2,white,45,left,down,high,white_high_45_down,black_high_135_down,2,left,0.4151667,1,120,6,3.2.2021,120.2852685
153,"['low', 4, 2, True]",TRUE,4,black,135,left,down,low,black_low_135_down,white_low_45_down,2,left,0.2737844,1,120,6,3.2.2021,120.2852685
154,"['high', 1, 2, False]",FALSE,1,white,45,left,up,high,white_high_45_up,black_high_135_up,2,left,0.474091,1,120,6,3.2.2021,120.2852685
155,"['high', 3, 2, True]",TRUE,3,white,135,right,up,high,white_high_135_up,black_high_45_up,2,right,0.2677088,1,120,6,3.2.2021,120.2852685
156,"['low', 32, 2, True]",TRUE,32,black,45,right,down,low,black_low_45_down,white_low_135_down,2,right,0.2402593,1,120,6,3.2.2021,120.2852685
157,"['low', 16, 2, True]",TRUE,16,white,135,right,down,low,white_low_135_down,black_low_45_down,2,right,0.4515488,1,120,6,3.2.2021,120.2852685
158,"['low', 2, 2, True]",TRUE,2,black,45,right,up,low,black_low_45_up,white_low_135_up,2,right,0.3122131,1,120,6,3.2.2021,120.2852685
159,"['high', 1, 2, False]",FALSE,1,white,45,left,up,high,white_high_45_up,black_high_135_up,2,right,0.8224261,0,120,6,3.2.2021,120.2852685
160,"['high', 2, 2, True]",TRUE,2,black,45,right,down,high,black_high_45_down,white_high_135_down,2,right,0.2291711,1,120,6,3.2.2021,120.2852685
161,"['low', 2, 2, True]",TRUE,2,black,135,left,down,low,black_low_135_down,white_low_45_down,2,left,0.3202581,1,120,6,3.2.2021,120.2852685
162,"['high', 8, 2, True]",TRUE,8,black,45,right,down,high,black_high_45_down,white_high_135_down,2,right,0.3467408,1,120,6,3.2.2021,120.2852685
163,"['low', 1, 2, False]",FALSE,1,white,135,right,down,low,white_low_135_down,black_low_45_down,2,right,0.5382481,1,120,6,3.2.2021,120.2852685
164,"['high', 3, 60, False]",FALSE,3,white,135,right,down,high,white_high_135_down,black_high_45_down,60,right,0.3221015,1,120,6,3.2.2021,120.2852685
165,"['low', 1, 2, True]",TRUE,1,black,45,right,down,low,black_low_45_down,white_low_135_down,2,right,0.0091003,1,120,6,3.2.2021,120.2852685
166,"['high', 3, 2, True]",TRUE,3,black,45,right,up,high,black_high_45_up,white_high_135_up,2,right,0.4262278,1,120,6,3.2.2021,120.2852685
167,"['high', 2, 2, True]",TRUE,2,black,45,right,down,high,black_high_45_down,white_high_135_down,2,right,0.3853218,1,120,6,3.2.2021,120.2852685
168,"['low', 1, 2, False]",FALSE,1,white,135,right,up,low,white_low_135_up,black_low_45_up,2,right,0.7968864,1,120,6,3.2.2021,120.2852685
169,"['low', 1, 2, False]",FALSE,1,black,45,right,up,low,black_low_45_up,white_low_135_up,2,right,0.671767,1,120,6,3.2.2021,120.2852685
170,"['high', 1, 2, False]",FALSE,1,white,135,right,down,high,white_high_135_down,black_high_45_down,2,right,0.5323264,1,120,6,3.2.2021,120.2852685
171,"['low', 1, 2, False]",FALSE,1,white,45,left,up,low,white_low_45_up,black_low_135_up,2,left,0.4696937,1,120,6,3.2.2021,120.2852685
172,"['low', 16, 2, True]",TRUE,16,white,45,left,down,low,white_low_45_down,black_low_135_down,2,left,0.3577815,1,120,6,3.2.2021,120.2852685
173,"['low', 1, 2, True]",TRUE,1,white,135,right,up,low,white_low_135_up,black_low_45_up,2,left,0.4783194,0,120,6,3.2.2021,120.2852685
174,"['low', 3, 2, True]",TRUE,3,black,45,right,up,low,black_low_45_up,white_low_135_up,2,right,0.4439392,1,120,6,3.2.2021,120.2852685
175,"['low', 16, 2, True]",TRUE,16,black,135,left,up,low,black_low_135_up,white_low_45_up,2,left,0.3042464,1,120,6,3.2.2021,120.2852685
176,"['low', 8, 2, True]",TRUE,8,black,135,left,down,low,black_low_135_down,white_low_45_down,2,left,0.351225,1,120,6,3.2.2021,120.2852685
177,"['high', 16, 2, True]",TRUE,16,white,135,right,down,high,white_high_135_down,black_high_45_down,2,right,0.3006709,1,120,6,3.2.2021,120.2852685
178,"['low', 1, 2, True]",TRUE,1,white,45,left,down,low,white_low_45_down,black_low_135_down,2,left,0.3213931,1,120,6,3.2.2021,120.2852685
179,"['high', 4, 2, True]",TRUE,4,black,135,left,down,high,black_high_135_down,white_high_45_down,2,left,0.3639268,1,120,6,3.2.2021,120.2852685
180,"['low', 4, 2, True]",TRUE,4,black,135,left,up,low,black_low_135_up,white_low_45_up,2,left,0.3325929,1,120,6,3.2.2021,120.2852685
181,"['low', 64, 2, True]",TRUE,64,white,45,left,down,low,white_low_45_down,black_low_135_down,2,left,0.3168323,1,120,6,3.2.2021,120.2852685
182,"['low', 16, 2, True]",TRUE,16,white,135,right,up,low,white_low_135_up,black_low_45_up,2,right,0.1233511,1,120,6,3.2.2021,120.2852685
183,"['high', 1, 2, False]",FALSE,1,white,135,right,down,high,white_high_135_down,black_high_45_down,2,left,0.7486114,0,120,6,3.2.2021,120.2852685
184,"['high', 64, 2, True]",TRUE,64,white,45,left,down,high,white_high_45_down,black_high_135_down,2,left,0.2670828,1,120,6,3.2.2021,120.2852685
185,"['high', 2, 2, True]",TRUE,2,black,45,right,up,high,black_high_45_up,white_high_135_up,2,right,0.2014141,1,120,6,3.2.2021,120.2852685
186,"['high', 4, 2, True]",TRUE,4,white,45,left,up,high,white_high_45_up,black_high_135_up,2,left,0.2977832,1,120,6,3.2.2021,120.2852685
187,"['low', 2, 2, True]",TRUE,2,white,45,left,down,low,white_low_45_down,black_low_135_down,2,left,0.2975509,1,120,6,3.2.2021,120.2852685
188,"['high', 32, 2, True]",TRUE,32,white,45,left,up,high,white_high_45_up,black_high_135_up,2,left,0.2640922,1,120,6,3.2.2021,120.2852685
189,"['high', 16, 2, True]",TRUE,16,black,135,left,down,high,black_high_135_down,white_high_45_down,2,left,0.2217183,1,120,6,3.2.2021,120.2852685
190,"['high', 1, 2, True]",TRUE,1,white,135,right,down,high,white_high_135_down,black_high_45_down,2,left,0.2798162,0,120,6,3.2.2021,120.2852685
191,"['low', 4, 2, True]",TRUE,4,black,135,left,down,low,black_low_135_down,white_low_45_down,2,left,0.3109404,1,120,6,3.2.2021,120.2852685
192,"['low', 1, 2, True]",TRUE,1,black,45,right,down,low,black_low_45_down,white_low_135_down,2,right,0.6606478,1,120,6,3.2.2021,120.2852685
193,"['low', 3, 2, True]",TRUE,3,white,45,left,up,low,white_low_45_up,black_low_135_up,2,left,0.2652127,1,120,6,3.2.2021,120.2852685
194,"['low', 1, 2, False]",FALSE,1,black,45,right,up,low,black_low_45_up,white_low_135_up,2,right,1.082526,1,120,6,3.2.2021,120.2852685
195,"['high', 2, 2, True]",TRUE,2,white,135,right,down,high,white_high_135_down,black_high_45_down,2,left,0.3661881,0,120,6,3.2.2021,120.2852685
196,"['high', 3, 2, True]",TRUE,3,white,135,right,down,high,white_high_135_down,black_high_45_down,2,left,0.3152636,0,120,6,3.2.2021,120.2852685
197,"['high', 4, 2, True]",TRUE,4,black,45,right,down,high,black_high_45_down,white_high_135_down,2,right,0.1134472,1,120,6,3.2.2021,120.2852685
198,"['high', 4, 2, True]",TRUE,4,white,135,right,up,high,white_high_135_up,black_high_45_up,2,right,0.4699851,1,120,6,3.2.2021,120.2852685
199,"['low', 8, 2, True]",TRUE,8,white,45,left,up,low,white_low_45_up,black_low_135_up,2,left,0.380784,1,120,6,3.2.2021,120.2852685
200,"['high', 8, 2, True]",TRUE,8,white,135,right,down,high,white_high_135_down,black_high_45_down,2,right,0.2685928,1,120,6,3.2.2021,120.2852685
201,"['low', 4, 2, True]",TRUE,4,black,135,left,up,low,black_low_135_up,white_low_45_up,2,left,0.7354956,1,120,6,3.2.2021,120.2852685
202,"['high', 8, 2, True]",TRUE,8,black,45,right,up,high,black_high_45_up,white_high_135_up,2,right,0.542042,1,120,6,3.2.2021,120.2852685
203,"['high', 8, 2, True]",TRUE,8,white,135,right,down,high,white_high_135_down,black_high_45_down,2,right,0.4878529,1,120,6,3.2.2021,120.2852685
204,"['low', 8, 2, True]",TRUE,8,white,135,right,up,low,white_low_135_up,black_low_45_up,2,right,0.4586179,1,120,6,3.2.2021,120.2852685
205,"['low', 4, 2, True]",TRUE,4,white,135,right,up,low,white_low_135_up,black_low_45_up,2,right,0.5112918,1,120,6,3.2.2021,120.2852685
206,"['low', 8, 2, True]",TRUE,8,black,45,right,down,low,black_low_45_down,white_low_135_down,2,right,2.0678575,1,120,6,3.2.2021,120.2852685
207,"['high', 16, 2, True]",TRUE,16,black,135,left,down,high,black_high_135_down,white_high_45_down,2,left,0.4517147,1,120,6,3.2.2021,120.2852685
208,"['high', 16, 2, True]",TRUE,16,black,45,right,down,high,black_high_45_down,white_high_135_down,2,right,0.6670338,1,120,6,3.2.2021,120.2852685
209,"['high', 64, 2, True]",TRUE,64,white,135,right,up,high,white_high_135_up,black_high_45_up,2,right,0.2853959,1,120,6,3.2.2021,120.2852685
210,"['high', 64, 2, True]",TRUE,64,black,135,left,down,high,black_high_135_down,white_high_45_down,2,left,0.2438129,1,120,6,3.2.2021,120.2852685
211,"['high', 32, 2, True]",TRUE,32,white,45,left,down,high,white_high_45_down,black_high_135_down,2,left,0.2427222,1,120,6,3.2.2021,120.2852685
212,"['high', 1, 2, False]",FALSE,1,black,45,right,down,high,black_high_45_down,white_high_135_down,2,right,0.4405236,1,120,6,3.2.2021,120.2852685
213,"['high', 4, 2, True]",TRUE,4,black,45,right,up,high,black_high_45_up,white_high_135_up,2,right,0.290771,1,120,6,3.2.2021,120.2852685
214,"['low', 32, 2, True]",TRUE,32,white,45,left,down,low,white_low_45_down,black_low_135_down,2,left,0.3927316,1,120,6,3.2.2021,120.2852685
215,"['low', 32, 2, True]",TRUE,32,black,135,left,up,low,black_low_135_up,white_low_45_up,2,left,0.3398574,1,120,6,3.2.2021,120.2852685
216,"['high', 1, 2, False]",FALSE,1,white,45,left,down,high,white_high_45_down,black_high_135_down,2,left,2.1661148,1,120,6,3.2.2021,120.2852685
217,"['low', 1, 2, False]",FALSE,1,black,135,left,down,low,black_low_135_down,white_low_45_down,2,left,0.5134748,1,120,6,3.2.2021,120.2852685
218,"['high', 8, 2, True]",TRUE,8,black,135,left,up,high,black_high_135_up,white_high_45_up,2,left,0.2577464,1,120,6,3.2.2021,120.2852685
219,"['high', 1, 2, False]",FALSE,1,black,45,right,down,high,black_high_45_down,white_high_135_down,2,right,0.7053805,1,120,6,3.2.2021,120.2852685
220,"['high', 64, 2, True]",TRUE,64,black,45,right,up,high,black_high_45_up,white_high_135_up,2,right,0.287538,1,120,6,3.2.2021,120.2852685
221,"['high', 2, 2, True]",TRUE,2,white,135,right,down,high,white_high_135_down,black_high_45_down,2,right,0.4288392,1,120,6,3.2.2021,120.2852685
222,"['high', 1, 2, False]",FALSE,1,white,45,left,down,high,white_high_45_down,black_high_135_down,2,right,1.4129619,0,120,6,3.2.2021,120.2852685
223,"['low', 1, 2, False]",FALSE,1,white,135,right,down,low,white_low_135_down,black_low_45_down,2,left,0.570611,0,120,6,3.2.2021,120.2852685
224,"['low', 1, 2, False]",FALSE,1,black,135,left,down,low,black_low_135_down,white_low_45_down,2,left,0.5117651,1,120,6,3.2.2021,120.2852685
225,"['high', 8, 2, True]",TRUE,8,white,135,right,up,high,white_high_135_up,black_high_45_up,2,right,0.2795157,1,120,6,3.2.2021,120.2852685
226,"['low', 4, 2, True]",TRUE,4,black,45,right,up,low,black_low_45_up,white_low_135_up,2,right,0.281643,1,120,6,3.2.2021,120.2852685
227,"['high', 3, 60, False]",FALSE,3,white,45,left,up,high,white_high_45_up,black_high_135_up,60,left,0.3191979,1,120,6,3.2.2021,120.2852685
228,"['high', 32, 2, True]",TRUE,32,white,45,left,down,high,white_high_45_down,black_high_135_down,2,left,0.3192456,1,120,6,3.2.2021,120.2852685
229,"['low', 2, 2, True]",TRUE,2,black,135,left,down,low,black_low_135_down,white_low_45_down,2,left,0.1869444,1,120,6,3.2.2021,120.2852685
230,"['low', 2, 2, True]",TRUE,2,black,135,left,down,low,black_low_135_down,white_low_45_down,2,left,0.3089313,1,120,6,3.2.2021,120.2852685
231,"['high', 16, 2, True]",TRUE,16,black,135,left,up,high,black_high_135_up,white_high_45_up,2,left,0.2055415,1,120,6,3.2.2021,120.2852685
232,"['high', 2, 2, True]",TRUE,2,white,45,left,down,high,white_high_45_down,black_high_135_down,2,left,0.3549314,1,120,6,3.2.2021,120.2852685
233,"['high', 1, 2, False]",FALSE,1,black,45,right,up,high,black_high_45_up,white_high_135_up,2,right,0.5661168,1,120,6,3.2.2021,120.2852685
234,"['low', 1, 2, True]",TRUE,1,black,135,left,up,low,black_low_135_up,white_low_45_up,2,left,0.2727852,1,120,6,3.2.2021,120.2852685
235,"['high', 32, 2, True]",TRUE,32,black,135,left,down,high,black_high_135_down,white_high_45_down,2,left,0.2144134,1,120,6,3.2.2021,120.2852685
236,"['high', 8, 2, True]",TRUE,8,black,45,right,down,high,black_high_45_down,white_high_135_down,2,right,0.2536565,1,120,6,3.2.2021,120.2852685
237,"['high', 32, 2, True]",TRUE,32,black,135,left,down,high,black_high_135_down,white_high_45_down,2,left,0.2544558,1,120,6,3.2.2021,120.2852685
238,"['low', 1, 2, False]",FALSE,1,white,45,left,up,low,white_low_45_up,black_low_135_up,2,left,0.4901476,1,120,6,3.2.2021,120.2852685
239,"['high', 2, 2, True]",TRUE,2,white,135,right,down,high,white_high_135_down,black_high_45_down,2,right,0.2967774,1,120,6,3.2.2021,120.2852685
240,"['high', 64, 2, True]",TRUE,64,black,45,right,up,high,black_high_45_up,white_high_135_up,2,right,0.2800135,1,120,6,3.2.2021,120.2852685
241,"['low', 2, 2, True]",TRUE,2,black,135,left,down,low,black_low_135_down,white_low_45_down,2,left,0.249436,1,120,6,3.2.2021,120.2852685
242,"['low', 1, 2, True]",TRUE,1,white,45,left,down,low,white_low_45_down,black_low_135_down,2,left,0.26605,1,120,6,3.2.2021,120.2852685
243,"['low', 1, 2, False]",FALSE,1,black,45,right,down,low,black_low_45_down,white_low_135_down,2,right,0.3026877,1,120,6,3.2.2021,120.2852685
244,"['high', 2, 2, True]",TRUE,2,white,135,right,down,high,white_high_135_down,black_high_45_down,2,right,0.1138973,1,120,6,3.2.2021,120.2852685
245,"['high', 3, 60, False]",FALSE,3,black,135,left,down,high,black_high_135_down,white_high_45_down,60,left,0.3550188,1,120,6,3.2.2021,120.2852685
246,"['high', 4, 2, True]",TRUE,4,black,45,right,down,high,black_high_45_down,white_high_135_down,2,right,0.484026,1,120,6,3.2.2021,120.2852685
247,"['high', 32, 2, True]",TRUE,32,white,135,right,up,high,white_high_135_up,black_high_45_up,2,right,0.2930411,1,120,6,3.2.2021,120.2852685
248,"['high', 1, 2, True]",TRUE,1,white,135,right,up,high,white_high_135_up,black_high_45_up,2,right,0.3634337,1,120,6,3.2.2021,120.2852685
249,"['high', 1, 2, True]",TRUE,1,black,135,left,down,high,black_high_135_down,white_high_45_down,2,right,1.07059,0,120,6,3.2.2021,120.2852685
250,"['low', 1, 2, True]",TRUE,1,black,135,left,down,low,black_low_135_down,white_low_45_down,2,left,0.3228177,1,120,6,3.2.2021,120.2852685
251,"['low', 16, 2, True]",TRUE,16,white,135,right,down,low,white_low_135_down,black_low_45_down,2,right,0.2040769,1,120,6,3.2.2021,120.2852685
252,"['low', 3, 2, True]",TRUE,3,white,45,left,down,low,white_low_45_down,black_low_135_down,2,left,0.4242351,1,120,6,3.2.2021,120.2852685
253,"['high', 16, 2, True]",TRUE,16,black,45,right,up,high,black_high_45_up,white_high_135_up,2,right,0.2047142,1,120,6,3.2.2021,120.2852685
254,"['low', 64, 2, True]",TRUE,64,white,135,right,up,low,white_low_135_up,black_low_45_up,2,right,0.3823687,1,120,6,3.2.2021,120.2852685
255,"['high', 64, 2, True]",TRUE,64,black,45,right,up,high,black_high_45_up,white_high_135_up,2,right,0.2714321,1,120,6,3.2.2021,120.2852685
256,"['high', 64, 2, True]",TRUE,64,black,45,right,down,high,black_high_45_down,white_high_135_down,2,right,0.2430734,1,120,6,3.2.2021,120.2852685
257,"['low', 1, 2, False]",FALSE,1,white,45,left,down,low,white_low_45_down,black_low_135_down,2,left,1.3472989,1,120,6,3.2.2021,120.2852685
258,"['low', 16, 2, True]",TRUE,16,white,135,right,up,low,white_low_135_up,black_low_45_up,2,right,0.4710664,1,120,6,3.2.2021,120.2852685
259,"['low', 3, 2, True]",TRUE,3,black,135,left,down,low,black_low_135_down,white_low_45_down,2,left,0.779358,1,120,6,3.2.2021,120.2852685
260,"['high', 16, 2, True]",TRUE,16,white,135,right,up,high,white_high_135_up,black_high_45_up,2,right,0.2678473,1,120,6,3.2.2021,120.2852685
261,"['low', 2, 2, True]",TRUE,2,black,45,right,down,low,black_low_45_down,white_low_135_down,2,right,0.3464992,1,120,6,3.2.2021,120.2852685
262,"['low', 1, 2, False]",FALSE,1,black,135,left,down,low,black_low_135_down,white_low_45_down,2,left,0.4198961,1,120,6,3.2.2021,120.2852685
263,"['high', 3, 60, False]",FALSE,3,white,45,left,down,high,white_high_45_down,black_high_135_down,60,left,0.2658564,1,120,6,3.2.2021,120.2852685
264,"['high', 3, 2, True]",TRUE,3,black,135,left,down,high,black_high_135_down,white_high_45_down,2,left,1.3529976,1,120,6,3.2.2021,120.2852685
265,"['high', 2, 2, True]",TRUE,2,white,135,right,up,high,white_high_135_up,black_high_45_up,2,left,0.3631032,0,120,6,3.2.2021,120.2852685
266,"['low', 64, 2, True]",TRUE,64,black,45,right,up,low,black_low_45_up,white_low_135_up,2,right,0.2470089,1,120,6,3.2.2021,120.2852685
267,"['low', 8, 2, True]",TRUE,8,white,45,left,down,low,white_low_45_down,black_low_135_down,2,left,0.2503561,1,120,6,3.2.2021,120.2852685
268,"['high', 4, 2, True]",TRUE,4,black,45,right,down,high,black_high_45_down,white_high_135_down,2,right,1.2569999,1,120,6,3.2.2021,120.2852685
269,"['low', 1, 2, False]",FALSE,1,white,45,left,up,low,white_low_45_up,black_low_135_up,2,left,0.4707674,1,120,6,3.2.2021,120.2852685
270,"['low', 2, 2, True]",TRUE,2,black,135,left,up,low,black_low_135_up,white_low_45_up,2,left,0.1463408,1,120,6,3.2.2021,120.2852685
271,"['low', 4, 2, True]",TRUE,4,black,135,left,up,low,black_low_135_up,white_low_45_up,2,left,0.2498372,1,120,6,3.2.2021,120.2852685
272,"['low', 16, 2, True]",TRUE,16,white,45,left,up,low,white_low_45_up,black_low_135_up,2,left,0.2805359,1,120,6,3.2.2021,120.2852685
273,"['high', 3, 2, True]",TRUE,3,white,135,right,up,high,white_high_135_up,black_high_45_up,2,left,0.2462726,0,120,6,3.2.2021,120.2852685
274,"['low', 3, 2, True]",TRUE,3,black,135,left,down,low,black_low_135_down,white_low_45_down,2,left,0.2969823,1,120,6,3.2.2021,120.2852685
275,"['high', 8, 2, True]",TRUE,8,black,45,right,up,high,black_high_45_up,white_high_135_up,2,left,0.281944,0,120,6,3.2.2021,120.2852685
276,"['low', 1, 2, True]",TRUE,1,white,135,right,up,low,white_low_135_up,black_low_45_up,2,left,0.3911565,0,120,6,3.2.2021,120.2852685
277,"['high', 8, 2, True]",TRUE,8,white,45,left,down,high,white_high_45_down,black_high_135_down,2,left,0.3086322,1,120,6,3.2.2021,120.2852685
278,"['high', 1, 2, False]",FALSE,1,white,45,left,down,high,white_high_45_down,black_high_135_down,2,left,0.8188043,1,120,6,3.2.2021,120.2852685
279,"['low', 32, 2, True]",TRUE,32,white,45,left,up,low,white_low_45_up,black_low_135_up,2,left,0.2559367,1,120,6,3.2.2021,120.2852685
280,"['low', 8, 2, True]",TRUE,8,black,135,left,down,low,black_low_135_down,white_low_45_down,2,left,0.2978736,1,120,6,3.2.2021,120.2852685
281,"['low', 2, 2, True]",TRUE,2,black,135,left,down,low,black_low_135_down,white_low_45_down,2,left,0.1587516,1,120,6,3.2.2021,120.2852685
282,"['high', 3, 60, False]",FALSE,3,black,135,left,down,high,black_high_135_down,white_high_45_down,60,left,0.3158171,1,120,6,3.2.2021,120.2852685
283,"['low', 32, 2, True]",TRUE,32,black,45,right,down,low,black_low_45_down,white_low_135_down,2,right,0.1779941,1,120,6,3.2.2021,120.2852685
284,"['high', 8, 2, True]",TRUE,8,white,135,right,down,high,white_high_135_down,black_high_45_down,2,right,0.2800716,1,120,6,3.2.2021,120.2852685
285,"['low', 1, 2, False]",FALSE,1,black,45,right,up,low,black_low_45_up,white_low_135_up,2,left,0.5987332,0,120,6,3.2.2021,120.2852685
286,"['high', 4, 2, True]",TRUE,4,white,45,left,up,high,white_high_45_up,black_high_135_up,2,left,0.2280785,1,120,6,3.2.2021,120.2852685
287,"['high', 64, 2, True]",TRUE,64,black,135,left,up,high,black_high_135_up,white_high_45_up,2,left,0.3248561,1,120,6,3.2.2021,120.2852685
288,"['high', 2, 2, True]",TRUE,2,black,45,right,up,high,black_high_45_up,white_high_135_up,2,right,0.376743,1,120,6,3.2.2021,120.2852685
289,"['high', 3, 2, True]",TRUE,3,black,45,right,up,high,black_high_45_up,white_high_135_up,2,right,0.2780787,1,120,6,3.2.2021,120.2852685
290,"['low', 8, 2, True]",TRUE,8,white,45,left,up,low,white_low_45_up,black_low_135_up,2,left,1.6139051,1,120,6,3.2.2021,120.2852685
291,"['high', 3, 60, False]",FALSE,3,black,135,left,down,high,black_high_135_down,white_high_45_down,60,left,0.3989598,1,120,6,3.2.2021,120.2852685
292,"['high', 1, 2, False]",FALSE,1,black,45,right,up,high,black_high_45_up,white_high_135_up,2,right,1.5098732,1,120,6,3.2.2021,120.2852685
293,"['high', 16, 2, True]",TRUE,16,black,45,right,down,high,black_high_45_down,white_high_135_down,2,right,0.3791098,1,120,6,3.2.2021,120.2852685
294,"['low', 64, 2, True]",TRUE,64,white,135,right,down,low,white_low_135_down,black_low_45_down,2,right,0.2885863,1,120,6,3.2.2021,120.2852685
295,"['high', 32, 2, True]",TRUE,32,black,45,right,down,high,black_high_45_down,white_high_135_down,2,right,0.175527,1,120,6,3.2.2021,120.2852685
296,"['low', 2, 2, True]",TRUE,2,white,135,right,up,low,white_low_135_up,black_low_45_up,2,left,0.2757496,0,120,6,3.2.2021,120.2852685
297,"['high', 16, 2, True]",TRUE,16,black,45,right,down,high,black_high_45_down,white_high_135_down,2,right,0.224779,1,120,6,3.2.2021,120.2852685
298,"['high', 4, 2, True]",TRUE,4,black,45,right,down,high,black_high_45_down,white_high_135_down,2,right,0.5322535,1,120,6,3.2.2021,120.2852685
299,"['low', 32, 2, True]",TRUE,32,white,135,right,up,low,white_low_135_up,black_low_45_up,2,right,0.2665842,1,120,6,3.2.2021,120.2852685
300,"['high', 1, 2, False]",FALSE,1,white,135,right,up,high,white_high_135_up,black_high_45_up,2,right,0.533917,1,120,6,3.2.2021,120.2852685
301,"['low', 1, 2, False]",FALSE,1,black,135,left,down,low,black_low_135_down,white_low_45_down,2,left,0.4883861,1,120,6,3.2.2021,120.2852685
302,"['high', 64, 2, True]",TRUE,64,black,45,right,up,high,black_high_45_up,white_high_135_up,2,right,0.3188668,1,120,6,3.2.2021,120.2852685
303,"['low', 8, 2, True]",TRUE,8,white,45,left,down,low,white_low_45_down,black_low_135_down,2,left,0.3642082,1,120,6,3.2.2021,120.2852685
304,"['high', 1, 2, False]",FALSE,1,white,135,right,up,high,white_high_135_up,black_high_45_up,2,right,0.9626471,1,120,6,3.2.2021,120.2852685
305,"['high', 64, 2, True]",TRUE,64,white,45,left,up,high,white_high_45_up,black_high_135_up,2,left,0.2470969,1,120,6,3.2.2021,120.2852685
306,"['low', 1, 2, False]",FALSE,1,black,45,right,down,low,black_low_45_down,white_low_135_down,2,left,3.8498366,0,120,6,3.2.2021,120.2852685
307,"['low', 2, 2, True]",TRUE,2,white,45,left,down,low,white_low_45_down,black_low_135_down,2,left,0.6480175,1,120,6,3.2.2021,120.2852685
308,"['low', 16, 2, True]",TRUE,16,black,45,right,up,low,black_low_45_up,white_low_135_up,2,right,0.2755568,1,120,6,3.2.2021,120.2852685
309,"['high', 2, 2, True]",TRUE,2,white,45,left,up,high,white_high_45_up,black_high_135_up,2,left,0.363051,1,120,6,3.2.2021,120.2852685
310,"['low', 16, 2, True]",TRUE,16,black,45,right,up,low,black_low_45_up,white_low_135_up,2,right,0.3760851,1,120,6,3.2.2021,120.2852685
311,"['low', 32, 2, True]",TRUE,32,black,45,right,down,low,black_low_45_down,white_low_135_down,2,right,0.2051502,1,120,6,3.2.2021,120.2852685
312,"['high', 1, 2, True]",TRUE,1,white,135,right,up,high,white_high_135_up,black_high_45_up,2,left,0.4852806,0,120,6,3.2.2021,120.2852685
313,"['low', 3, 2, True]",TRUE,3,white,45,left,up,low,white_low_45_up,black_low_135_up,2,left,0.3462762,1,120,6,3.2.2021,120.2852685
314,"['low', 32, 2, True]",TRUE,32,white,135,right,down,low,white_low_135_down,black_low_45_down,2,right,0.2170109,1,120,6,3.2.2021,120.2852685
315,"['low', 3, 2, True]",TRUE,3,white,45,left,up,low,white_low_45_up,black_low_135_up,2,left,0.3025558,1,120,6,3.2.2021,120.2852685
316,"['low', 1, 2, False]",FALSE,1,white,135,right,up,low,white_low_135_up,black_low_45_up,2,left,0.8458181,0,120,6,3.2.2021,120.2852685
317,"['low', 4, 2, True]",TRUE,4,black,135,left,up,low,black_low_135_up,white_low_45_up,2,left,0.2732602,1,120,6,3.2.2021,120.2852685
318,"['low', 16, 2, True]",TRUE,16,white,45,left,down,low,white_low_45_down,black_low_135_down,2,left,0.407745,1,120,6,3.2.2021,120.2852685
319,"['high', 64, 2, True]",TRUE,64,black,45,right,up,high,black_high_45_up,white_high_135_up,2,right,0.2724652,1,120,6,3.2.2021,120.2852685
320,"['high', 64, 2, True]",TRUE,64,white,135,right,up,high,white_high_135_up,black_high_45_up,2,right,0.3443087,1,120,6,3.2.2021,120.2852685
321,"['low', 1, 2, True]",TRUE,1,black,135,left,up,low,black_low_135_up,white_low_45_up,2,left,0.4087894,1,120,6,3.2.2021,120.2852685
322,"['low', 16, 2, True]",TRUE,16,white,135,right,down,low,white_low_135_down,black_low_45_down,2,right,0.6783509,1,120,6,3.2.2021,120.2852685
323,"['high', 8, 2, True]",TRUE,8,black,45,right,down,high,black_high_45_down,white_high_135_down,2,right,0.4011392,1,120,6,3.2.2021,120.2852685
324,"['high', 64, 2, True]",TRUE,64,white,135,right,up,high,white_high_135_up,black_high_45_up,2,right,0.402116,1,120,6,3.2.2021,120.2852685
325,"['low', 16, 2, True]",TRUE,16,white,135,right,down,low,white_low_135_down,black_low_45_down,2,right,0.4256809,1,120,6,3.2.2021,120.2852685
326,"['high', 32, 2, True]",TRUE,32,white,135,right,up,high,white_high_135_up,black_high_45_up,2,right,0.3917483,1,120,6,3.2.2021,120.2852685
327,"['high', 64, 2, True]",TRUE,64,black,135,left,up,high,black_high_135_up,white_high_45_up,2,left,0.3493745,1,120,6,3.2.2021,120.2852685
328,"['high', 2, 2, True]",TRUE,2,black,45,right,up,high,black_high_45_up,white_high_135_up,2,right,0.5697182,1,120,6,3.2.2021,120.2852685
329,"['low', 1, 2, False]",FALSE,1,black,45,right,down,low,black_low_45_down,white_low_135_down,2,right,0.6866749,1,120,6,3.2.2021,120.2852685
330,"['low', 64, 2, True]",TRUE,64,white,45,left,down,low,white_low_45_down,black_low_135_down,2,left,0.2848521,1,120,6,3.2.2021,120.2852685
331,"['low', 32, 2, True]",TRUE,32,black,135,left,up,low,black_low_135_up,white_low_45_up,2,left,0.37057,1,120,6,3.2.2021,120.2852685
332,"['high', 3, 2, True]",TRUE,3,white,45,left,up,high,white_high_45_up,black_high_135_up,2,left,0.3628866,1,120,6,3.2.2021,120.2852685
333,"['high', 3, 2, True]",TRUE,3,white,45,left,up,high,white_high_45_up,black_high_135_up,2,left,0.4362808,1,120,6,3.2.2021,120.2852685
334,"['low', 8, 2, True]",TRUE,8,black,45,right,up,low,black_low_45_up,white_low_135_up,2,right,0.4412237,1,120,6,3.2.2021,120.2852685
335,"['low', 8, 2, True]",TRUE,8,black,45,right,down,low,black_low_45_down,white_low_135_down,2,right,0.392625,1,120,6,3.2.2021,120.2852685
336,"['low', 16, 2, True]",TRUE,16,black,45,right,up,low,black_low_45_up,white_low_135_up,2,right,0.2611854,1,120,6,3.2.2021,120.2852685
337,"['low', 3, 2, True]",TRUE,3,black,45,right,up,low,black_low_45_up,white_low_135_up,2,right,0.2930054,1,120,6,3.2.2021,120.2852685
338,"['low', 4, 2, True]",TRUE,4,white,135,right,down,low,white_low_135_down,black_low_45_down,2,right,0.5846269,1,120,6,3.2.2021,120.2852685
339,"['low', 3, 2, True]",TRUE,3,white,135,right,down,low,white_low_135_down,black_low_45_down,2,right,0.282168,1,120,6,3.2.2021,120.2852685
340,"['high', 3, 2, True]",TRUE,3,white,45,left,up,high,white_high_45_up,black_high_135_up,2,right,0.5548873,0,120,6,3.2.2021,120.2852685
341,"['low', 64, 2, True]",TRUE,64,black,135,left,up,low,black_low_135_up,white_low_45_up,2,left,0.315256,1,120,6,3.2.2021,120.2852685
342,"['low', 16, 2, True]",TRUE,16,white,45,left,down,low,white_low_45_down,black_low_135_down,2,left,0.5282522,1,120,6,3.2.2021,120.2852685
343,"['high', 8, 2, True]",TRUE,8,white,135,right,down,high,white_high_135_down,black_high_45_down,2,right,0.3262246,1,120,6,3.2.2021,120.2852685
344,"['low', 3, 2, True]",TRUE,3,white,45,left,down,low,white_low_45_down,black_low_135_down,2,right,0.8776638,0,120,6,3.2.2021,120.2852685
345,"['high', 16, 2, True]",TRUE,16,black,135,left,down,high,black_high_135_down,white_high_45_down,2,left,0.3875752,1,120,6,3.2.2021,120.2852685
346,"['low', 3, 2, True]",TRUE,3,black,45,right,down,low,black_low_45_down,white_low_135_down,2,right,0.3556136,1,120,6,3.2.2021,120.2852685
347,"['low', 8, 2, True]",TRUE,8,white,135,right,down,low,white_low_135_down,black_low_45_down,2,right,0.5610759,1,120,6,3.2.2021,120.2852685
348,"['low', 32, 2, True]",TRUE,32,white,45,left,down,low,white_low_45_down,black_low_135_down,2,left,0.2958923,1,120,6,3.2.2021,120.2852685
349,"['high', 16, 2, True]",TRUE,16,white,45,left,up,high,white_high_45_up,black_high_135_up,2,left,0.3979614,1,120,6,3.2.2021,120.2852685
350,"['low', 3, 2, True]",TRUE,3,black,45,right,down,low,black_low_45_down,white_low_135_down,2,right,0.3172022,1,120,6,3.2.2021,120.2852685
351,"['low', 32, 2, True]",TRUE,32,white,135,right,up,low,white_low_135_up,black_low_45_up,2,right,0.2924746,1,120,6,3.2.2021,120.2852685
352,"['high', 64, 2, True]",TRUE,64,black,135,left,down,high,black_high_135_down,white_high_45_down,2,left,0.2369539,1,120,6,3.2.2021,120.2852685
353,"['low', 32, 2, True]",TRUE,32,white,45,left,up,low,white_low_45_up,black_low_135_up,2,left,0.2035972,1,120,6,3.2.2021,120.2852685
354,"['high', 3, 60, False]",FALSE,3,white,45,left,up,high,white_high_45_up,black_high_135_up,60,left,1.1688501,1,120,6,3.2.2021,120.2852685
355,"['high', 64, 2, True]",TRUE,64,black,135,left,down,high,black_high_135_down,white_high_45_down,2,left,0.2341709,1,120,6,3.2.2021,120.2852685
356,"['low', 1, 2, True]",TRUE,1,white,135,right,down,low,white_low_135_down,black_low_45_down,2,left,0.5458308,0,120,6,3.2.2021,120.2852685
357,"['high', 16, 2, True]",TRUE,16,black,45,right,down,high,black_high_45_down,white_high_135_down,2,right,0.4844847,1,120,6,3.2.2021,120.2852685
358,"['high', 8, 2, True]",TRUE,8,white,135,right,down,high,white_high_135_down,black_high_45_down,2,right,0.3330301,1,120,6,3.2.2021,120.2852685
359,"['low', 2, 2, True]",TRUE,2,white,135,right,up,low,white_low_135_up,black_low_45_up,2,right,0.6663277,1,120,6,3.2.2021,120.2852685
360,"['low', 8, 2, True]",TRUE,8,white,135,right,down,low,white_low_135_down,black_low_45_down,2,right,0.5388011,1,120,6,3.2.2021,120.2852685
361,"['high', 1, 2, True]",TRUE,1,black,45,right,down,high,black_high_45_down,white_high_135_down,2,right,0.2753957,1,120,6,3.2.2021,120.2852685
362,"['low', 8, 2, True]",TRUE,8,white,45,left,up,low,white_low_45_up,black_low_135_up,2,left,0.3742934,1,120,6,3.2.2021,120.2852685
363,"['high', 16, 2, True]",TRUE,16,white,135,right,down,high,white_high_135_down,black_high_45_down,2,right,0.2786543,1,120,6,3.2.2021,120.2852685
364,"['high', 4, 2, True]",TRUE,4,black,135,left,down,high,black_high_135_down,white_high_45_down,2,right,0.4696263,0,120,6,3.2.2021,120.2852685
365,"['high', 3, 60, False]",FALSE,3,black,135,left,up,high,black_high_135_up,white_high_45_up,60,left,0.4351622,1,120,6,3.2.2021,120.2852685
366,"['low', 32, 2, True]",TRUE,32,white,45,left,up,low,white_low_45_up,black_low_135_up,2,left,0.2753135,1,120,6,3.2.2021,120.2852685
367,"['low', 64, 2, True]",TRUE,64,white,45,left,down,low,white_low_45_down,black_low_135_down,2,left,0.2544387,1,120,6,3.2.2021,120.2852685
368,"['high', 8, 2, True]",TRUE,8,white,45,left,up,high,white_high_45_up,black_high_135_up,2,left,0.3376873,1,120,6,3.2.2021,120.2852685
369,"['low', 2, 2, True]",TRUE,2,black,135,left,down,low,black_low_135_down,white_low_45_down,2,right,0.8745936,0,120,6,3.2.2021,120.2852685
370,"['high', 1, 2, False]",FALSE,1,black,45,right,up,high,black_high_45_up,white_high_135_up,2,right,0.6632379,1,120,6,3.2.2021,120.2852685
371,"['low', 2, 2, True]",TRUE,2,white,45,left,up,low,white_low_45_up,black_low_135_up,2,right,2.565701,0,120,6,3.2.2021,120.2852685
372,"['high', 1, 2, False]",FALSE,1,black,135,left,down,high,black_high_135_down,white_high_45_down,2,left,0.4319274,1,120,6,3.2.2021,120.2852685
373,"['low', 3, 2, True]",TRUE,3,black,45,right,down,low,black_low_45_down,white_low_135_down,2,right,0.2563726,1,120,6,3.2.2021,120.2852685
374,"['low', 4, 2, True]",TRUE,4,white,135,right,down,low,white_low_135_down,black_low_45_down,2,right,0.257751,1,120,6,3.2.2021,120.2852685
375,"['low', 32, 2, True]",TRUE,32,white,135,right,up,low,white_low_135_up,black_low_45_up,2,right,0.4196251,1,120,6,3.2.2021,120.2852685
376,"['low', 8, 2, True]",TRUE,8,white,45,left,up,low,white_low_45_up,black_low_135_up,2,left,0.2933191,1,120,6,3.2.2021,120.2852685
377,"['high', 2, 2, True]",TRUE,2,white,45,left,up,high,white_high_45_up,black_high_135_up,2,left,0.2836202,1,120,6,3.2.2021,120.2852685
378,"['high', 2, 2, True]",TRUE,2,white,45,left,up,high,white_high_45_up,black_high_135_up,2,left,0.1263028,1,120,6,3.2.2021,120.2852685
379,"['low', 2, 2, True]",TRUE,2,white,45,left,up,low,white_low_45_up,black_low_135_up,2,left,0.1006142,1,120,6,3.2.2021,120.2852685
380,"['high', 8, 2, True]",TRUE,8,black,135,left,up,high,black_high_135_up,white_high_45_up,2,left,0.2676769,1,120,6,3.2.2021,120.2852685
381,"['low', 1, 2, False]",FALSE,1,white,135,right,up,low,white_low_135_up,black_low_45_up,2,right,0.5352166,1,120,6,3.2.2021,120.2852685
382,"['high', 4, 2, True]",TRUE,4,white,135,right,down,high,white_high_135_down,black_high_45_down,2,left,0.249345,0,120,6,3.2.2021,120.2852685
383,"['low', 8, 2, True]",TRUE,8,black,135,left,up,low,black_low_135_up,white_low_45_up,2,left,0.2697376,1,120,6,3.2.2021,120.2852685
384,"['low', 16, 2, True]",TRUE,16,white,135,right,up,low,white_low_135_up,black_low_45_up,2,right,0.2354464,1,120,6,3.2.2021,120.2852685
385,"['low', 1, 2, True]",TRUE,1,black,45,right,down,low,black_low_45_down,white_low_135_down,2,left,0.6344459,0,120,6,3.2.2021,120.2852685
386,"['low', 32, 2, True]",TRUE,32,white,135,right,up,low,white_low_135_up,black_low_45_up,2,right,0.4857594,1,120,6,3.2.2021,120.2852685
387,"['high', 4, 2, True]",TRUE,4,black,45,right,up,high,black_high_45_up,white_high_135_up,2,right,0.3192976,1,120,6,3.2.2021,120.2852685
388,"['low', 4, 2, True]",TRUE,4,white,135,right,down,low,white_low_135_down,black_low_45_down,2,right,0.5063251,1,120,6,3.2.2021,120.2852685
389,"['high', 1, 2, True]",TRUE,1,black,135,left,down,high,black_high_135_down,white_high_45_down,2,left,0.4479932,1,120,6,3.2.2021,120.2852685
390,"['low', 1, 2, False]",FALSE,1,white,135,right,up,low,white_low_135_up,black_low_45_up,2,right,0.8780236,1,120,6,3.2.2021,120.2852685
391,"['low', 8, 2, True]",TRUE,8,white,135,right,up,low,white_low_135_up,black_low_45_up,2,right,0.3295512,1,120,6,3.2.2021,120.2852685
392,"['low', 2, 2, True]",TRUE,2,white,135,right,down,low,white_low_135_down,black_low_45_down,2,right,0.3216105,1,120,6,3.2.2021,120.2852685
393,"['low', 32, 2, True]",TRUE,32,white,45,left,down,low,white_low_45_down,black_low_135_down,2,left,0.2519725,1,120,6,3.2.2021,120.2852685
394,"['high', 1, 2, False]",FALSE,1,black,45,right,up,high,black_high_45_up,white_high_135_up,2,right,0.4863751,1,120,6,3.2.2021,120.2852685
395,"['high', 8, 2, True]",TRUE,8,white,135,right,up,high,white_high_135_up,black_high_45_up,2,right,0.2495213,1,120,6,3.2.2021,120.2852685
396,"['low', 8, 2, True]",TRUE,8,black,45,right,down,low,black_low_45_down,white_low_135_down,2,right,0.2186461,1,120,6,3.2.2021,120.2852685
397,"['high', 4, 2, True]",TRUE,4,black,135,left,down,high,black_high_135_down,white_high_45_down,2,left,0.2797986,1,120,6,3.2.2021,120.2852685
398,"['high', 1, 2, False]",FALSE,1,white,135,right,down,high,white_high_135_down,black_high_45_down,2,left,1.2904512,0,120,6,3.2.2021,120.2852685
399,"['high', 4, 2, True]",TRUE,4,white,135,right,down,high,white_high_135_down,black_high_45_down,2,right,0.3477893,1,120,6,3.2.2021,120.2852685
400,"['high', 1, 2, False]",FALSE,1,white,135,right,up,high,white_high_135_up,black_high_45_up,2,right,0.9146401,1,120,6,3.2.2021,120.2852685
401,"['high', 16, 2, True]",TRUE,16,white,45,left,down,high,white_high_45_down,black_high_135_down,2,left,0.2596097,1,120,6,3.2.2021,120.2852685
402,"['low', 64, 2, True]",TRUE,64,black,45,right,down,low,black_low_45_down,white_low_135_down,2,right,0.5840701,1,120,6,3.2.2021,120.2852685
403,"['low', 64, 2, True]",TRUE,64,black,135,left,up,low,black_low_135_up,white_low_45_up,2,left,0.3293896,1,120,6,3.2.2021,120.2852685
404,"['low', 32, 2, True]",TRUE,32,white,45,left,down,low,white_low_45_down,black_low_135_down,2,left,0.2291632,1,120,6,3.2.2021,120.2852685
405,"['low', 2, 2, True]",TRUE,2,black,135,left,down,low,black_low_135_down,white_low_45_down,2,left,1.0991454,1,120,6,3.2.2021,120.2852685
406,"['high', 3, 2, True]",TRUE,3,black,45,right,up,high,black_high_45_up,white_high_135_up,2,right,0.4449231,1,120,6,3.2.2021,120.2852685
407,"['low', 4, 2, True]",TRUE,4,white,45,left,up,low,white_low_45_up,black_low_135_up,2,left,0.223935,1,120,6,3.2.2021,120.2852685
408,"['high', 8, 2, True]",TRUE,8,black,45,right,down,high,black_high_45_down,white_high_135_down,2,right,0.1807608,1,120,6,3.2.2021,120.2852685
409,"['low', 64, 2, True]",TRUE,64,black,45,right,up,low,black_low_45_up,white_low_135_up,2,right,0.2534995,1,120,6,3.2.2021,120.2852685
410,"['high', 1, 2, True]",TRUE,1,white,45,left,up,high,white_high_45_up,black_high_135_up,2,left,0.4687245,1,120,6,3.2.2021,120.2852685
411,"['high', 4, 2, True]",TRUE,4,white,135,right,up,high,white_high_135_up,black_high_45_up,2,right,0.3186009,1,120,6,3.2.2021,120.2852685
412,"['high', 2, 2, True]",TRUE,2,black,45,right,up,high,black_high_45_up,white_high_135_up,2,right,0.2963347,1,120,6,3.2.2021,120.2852685
413,"['low', 32, 2, True]",TRUE,32,black,45,right,down,low,black_low_45_down,white_low_135_down,2,right,0.2631068,1,120,6,3.2.2021,120.2852685
414,"['low', 32, 2, True]",TRUE,32,black,135,left,down,low,black_low_135_down,white_low_45_down,2,left,0.227231,1,120,6,3.2.2021,120.2852685
415,"['high', 2, 2, True]",TRUE,2,black,135,left,down,high,black_high_135_down,white_high_45_down,2,left,0.2987774,1,120,6,3.2.2021,120.2852685
416,"['low', 16, 2, True]",TRUE,16,black,135,left,up,low,black_low_135_up,white_low_45_up,2,left,0.2195415,1,120,6,3.2.2021,120.2852685
417,"['low', 2, 2, True]",TRUE,2,white,45,left,down,low,white_low_45_down,black_low_135_down,2,left,0.4879962,1,120,6,3.2.2021,120.2852685
418,"['high', 4, 2, True]",TRUE,4,white,135,right,down,high,white_high_135_down,black_high_45_down,2,right,0.2626882,1,120,6,3.2.2021,120.2852685
419,"['low', 8, 2, True]",TRUE,8,black,135,left,down,low,black_low_135_down,white_low_45_down,2,left,0.2066217,1,120,6,3.2.2021,120.2852685
420,"['low', 32, 2, True]",TRUE,32,black,135,left,down,low,black_low_135_down,white_low_45_down,2,left,0.1497925,1,120,6,3.2.2021,120.2852685
421,"['low', 3, 2, True]",TRUE,3,black,135,left,down,low,black_low_135_down,white_low_45_down,2,left,0.1639986,1,120,6,3.2.2021,120.2852685
422,"['high', 16, 2, True]",TRUE,16,white,45,left,up,high,white_high_45_up,black_high_135_up,2,left,0.1975193,1,120,6,3.2.2021,120.2852685
423,"['low', 4, 2, True]",TRUE,4,black,135,left,up,low,black_low_135_up,white_low_45_up,2,left,0.2652532,1,120,6,3.2.2021,120.2852685
424,"['high', 32, 2, True]",TRUE,32,black,135,left,down,high,black_high_135_down,white_high_45_down,2,left,0.222914,1,120,6,3.2.2021,120.2852685
425,"['low', 64, 2, True]",TRUE,64,white,45,left,up,low,white_low_45_up,black_low_135_up,2,left,0.2051343,1,120,6,3.2.2021,120.2852685
426,"['high', 3, 2, True]",TRUE,3,black,135,left,up,high,black_high_135_up,white_high_45_up,2,left,0.2275836,1,120,6,3.2.2021,120.2852685
427,"['low', 32, 2, True]",TRUE,32,black,135,left,up,low,black_low_135_up,white_low_45_up,2,left,0.1011213,1,120,6,3.2.2021,120.2852685
428,"['high', 2, 2, True]",TRUE,2,black,45,right,up,high,black_high_45_up,white_high_135_up,2,right,0.7746252,1,120,6,3.2.2021,120.2852685
429,"['low', 64, 2, True]",TRUE,64,white,45,left,down,low,white_low_45_down,black_low_135_down,2,left,0.2485779,1,120,6,3.2.2021,120.2852685
430,"['low', 16, 2, True]",TRUE,16,black,45,right,down,low,black_low_45_down,white_low_135_down,2,right,0.3632366,1,120,6,3.2.2021,120.2852685
431,"['low', 64, 2, True]",TRUE,64,white,45,left,down,low,white_low_45_down,black_low_135_down,2,left,0.1104611,1,120,6,3.2.2021,120.2852685
432,"['high', 1, 2, False]",FALSE,1,white,135,right,up,high,white_high_135_up,black_high_45_up,2,left,1.5632073,0,120,6,3.2.2021,120.2852685
433,"['low', 3, 2, True]",TRUE,3,black,45,right,up,low,black_low_45_up,white_low_135_up,2,left,0.545438,0,120,6,3.2.2021,120.2852685
434,"['high', 3, 2, True]",TRUE,3,black,135,left,down,high,black_high_135_down,white_high_45_down,2,left,0.2327813,1,120,6,3.2.2021,120.2852685
435,"['low', 1, 2, True]",TRUE,1,white,45,left,up,low,white_low_45_up,black_low_135_up,2,left,0.1251102,1,120,6,3.2.2021,120.2852685
436,"['high', 1, 2, False]",FALSE,1,black,45,right,down,high,black_high_45_down,white_high_135_down,2,right,0.6406583,1,120,6,3.2.2021,120.2852685
437,"['low', 8, 2, True]",TRUE,8,black,135,left,down,low,black_low_135_down,white_low_45_down,2,left,0.2300286,1,120,6,3.2.2021,120.2852685
438,"['high', 4, 2, True]",TRUE,4,black,135,left,down,high,black_high_135_down,white_high_45_down,2,left,0.2443352,1,120,6,3.2.2021,120.2852685
439,"['low', 3, 2, True]",TRUE,3,white,45,left,up,low,white_low_45_up,black_low_135_up,2,left,0.1912617,1,120,6,3.2.2021,120.2852685
440,"['low', 32, 2, True]",TRUE,32,black,135,left,down,low,black_low_135_down,white_low_45_down,2,left,0.1732226,1,120,6,3.2.2021,120.2852685
441,"['low', 2, 2, True]",TRUE,2,white,45,left,down,low,white_low_45_down,black_low_135_down,2,left,0.2455714,1,120,6,3.2.2021,120.2852685
442,"['low', 2, 2, True]",TRUE,2,white,135,right,down,low,white_low_135_down,black_low_45_down,2,right,0.2659241,1,120,6,3.2.2021,120.2852685
443,"['high', 8, 2, True]",TRUE,8,white,135,right,up,high,white_high_135_up,black_high_45_up,2,right,0.2321661,1,120,6,3.2.2021,120.2852685
444,"['low', 1, 2, True]",TRUE,1,black,135,left,up,low,black_low_135_up,white_low_45_up,2,left,0.2586695,1,120,6,3.2.2021,120.2852685
445,"['low', 4, 2, True]",TRUE,4,white,45,left,down,low,white_low_45_down,black_low_135_down,2,left,0.2374296,1,120,6,3.2.2021,120.2852685
446,"['high', 64, 2, True]",TRUE,64,black,135,left,down,high,black_high_135_down,white_high_45_down,2,left,0.2279745,1,120,6,3.2.2021,120.2852685
447,"['high', 1, 2, False]",FALSE,1,white,45,left,up,high,white_high_45_up,black_high_135_up,2,left,0.8794455,1,120,6,3.2.2021,120.2852685
448,"['low', 2, 2, True]",TRUE,2,black,135,left,down,low,black_low_135_down,white_low_45_down,2,left,0.3321518,1,120,6,3.2.2021,120.2852685
449,"['high', 8, 2, True]",TRUE,8,white,135,right,down,high,white_high_135_down,black_high_45_down,2,right,0.3013761,1,120,6,3.2.2021,120.2852685
450,"['high', 3, 2, True]",TRUE,3,white,135,right,up,high,white_high_135_up,black_high_45_up,2,right,0.2760809,1,120,6,3.2.2021,120.2852685
451,"['high', 1, 2, True]",TRUE,1,white,45,left,down,high,white_high_45_down,black_high_135_down,2,right,0.2958578,0,120,6,3.2.2021,120.2852685
452,"['low', 3, 2, True]",TRUE,3,white,45,left,down,low,white_low_45_down,black_low_135_down,2,left,0.1728634,1,120,6,3.2.2021,120.2852685
453,"['high', 2, 2, True]",TRUE,2,white,135,right,down,high,white_high_135_down,black_high_45_down,2,right,0.2897601,1,120,6,3.2.2021,120.2852685
454,"['high', 4, 2, True]",TRUE,4,white,45,left,down,high,white_high_45_down,black_high_135_down,2,left,0.2611403,1,120,6,3.2.2021,120.2852685
455,"['high', 32, 2, True]",TRUE,32,black,45,right,up,high,black_high_45_up,white_high_135_up,2,right,0.494318,1,120,6,3.2.2021,120.2852685
456,"['high', 32, 2, True]",TRUE,32,black,135,left,up,high,black_high_135_up,white_high_45_up,2,left,0.2592036,1,120,6,3.2.2021,120.2852685
457,"['high', 16, 2, True]",TRUE,16,white,135,right,up,high,white_high_135_up,black_high_45_up,2,right,0.3217986,1,120,6,3.2.2021,120.2852685
458,"['low', 4, 2, True]",TRUE,4,black,135,left,down,low,black_low_135_down,white_low_45_down,2,left,0.2665048,1,120,6,3.2.2021,120.2852685
459,"['low', 32, 2, True]",TRUE,32,white,135,right,down,low,white_low_135_down,black_low_45_down,2,right,0.1971518,1,120,6,3.2.2021,120.2852685
460,"['low', 1, 2, False]",FALSE,1,white,45,left,up,low,white_low_45_up,black_low_135_up,2,left,0.3484781,1,120,6,3.2.2021,120.2852685
461,"['high', 1, 2, False]",FALSE,1,black,135,left,up,high,black_high_135_up,white_high_45_up,2,left,0.4662532,1,120,6,3.2.2021,120.2852685
462,"['low', 4, 2, True]",TRUE,4,white,135,right,down,low,white_low_135_down,black_low_45_down,2,right,0.1699124,1,120,6,3.2.2021,120.2852685
463,"['low', 4, 2, True]",TRUE,4,black,135,left,up,low,black_low_135_up,white_low_45_up,2,left,0.2498142,1,120,6,3.2.2021,120.2852685
464,"['high', 1, 2, False]",FALSE,1,black,45,right,down,high,black_high_45_down,white_high_135_down,2,right,0.52302,1,120,6,3.2.2021,120.2852685
465,"['high', 32, 2, True]",TRUE,32,white,45,left,up,high,white_high_45_up,black_high_135_up,2,left,0.2423586,1,120,6,3.2.2021,120.2852685
466,"['high', 1, 2, True]",TRUE,1,black,135,left,up,high,black_high_135_up,white_high_45_up,2,left,0.3195324,1,120,6,3.2.2021,120.2852685
467,"['high', 64, 2, True]",TRUE,64,black,135,left,down,high,black_high_135_down,white_high_45_down,2,left,0.1751016,1,120,6,3.2.2021,120.2852685
468,"['high', 8, 2, True]",TRUE,8,black,135,left,down,high,black_high_135_down,white_high_45_down,2,left,0.2149289,1,120,6,3.2.2021,120.2852685
469,"['high', 16, 2, True]",TRUE,16,white,135,right,up,high,white_high_135_up,black_high_45_up,2,right,0.5168735,1,120,6,3.2.2021,120.2852685
470,"['low', 32, 2, True]",TRUE,32,white,135,right,down,low,white_low_135_down,black_low_45_down,2,right,0.3558446,1,120,6,3.2.2021,120.2852685
471,"['high', 1, 2, True]",TRUE,1,black,135,left,up,high,black_high_135_up,white_high_45_up,2,left,0.7435585,1,120,6,3.2.2021,120.2852685
472,"['high', 4, 2, True]",TRUE,4,black,135,left,down,high,black_high_135_down,white_high_45_down,2,left,0.2897382,1,120,6,3.2.2021,120.2852685
473,"['high', 3, 60, False]",FALSE,3,white,45,left,up,high,white_high_45_up,black_high_135_up,60,left,0.9139751,1,120,6,3.2.2021,120.2852685
474,"['low', 4, 2, True]",TRUE,4,white,45,left,up,low,white_low_45_up,black_low_135_up,2,left,0.6511212,1,120,6,3.2.2021,120.2852685
475,"['high', 1, 2, True]",TRUE,1,white,135,right,up,high,white_high_135_up,black_high_45_up,2,left,0.2676879,0,120,6,3.2.2021,120.2852685
476,"['high', 2, 2, True]",TRUE,2,white,45,left,down,high,white_high_45_down,black_high_135_down,2,right,0.2713885,0,120,6,3.2.2021,120.2852685
477,"['low', 64, 2, True]",TRUE,64,black,45,right,up,low,black_low_45_up,white_low_135_up,2,right,0.2129637,1,120,6,3.2.2021,120.2852685
478,"['low', 64, 2, True]",TRUE,64,white,45,left,down,low,white_low_45_down,black_low_135_down,2,left,0.196221,1,120,6,3.2.2021,120.2852685
479,"['high', 1, 2, True]",TRUE,1,white,45,left,down,high,white_high_45_down,black_high_135_down,2,left,0.5117144,1,120,6,3.2.2021,120.2852685
480,"['high', 4, 2, True]",TRUE,4,black,45,right,down,high,black_high_45_down,white_high_135_down,2,right,0.351595,1,120,6,3.2.2021,120.2852685
481,"['high', 8, 2, True]",TRUE,8,white,135,right,up,high,white_high_135_up,black_high_45_up,2,right,0.2143737,1,120,6,3.2.2021,120.2852685
482,"['low', 16, 2, True]",TRUE,16,white,45,left,down,low,white_low_45_down,black_low_135_down,2,left,0.2658279,1,120,6,3.2.2021,120.2852685
483,"['high', 3, 2, True]",TRUE,3,black,45,right,up,high,black_high_45_up,white_high_135_up,2,right,0.2751467,1,120,6,3.2.2021,120.2852685
484,"['high', 2, 2, True]",TRUE,2,black,135,left,down,high,black_high_135_down,white_high_45_down,2,left,0.0608354,1,120,6,3.2.2021,120.2852685
485,"['high', 3, 2, True]",TRUE,3,black,45,right,down,high,black_high_45_down,white_high_135_down,2,right,0.2868036,1,120,6,3.2.2021,120.2852685
486,"['high', 4, 2, True]",TRUE,4,black,135,left,down,high,black_high_135_down,white_high_45_down,2,left,0.1478429,1,120,6,3.2.2021,120.2852685
487,"['low', 3, 2, True]",TRUE,3,white,45,left,down,low,white_low_45_down,black_low_135_down,2,left,0.2147962,1,120,6,3.2.2021,120.2852685
488,"['high', 64, 2, True]",TRUE,64,white,45,left,down,high,white_high_45_down,black_high_135_down,2,left,0.2091635,1,120,6,3.2.2021,120.2852685
489,"['high', 3, 60, False]",FALSE,3,black,45,right,up,high,black_high_45_up,white_high_135_up,60,right,0.4523031,1,120,6,3.2.2021,120.2852685
490,"['high', 3, 60, False]",FALSE,3,white,45,left,down,high,white_high_45_down,black_high_135_down,60,left,0.3270424,1,120,6,3.2.2021,120.2852685
491,"['low', 32, 2, True]",TRUE,32,white,45,left,up,low,white_low_45_up,black_low_135_up,2,left,0.4472137,1,120,6,3.2.2021,120.2852685
492,"['high', 3, 60, False]",FALSE,3,black,135,left,down,high,black_high_135_down,white_high_45_down,60,left,0.3059434,1,120,6,3.2.2021,120.2852685
493,"['low', 3, 2, True]",TRUE,3,white,135,right,up,low,white_low_135_up,black_low_45_up,2,left,0.3656773,0,120,6,3.2.2021,120.2852685
494,"['high', 1, 2, True]",TRUE,1,white,135,right,down,high,white_high_135_down,black_high_45_down,2,left,0.838233,0,120,6,3.2.2021,120.2852685
495,"['high', 2, 2, True]",TRUE,2,white,135,right,down,high,white_high_135_down,black_high_45_down,2,left,0.6517926,0,120,6,3.2.2021,120.2852685
496,"['low', 2, 2, True]",TRUE,2,black,135,left,down,low,black_low_135_down,white_low_45_down,2,left,0.3223947,1,120,6,3.2.2021,120.2852685
497,"['high', 2, 2, True]",TRUE,2,white,45,left,up,high,white_high_45_up,black_high_135_up,2,left,0.2881072,1,120,6,3.2.2021,120.2852685
498,"['low', 16, 2, True]",TRUE,16,black,45,right,down,low,black_low_45_down,white_low_135_down,2,right,0.2779967,1,120,6,3.2.2021,120.2852685
499,"['low', 4, 2, True]",TRUE,4,white,45,left,down,low,white_low_45_down,black_low_135_down,2,left,0.3010763,1,120,6,3.2.2021,120.2852685
500,"['high', 3, 2, True]",TRUE,3,black,45,right,up,high,black_high_45_up,white_high_135_up,2,right,0.2934881,1,120,6,3.2.2021,120.2852685
501,"['high', 8, 2, True]",TRUE,8,black,135,left,up,high,black_high_135_up,white_high_45_up,2,left,0.2667328,1,120,6,3.2.2021,120.2852685
502,"['low', 1, 2, False]",FALSE,1,white,135,right,up,low,white_low_135_up,black_low_45_up,2,right,0.5067805,1,120,6,3.2.2021,120.2852685
503,"['low', 64, 2, True]",TRUE,64,white,45,left,down,low,white_low_45_down,black_low_135_down,2,left,0.2470003,1,120,6,3.2.2021,120.2852685
504,"['high', 1, 2, True]",TRUE,1,white,45,left,up,high,white_high_45_up,black_high_135_up,2,right,0.1856168,0,120,6,3.2.2021,120.2852685
505,"['low', 32, 2, True]",TRUE,32,black,45,right,up,low,black_low_45_up,white_low_135_up,2,right,0.2799281,1,120,6,3.2.2021,120.2852685
506,"['low', 64, 2, True]",TRUE,64,white,45,left,down,low,white_low_45_down,black_low_135_down,2,left,0.283206,1,120,6,3.2.2021,120.2852685
507,"['high', 16, 2, True]",TRUE,16,black,135,left,down,high,black_high_135_down,white_high_45_down,2,left,0.2410629,1,120,6,3.2.2021,120.2852685
508,"['low', 1, 2, True]",TRUE,1,black,135,left,down,low,black_low_135_down,white_low_45_down,2,left,0.3214727,1,120,6,3.2.2021,120.2852685
509,"['high', 32, 2, True]",TRUE,32,white,45,left,down,high,white_high_45_down,black_high_135_down,2,left,0.1835436,1,120,6,3.2.2021,120.2852685
510,"['low', 1, 2, True]",TRUE,1,black,135,left,down,low,black_low_135_down,white_low_45_down,2,left,0.3013445,1,120,6,3.2.2021,120.2852685
511,"['low', 1, 2, True]",TRUE,1,black,45,right,up,low,black_low_45_up,white_low_135_up,2,right,0.2836689,1,120,6,3.2.2021,120.2852685
512,"['low', 1, 2, False]",FALSE,1,white,135,right,down,low,white_low_135_down,black_low_45_down,2,left,1.6158611,0,120,6,3.2.2021,120.2852685
513,"['low', 64, 2, True]",TRUE,64,white,135,right,up,low,white_low_135_up,black_low_45_up,2,right,0.2639128,1,120,6,3.2.2021,120.2852685
514,"['high', 2, 2, True]",TRUE,2,black,45,right,down,high,black_high_45_down,white_high_135_down,2,right,0.4761738,1,120,6,3.2.2021,120.2852685
515,"['high', 3, 2, True]",TRUE,3,white,45,left,down,high,white_high_45_down,black_high_135_down,2,right,0.2648231,0,120,6,3.2.2021,120.2852685
516,"['high', 1, 2, True]",TRUE,1,white,135,right,up,high,white_high_135_up,black_high_45_up,2,right,0.5993397,1,120,6,3.2.2021,120.2852685
517,"['high', 64, 2, True]",TRUE,64,black,45,right,down,high,black_high_45_down,white_high_135_down,2,right,0.2810349,1,120,6,3.2.2021,120.2852685
518,"['low', 4, 2, True]",TRUE,4,black,45,right,up,low,black_low_45_up,white_low_135_up,2,right,0.2254988,1,120,6,3.2.2021,120.2852685
519,"['high', 1, 2, False]",FALSE,1,black,135,left,down,high,black_high_135_down,white_high_45_down,2,left,0.4779621,1,120,6,3.2.2021,120.2852685
520,"['low', 1, 2, False]",FALSE,1,black,135,left,up,low,black_low_135_up,white_low_45_up,2,left,1.2389105,1,120,6,3.2.2021,120.2852685
521,"['low', 1, 2, True]",TRUE,1,white,135,right,up,low,white_low_135_up,black_low_45_up,2,right,0.6203157,1,120,6,3.2.2021,120.2852685
522,"['high', 1, 2, True]",TRUE,1,black,135,left,up,high,black_high_135_up,white_high_45_up,2,right,0.4425869,0,120,6,3.2.2021,120.2852685
523,"['low', 1, 2, True]",TRUE,1,black,45,right,up,low,black_low_45_up,white_low_135_up,2,right,0.4192155,1,120,6,3.2.2021,120.2852685
524,"['low', 2, 2, True]",TRUE,2,white,45,left,down,low,white_low_45_down,black_low_135_down,2,left,0.3387468,1,120,6,3.2.2021,120.2852685
525,"['high', 8, 2, True]",TRUE,8,black,45,right,up,high,black_high_45_up,white_high_135_up,2,right,0.1158704,1,120,6,3.2.2021,120.2852685
526,"['low', 16, 2, True]",TRUE,16,black,45,right,down,low,black_low_45_down,white_low_135_down,2,right,0.1326394,1,120,6,3.2.2021,120.2852685
527,"['high', 3, 60, False]",FALSE,3,black,45,right,up,high,black_high_45_up,white_high_135_up,60,right,0.1911401,1,120,6,3.2.2021,120.2852685
528,"['low', 4, 2, True]",TRUE,4,white,45,left,down,low,white_low_45_down,black_low_135_down,2,left,0.2905701,1,120,6,3.2.2021,120.2852685
529,"['high', 3, 2, True]",TRUE,3,white,135,right,up,high,white_high_135_up,black_high_45_up,2,right,0.2473691,1,120,6,3.2.2021,120.2852685
530,"['low', 1, 2, True]",TRUE,1,white,135,right,down,low,white_low_135_down,black_low_45_down,2,right,0.8608964,1,120,6,3.2.2021,120.2852685
531,"['high', 1, 2, False]",FALSE,1,white,135,right,down,high,white_high_135_down,black_high_45_down,2,right,0.7955192,1,120,6,3.2.2021,120.2852685
532,"['high', 3, 2, True]",TRUE,3,black,135,left,down,high,black_high_135_down,white_high_45_down,2,left,0.309786,1,120,6,3.2.2021,120.2852685
533,"['high', 2, 2, True]",TRUE,2,white,45,left,down,high,white_high_45_down,black_high_135_down,2,left,0.1816543,1,120,6,3.2.2021,120.2852685
534,"['low', 8, 2, True]",TRUE,8,white,45,left,up,low,white_low_45_up,black_low_135_up,2,left,1.3003847,1,120,6,3.2.2021,120.2852685
535,"['high', 64, 2, True]",TRUE,64,white,45,left,up,high,white_high_45_up,black_high_135_up,2,left,0.302802,1,120,6,3.2.2021,120.2852685
536,"['low', 4, 2, True]",TRUE,4,white,135,right,down,low,white_low_135_down,black_low_45_down,2,right,2.5078276,1,120,6,3.2.2021,120.2852685
537,"['high', 4, 2, True]",TRUE,4,black,45,right,down,high,black_high_45_down,white_high_135_down,2,right,0.2509922,1,120,6,3.2.2021,120.2852685
538,"['high', 64, 2, True]",TRUE,64,white,135,right,down,high,white_high_135_down,black_high_45_down,2,right,1.0520401,1,120,6,3.2.2021,120.2852685
539,"['low', 2, 2, True]",TRUE,2,black,135,left,down,low,black_low_135_down,white_low_45_down,2,left,0.1971682,1,120,6,3.2.2021,120.2852685
540,"['high', 64, 2, True]",TRUE,64,black,135,left,down,high,black_high_135_down,white_high_45_down,2,left,0.1693432,1,120,6,3.2.2021,120.2852685
541,"['high', 32, 2, True]",TRUE,32,white,135,right,up,high,white_high_135_up,black_high_45_up,2,right,0.2106321,1,120,6,3.2.2021,120.2852685
542,"['high', 16, 2, True]",TRUE,16,white,135,right,up,high,white_high_135_up,black_high_45_up,2,right,0.4416846,1,120,6,3.2.2021,120.2852685
543,"['high', 8, 2, True]",TRUE,8,white,135,right,up,high,white_high_135_up,black_high_45_up,2,right,0.2373119,1,120,6,3.2.2021,120.2852685
544,"['low', 1, 2, False]",FALSE,1,black,45,right,down,low,black_low_45_down,white_low_135_down,2,right,0.3513054,1,120,6,3.2.2021,120.2852685
545,"['low', 64, 2, True]",TRUE,64,white,45,left,up,low,white_low_45_up,black_low_135_up,2,left,0.164013,1,120,6,3.2.2021,120.2852685
546,"['high', 16, 2, True]",TRUE,16,black,135,left,up,high,black_high_135_up,white_high_45_up,2,left,0.2378861,1,120,6,3.2.2021,120.2852685
547,"['low', 8, 2, True]",TRUE,8,white,45,left,down,low,white_low_45_down,black_low_135_down,2,left,0.3260442,1,120,6,3.2.2021,120.2852685
548,"['high', 16, 2, True]",TRUE,16,black,135,left,down,high,black_high_135_down,white_high_45_down,2,left,1.3793914,1,120,6,3.2.2021,120.2852685
549,"['high', 3, 2, True]",TRUE,3,black,45,right,down,high,black_high_45_down,white_high_135_down,2,right,0.6495379,1,120,6,3.2.2021,120.2852685
550,"['high', 8, 2, True]",TRUE,8,black,45,right,up,high,black_high_45_up,white_high_135_up,2,right,0.2553689,1,120,6,3.2.2021,120.2852685
551,"['high', 1, 2, False]",FALSE,1,black,135,left,up,high,black_high_135_up,white_high_45_up,2,left,0.4571303,1,120,6,3.2.2021,120.2852685
552,"['low', 1, 2, False]",FALSE,1,black,45,right,down,low,black_low_45_down,white_low_135_down,2,right,1.34943,1,120,6,3.2.2021,120.2852685
553,"['low', 32, 2, True]",TRUE,32,white,45,left,down,low,white_low_45_down,black_low_135_down,2,left,0.2409369,1,120,6,3.2.2021,120.2852685
554,"['low', 4, 2, True]",TRUE,4,white,135,right,up,low,white_low_135_up,black_low_45_up,2,right,0.1771988,1,120,6,3.2.2021,120.2852685
555,"['high', 64, 2, True]",TRUE,64,black,45,right,down,high,black_high_45_down,white_high_135_down,2,right,0.3750895,1,120,6,3.2.2021,120.2852685
556,"['low', 16, 2, True]",TRUE,16,white,135,right,down,low,white_low_135_down,black_low_45_down,2,right,0.1991826,1,120,6,3.2.2021,120.2852685
557,"['high', 1, 2, False]",FALSE,1,black,45,right,up,high,black_high_45_up,white_high_135_up,2,right,0.3248635,1,120,6,3.2.2021,120.2852685
558,"['high', 2, 2, True]",TRUE,2,black,45,right,up,high,black_high_45_up,white_high_135_up,2,right,2.5588292,1,120,6,3.2.2021,120.2852685
559,"['high', 1, 2, True]",TRUE,1,black,45,right,down,high,black_high_45_down,white_high_135_down,2,right,0.2801213,1,120,6,3.2.2021,120.2852685
560,"['low', 32, 2, True]",TRUE,32,black,45,right,up,low,black_low_45_up,white_low_135_up,2,right,0.2544549,1,120,6,3.2.2021,120.2852685
561,"['high', 4, 2, True]",TRUE,4,white,45,left,up,high,white_high_45_up,black_high_135_up,2,left,0.2264245,1,120,6,3.2.2021,120.2852685
562,"['high', 4, 2, True]",TRUE,4,black,45,right,up,high,black_high_45_up,white_high_135_up,2,right,0.1265516,1,120,6,3.2.2021,120.2852685
563,"['low', 1, 2, True]",TRUE,1,black,135,left,down,low,black_low_135_down,white_low_45_down,2,left,1.3598166,1,120,6,3.2.2021,120.2852685
564,"['high', 1, 2, True]",TRUE,1,white,135,right,down,high,white_high_135_down,black_high_45_down,2,right,0.1432041,1,120,6,3.2.2021,120.2852685
565,"['high', 8, 2, True]",TRUE,8,black,135,left,up,high,black_high_135_up,white_high_45_up,2,left,0.2373355,1,120,6,3.2.2021,120.2852685
566,"['high', 4, 2, True]",TRUE,4,white,45,left,up,high,white_high_45_up,black_high_135_up,2,left,0.2578853,1,120,6,3.2.2021,120.2852685
567,"['high', 1, 2, True]",TRUE,1,white,45,left,down,high,white_high_45_down,black_high_135_down,2,right,1.3624266,0,120,6,3.2.2021,120.2852685
568,"['high', 8, 2, True]",TRUE,8,black,135,left,down,high,black_high_135_down,white_high_45_down,2,left,0.6720201,1,120,6,3.2.2021,120.2852685
569,"['high', 1, 2, True]",TRUE,1,black,45,right,down,high,black_high_45_down,white_high_135_down,2,right,0.6507469,1,120,6,3.2.2021,120.2852685
570,"['high', 8, 2, True]",TRUE,8,white,45,left,up,high,white_high_45_up,black_high_135_up,2,left,0.269127,1,120,6,3.2.2021,120.2852685
571,"['high', 2, 2, True]",TRUE,2,black,135,left,up,high,black_high_135_up,white_high_45_up,2,left,0.1629467,1,120,6,3.2.2021,120.2852685
572,"['low', 8, 2, True]",TRUE,8,white,45,left,up,low,white_low_45_up,black_low_135_up,2,left,0.2245236,1,120,6,3.2.2021,120.2852685
573,"['high', 3, 2, True]",TRUE,3,white,45,left,up,high,white_high_45_up,black_high_135_up,2,left,0.1092498,1,120,6,3.2.2021,120.2852685
574,"['low', 64, 2, True]",TRUE,64,black,135,left,down,low,black_low_135_down,white_low_45_down,2,left,0.1844664,1,120,6,3.2.2021,120.2852685
575,"['low', 1, 2, True]",TRUE,1,white,135,right,up,low,white_low_135_up,black_low_45_up,2,left,0.6029457,0,120,6,3.2.2021,120.2852685
576,"['low', 1, 2, True]",TRUE,1,black,135,left,up,low,black_low_135_up,white_low_45_up,2,left,0.1532911,1,120,6,3.2.2021,120.2852685
577,"['high', 32, 2, True]",TRUE,32,white,135,right,down,high,white_high_135_down,black_high_45_down,2,right,0.2418917,1,120,6,3.2.2021,120.2852685
578,"['high', 8, 2, True]",TRUE,8,white,135,right,down,high,white_high_135_down,black_high_45_down,2,right,0.3214269,1,120,6,3.2.2021,120.2852685
579,"['low', 2, 2, True]",TRUE,2,black,45,right,up,low,black_low_45_up,white_low_135_up,2,right,0.2639705,1,120,6,3.2.2021,120.2852685
580,"['high', 16, 2, True]",TRUE,16,black,135,left,down,high,black_high_135_down,white_high_45_down,2,left,0.3466026,1,120,6,3.2.2021,120.2852685
581,"['low', 64, 2, True]",TRUE,64,white,135,right,down,low,white_low_135_down,black_low_45_down,2,right,0.2318308,1,120,6,3.2.2021,120.2852685
582,"['low', 1, 2, True]",TRUE,1,black,135,left,up,low,black_low_135_up,white_low_45_up,2,left,0.1100751,1,120,6,3.2.2021,120.2852685
583,"['high', 32, 2, True]",TRUE,32,white,45,left,up,high,white_high_45_up,black_high_135_up,2,left,0.1958375,1,120,6,3.2.2021,120.2852685
584,"['high', 1, 2, True]",TRUE,1,black,45,right,up,high,black_high_45_up,white_high_135_up,2,right,0.6478734,1,120,6,3.2.2021,120.2852685
585,"['high', 2, 2, True]",TRUE,2,black,135,left,down,high,black_high_135_down,white_high_45_down,2,left,0.4341721,1,120,6,3.2.2021,120.2852685
586,"['low', 4, 2, True]",TRUE,4,black,135,left,up,low,black_low_135_up,white_low_45_up,2,left,0.3842078,1,120,6,3.2.2021,120.2852685
587,"['high', 3, 2, True]",TRUE,3,white,135,right,down,high,white_high_135_down,black_high_45_down,2,right,0.4903384,1,120,6,3.2.2021,120.2852685
588,"['high', 1, 2, False]",FALSE,1,white,45,left,down,high,white_high_45_down,black_high_135_down,2,right,0.6675215,0,120,6,3.2.2021,120.2852685
589,"['high', 1, 2, False]",FALSE,1,black,45,right,up,high,black_high_45_up,white_high_135_up,2,right,0.5077438,1,120,6,3.2.2021,120.2852685
590,"['high', 1, 2, True]",TRUE,1,black,45,right,down,high,black_high_45_down,white_high_135_down,2,right,0.6089489,1,120,6,3.2.2021,120.2852685
591,"['high', 1, 2, False]",FALSE,1,black,135,left,down,high,black_high_135_down,white_high_45_down,2,left,0.6599999,1,120,6,3.2.2021,120.2852685
592,"['low', 1, 2, True]",TRUE,1,white,45,left,down,low,white_low_45_down,black_low_135_down,2,left,1.6538595,1,120,6,3.2.2021,120.2852685
593,"['low', 4, 2, True]",TRUE,4,white,45,left,down,low,white_low_45_down,black_low_135_down,2,left,0.5244538,1,120,6,3.2.2021,120.2852685
594,"['high', 64, 2, True]",TRUE,64,white,135,right,down,high,white_high_135_down,black_high_45_down,2,right,0.3636297,1,120,6,3.2.2021,120.2852685
595,"['low', 3, 2, True]",TRUE,3,white,45,left,down,low,white_low_45_down,black_low_135_down,2,left,0.2395902,1,120,6,3.2.2021,120.2852685
596,"['high', 32, 2, True]",TRUE,32,white,45,left,up,high,white_high_45_up,black_high_135_up,2,left,0.2744552,1,120,6,3.2.2021,120.2852685
597,"['high', 1, 2, False]",FALSE,1,black,45,right,up,high,black_high_45_up,white_high_135_up,2,right,0.3824891,1,120,6,3.2.2021,120.2852685
598,"['low', 4, 2, True]",TRUE,4,black,135,left,down,low,black_low_135_down,white_low_45_down,2,left,0.2403574,1,120,6,3.2.2021,120.2852685
599,"['high', 32, 2, True]",TRUE,32,black,45,right,up,high,black_high_45_up,white_high_135_up,2,right,0.2667726,1,120,6,3.2.2021,120.2852685
600,"['high', 1, 2, False]",FALSE,1,white,45,left,up,high,white_high_45_up,black_high_135_up,2,right,0.4084233,0,120,6,3.2.2021,120.2852685
601,"['low', 2, 2, True]",TRUE,2,white,135,right,down,low,white_low_135_down,black_low_45_down,2,left,1.2434296,0,120,6,3.2.2021,120.2852685
602,"['high', 1, 2, False]",FALSE,1,white,45,left,down,high,white_high_45_down,black_high_135_down,2,right,0.8197656,0,120,6,3.2.2021,120.2852685
603,"['low', 8, 2, True]",TRUE,8,black,45,right,down,low,black_low_45_down,white_low_135_down,2,right,0.3980186,1,120,6,3.2.2021,120.2852685
604,"['low', 2, 2, True]",TRUE,2,black,135,left,up,low,black_low_135_up,white_low_45_up,2,left,0.7592411,1,120,6,3.2.2021,120.2852685
605,"['low', 1, 2, True]",TRUE,1,white,135,right,up,low,white_low_135_up,black_low_45_up,2,left,1.2274708,0,120,6,3.2.2021,120.2852685
606,"['low', 3, 2, True]",TRUE,3,white,135,right,down,low,white_low_135_down,black_low_45_down,2,right,0.293464,1,120,6,3.2.2021,120.2852685
607,"['low', 8, 2, True]",TRUE,8,black,45,right,down,low,black_low_45_down,white_low_135_down,2,right,0.2522437,1,120,6,3.2.2021,120.2852685
608,"['low', 4, 2, True]",TRUE,4,black,45,right,up,low,black_low_45_up,white_low_135_up,2,right,0.2359328,1,120,6,3.2.2021,120.2852685
609,"['low', 3, 2, True]",TRUE,3,white,45,left,up,low,white_low_45_up,black_low_135_up,2,left,0.1168759,1,120,6,3.2.2021,120.2852685
610,"['high', 2, 2, True]",TRUE,2,white,135,right,up,high,white_high_135_up,black_high_45_up,2,right,0.2157012,1,120,6,3.2.2021,120.2852685
611,"['low', 8, 2, True]",TRUE,8,black,45,right,up,low,black_low_45_up,white_low_135_up,2,right,0.7551774,1,120,6,3.2.2021,120.2852685
612,"['high', 3, 60, False]",FALSE,3,white,135,right,up,high,white_high_135_up,black_high_45_up,60,right,0.5247429,1,120,6,3.2.2021,120.2852685
613,"['high', 1, 2, True]",TRUE,1,black,45,right,down,high,black_high_45_down,white_high_135_down,2,right,0.6042595,1,120,6,3.2.2021,120.2852685
614,"['low', 16, 2, True]",TRUE,16,white,45,left,down,low,white_low_45_down,black_low_135_down,2,left,1.1843727,1,120,6,3.2.2021,120.2852685
615,"['high', 1, 2, True]",TRUE,1,black,135,left,up,high,black_high_135_up,white_high_45_up,2,right,0.496908,0,120,6,3.2.2021,120.2852685
616,"['high', 8, 2, True]",TRUE,8,white,135,right,down,high,white_high_135_down,black_high_45_down,2,right,0.3008515,1,120,6,3.2.2021,120.2852685
617,"['low', 2, 2, True]",TRUE,2,white,135,right,up,low,white_low_135_up,black_low_45_up,2,right,0.3034652,1,120,6,3.2.2021,120.2852685
618,"['high', 32, 2, True]",TRUE,32,black,135,left,up,high,black_high_135_up,white_high_45_up,2,left,0.2382529,1,120,6,3.2.2021,120.2852685
619,"['high', 1, 2, False]",FALSE,1,white,135,right,down,high,white_high_135_down,black_high_45_down,2,right,0.5358113,1,120,6,3.2.2021,120.2852685
620,"['low', 16, 2, True]",TRUE,16,white,45,left,down,low,white_low_45_down,black_low_135_down,2,left,0.3121028,1,120,6,3.2.2021,120.2852685
621,"['low', 4, 2, True]",TRUE,4,white,45,left,down,low,white_low_45_down,black_low_135_down,2,left,0.3177395,1,120,6,3.2.2021,120.2852685
622,"['low', 32, 2, True]",TRUE,32,black,45,right,up,low,black_low_45_up,white_low_135_up,2,right,0.3474898,1,120,6,3.2.2021,120.2852685
623,"['high', 3, 2, True]",TRUE,3,black,45,right,down,high,black_high_45_down,white_high_135_down,2,right,2.0387215,1,120,6,3.2.2021,120.2852685
624,"['low', 64, 2, True]",TRUE,64,black,135,left,down,low,black_low_135_down,white_low_45_down,2,left,0.6923896,1,120,6,3.2.2021,120.2852685
625,"['low', 1, 2, True]",TRUE,1,white,135,right,up,low,white_low_135_up,black_low_45_up,2,left,1.1308168,0,120,6,3.2.2021,120.2852685
626,"['low', 1, 2, True]",TRUE,1,white,135,right,up,low,white_low_135_up,black_low_45_up,2,left,1.0698053,0,120,6,3.2.2021,120.2852685
627,"['low', 16, 2, True]",TRUE,16,black,135,left,down,low,black_low_135_down,white_low_45_down,2,left,0.6862603,1,120,6,3.2.2021,120.2852685
628,"['low', 16, 2, True]",TRUE,16,black,45,right,down,low,black_low_45_down,white_low_135_down,2,right,0.2166272,1,120,6,3.2.2021,120.2852685
629,"['low', 64, 2, True]",TRUE,64,black,45,right,up,low,black_low_45_up,white_low_135_up,2,right,0.1952569,1,120,6,3.2.2021,120.2852685
630,"['high', 4, 2, True]",TRUE,4,black,45,right,up,high,black_high_45_up,white_high_135_up,2,right,0.5942277,1,120,6,3.2.2021,120.2852685
631,"['low', 8, 2, True]",TRUE,8,white,135,right,down,low,white_low_135_down,black_low_45_down,2,right,0.3169903,1,120,6,3.2.2021,120.2852685
632,"['high', 8, 2, True]",TRUE,8,black,45,right,up,high,black_high_45_up,white_high_135_up,2,right,0.225474,1,120,6,3.2.2021,120.2852685
633,"['high', 3, 2, True]",TRUE,3,white,45,left,down,high,white_high_45_down,black_high_135_down,2,right,0.2431835,0,120,6,3.2.2021,120.2852685
634,"['low', 16, 2, True]",TRUE,16,black,135,left,up,low,black_low_135_up,white_low_45_up,2,left,0.2261433,1,120,6,3.2.2021,120.2852685
635,"['low', 32, 2, True]",TRUE,32,white,135,right,down,low,white_low_135_down,black_low_45_down,2,right,0.1194602,1,120,6,3.2.2021,120.2852685
636,"['high', 3, 2, True]",TRUE,3,black,45,right,up,high,black_high_45_up,white_high_135_up,2,right,0.2428503,1,120,6,3.2.2021,120.2852685
637,"['high', 16, 2, True]",TRUE,16,white,45,left,up,high,white_high_45_up,black_high_135_up,2,left,0.3099216,1,120,6,3.2.2021,120.2852685
638,"['low', 8, 2, True]",TRUE,8,white,45,left,down,low,white_low_45_down,black_low_135_down,2,right,0.3867708,0,120,6,3.2.2021,120.2852685
639,"['high', 16, 2, True]",TRUE,16,white,45,left,down,high,white_high_45_down,black_high_135_down,2,left,0.2183834,1,120,6,3.2.2021,120.2852685
640,"['low', 16, 2, True]",TRUE,16,black,45,right,up,low,black_low_45_up,white_low_135_up,2,right,0.260946,1,120,6,3.2.2021,120.2852685
641,"['high', 16, 2, True]",TRUE,16,white,135,right,down,high,white_high_135_down,black_high_45_down,2,right,0.232638,1,120,6,3.2.2021,120.2852685
642,"['low', 2, 2, True]",TRUE,2,white,135,right,down,low,white_low_135_down,black_low_45_down,2,right,0.2376813,1,120,6,3.2.2021,120.2852685
643,"['low', 16, 2, True]",TRUE,16,white,135,right,up,low,white_low_135_up,black_low_45_up,2,right,0.2072953,1,120,6,3.2.2021,120.2852685
644,"['low', 8, 2, True]",TRUE,8,black,135,left,up,low,black_low_135_up,white_low_45_up,2,left,0.5977762,1,120,6,3.2.2021,120.2852685
645,"['high', 16, 2, True]",TRUE,16,white,45,left,up,high,white_high_45_up,black_high_135_up,2,left,0.2462287,1,120,6,3.2.2021,120.2852685
646,"['low', 32, 2, True]",TRUE,32,black,45,right,down,low,black_low_45_down,white_low_135_down,2,right,0.2022039,1,120,6,3.2.2021,120.2852685
647,"['low', 8, 2, True]",TRUE,8,white,135,right,down,low,white_low_135_down,black_low_45_down,2,right,0.2772361,1,120,6,3.2.2021,120.2852685
648,"['low', 16, 2, True]",TRUE,16,black,45,right,up,low,black_low_45_up,white_low_135_up,2,right,0.1442249,1,120,6,3.2.2021,120.2852685
649,"['low', 1, 2, True]",TRUE,1,black,45,right,up,low,black_low_45_up,white_low_135_up,2,right,0.5593585,1,120,6,3.2.2021,120.2852685
650,"['low', 32, 2, True]",TRUE,32,white,45,left,up,low,white_low_45_up,black_low_135_up,2,left,0.2614029,1,120,6,3.2.2021,120.2852685
651,"['high', 64, 2, True]",TRUE,64,white,45,left,up,high,white_high_45_up,black_high_135_up,2,left,0.1886117,1,120,6,3.2.2021,120.2852685
652,"['low', 4, 2, True]",TRUE,4,black,135,left,up,low,black_low_135_up,white_low_45_up,2,left,0.9247004,1,120,6,3.2.2021,120.2852685
653,"['low', 4, 2, True]",TRUE,4,black,45,right,down,low,black_low_45_down,white_low_135_down,2,right,0.3170295,1,120,6,3.2.2021,120.2852685
654,"['low', 8, 2, True]",TRUE,8,white,45,left,down,low,white_low_45_down,black_low_135_down,2,left,1.4475214,1,120,6,3.2.2021,120.2852685
655,"['low', 1, 2, True]",TRUE,1,white,45,left,up,low,white_low_45_up,black_low_135_up,2,left,0.5907456,1,120,6,3.2.2021,120.2852685
656,"['high', 3, 2, True]",TRUE,3,white,135,right,down,high,white_high_135_down,black_high_45_down,2,left,0.70308,0,120,6,3.2.2021,120.2852685
657,"['high', 3, 60, False]",FALSE,3,white,135,right,down,high,white_high_135_down,black_high_45_down,60,right,4.3103399,1,120,6,3.2.2021,120.2852685
658,"['high', 4, 2, True]",TRUE,4,black,135,left,up,high,black_high_135_up,white_high_45_up,2,left,0.6662032,1,120,6,3.2.2021,120.2852685
659,"['high', 64, 2, True]",TRUE,64,white,45,left,up,high,white_high_45_up,black_high_135_up,2,left,0.8834467,1,120,6,3.2.2021,120.2852685
660,"['low', 16, 2, True]",TRUE,16,black,135,left,down,low,black_low_135_down,white_low_45_down,2,left,2.3864915,1,120,6,3.2.2021,120.2852685
661,"['high', 4, 2, True]",TRUE,4,black,135,left,up,high,black_high_135_up,white_high_45_up,2,left,0.3638944,1,120,6,3.2.2021,120.2852685
662,"['low', 3, 2, True]",TRUE,3,white,45,left,down,low,white_low_45_down,black_low_135_down,2,left,0.3195104,1,120,6,3.2.2021,120.2852685
663,"['high', 1, 2, True]",TRUE,1,white,135,right,down,high,white_high_135_down,black_high_45_down,2,left,0.2332313,0,120,6,3.2.2021,120.2852685
664,"['high', 3, 2, True]",TRUE,3,black,135,left,up,high,black_high_135_up,white_high_45_up,2,left,0.223926,1,120,6,3.2.2021,120.2852685
665,"['high', 1, 2, True]",TRUE,1,white,135,right,up,high,white_high_135_up,black_high_45_up,2,left,0.2074338,0,120,6,3.2.2021,120.2852685
666,"['high', 4, 2, True]",TRUE,4,white,45,left,up,high,white_high_45_up,black_high_135_up,2,left,0.2472198,1,120,6,3.2.2021,120.2852685
667,"['high', 8, 2, True]",TRUE,8,white,135,right,up,high,white_high_135_up,black_high_45_up,2,right,0.2102106,1,120,6,3.2.2021,120.2852685
668,"['high', 8, 2, True]",TRUE,8,black,135,left,up,high,black_high_135_up,white_high_45_up,2,left,0.4577424,1,120,6,3.2.2021,120.2852685
669,"['high', 1, 2, True]",TRUE,1,black,135,left,down,high,black_high_135_down,white_high_45_down,2,left,1.0374767,1,120,6,3.2.2021,120.2852685
670,"['high', 1, 2, False]",FALSE,1,white,45,left,up,high,white_high_45_up,black_high_135_up,2,left,6.194924,1,120,6,3.2.2021,120.2852685
671,"['low', 1, 2, True]",TRUE,1,black,135,left,down,low,black_low_135_down,white_low_45_down,2,left,0.3217739,1,120,6,3.2.2021,120.2852685
672,"['low', 16, 2, True]",TRUE,16,white,135,right,up,low,white_low_135_up,black_low_45_up,2,right,0.3312257,1,120,6,3.2.2021,120.2852685
673,"['high', 16, 2, True]",TRUE,16,black,45,right,down,high,black_high_45_down,white_high_135_down,2,right,0.3724742,1,120,6,3.2.2021,120.2852685
674,"['high', 3, 2, True]",TRUE,3,white,45,left,down,high,white_high_45_down,black_high_135_down,2,left,0.239505,1,120,6,3.2.2021,120.2852685
675,"['low', 2, 2, True]",TRUE,2,black,135,left,down,low,black_low_135_down,white_low_45_down,2,left,0.2494464,1,120,6,3.2.2021,120.2852685
676,"['low', 1, 2, True]",TRUE,1,white,45,left,up,low,white_low_45_up,black_low_135_up,2,right,0.3338561,0,120,6,3.2.2021,120.2852685
677,"['low', 4, 2, True]",TRUE,4,white,45,left,up,low,white_low_45_up,black_low_135_up,2,left,0.5014055,1,120,6,3.2.2021,120.2852685
678,"['high', 2, 2, True]",TRUE,2,black,135,left,down,high,black_high_135_down,white_high_45_down,2,left,0.3666263,1,120,6,3.2.2021,120.2852685
679,"['low', 16, 2, True]",TRUE,16,black,135,left,down,low,black_low_135_down,white_low_45_down,2,left,0.3202891,1,120,6,3.2.2021,120.2852685
680,"['high', 4, 2, True]",TRUE,4,white,45,left,down,high,white_high_45_down,black_high_135_down,2,left,4.6758656,1,120,6,3.2.2021,120.2852685
681,"['high', 8, 2, True]",TRUE,8,white,45,left,down,high,white_high_45_down,black_high_135_down,2,left,2.7556044,1,120,6,3.2.2021,120.2852685
682,"['low', 64, 2, True]",TRUE,64,white,135,right,down,low,white_low_135_down,black_low_45_down,2,right,1.3933965,1,120,6,3.2.2021,120.2852685
683,"['low', 1, 2, False]",FALSE,1,black,135,left,up,low,black_low_135_up,white_low_45_up,2,left,0.5679538,1,120,6,3.2.2021,120.2852685
684,"['low', 1, 2, False]",FALSE,1,black,45,right,down,low,black_low_45_down,white_low_135_down,2,right,0.4646818,1,120,6,3.2.2021,120.2852685
685,"['low', 2, 2, True]",TRUE,2,white,135,right,down,low,white_low_135_down,black_low_45_down,2,right,0.1659663,1,120,6,3.2.2021,120.2852685
686,"['high', 2, 2, True]",TRUE,2,white,135,right,up,high,white_high_135_up,black_high_45_up,2,left,0.4463256,0,120,6,3.2.2021,120.2852685
687,"['low', 8, 2, True]",TRUE,8,black,135,left,up,low,black_low_135_up,white_low_45_up,2,left,0.2759607,1,120,6,3.2.2021,120.2852685
688,"['high', 64, 2, True]",TRUE,64,white,45,left,down,high,white_high_45_down,black_high_135_down,2,left,0.2587915,1,120,6,3.2.2021,120.2852685
689,"['high', 32, 2, True]",TRUE,32,black,135,left,down,high,black_high_135_down,white_high_45_down,2,left,0.3237475,1,120,6,3.2.2021,120.2852685
690,"['low', 1, 2, True]",TRUE,1,white,45,left,up,low,white_low_45_up,black_low_135_up,2,left,0.2710474,1,120,6,3.2.2021,120.2852685
691,"['low', 16, 2, True]",TRUE,16,black,45,right,down,low,black_low_45_down,white_low_135_down,2,right,0.4142375,1,120,6,3.2.2021,120.2852685
692,"['high', 64, 2, True]",TRUE,64,white,135,right,up,high,white_high_135_up,black_high_45_up,2,right,0.2789682,1,120,6,3.2.2021,120.2852685
693,"['high', 1, 2, True]",TRUE,1,white,135,right,up,high,white_high_135_up,black_high_45_up,2,right,0.291199,1,120,6,3.2.2021,120.2852685
694,"['low', 4, 2, True]",TRUE,4,black,135,left,down,low,black_low_135_down,white_low_45_down,2,left,0.4240472,1,120,6,3.2.2021,120.2852685
695,"['high', 3, 2, True]",TRUE,3,black,135,left,down,high,black_high_135_down,white_high_45_down,2,left,0.3837114,1,120,6,3.2.2021,120.2852685
696,"['high', 1, 2, True]",TRUE,1,white,45,left,up,high,white_high_45_up,black_high_135_up,2,left,0.4252702,1,120,6,3.2.2021,120.2852685
697,"['high', 4, 2, True]",TRUE,4,black,135,left,down,high,black_high_135_down,white_high_45_down,2,left,0.4340777,1,120,6,3.2.2021,120.2852685
698,"['high', 3, 60, False]",FALSE,3,white,135,right,down,high,white_high_135_down,black_high_45_down,60,right,0.3659254,1,120,6,3.2.2021,120.2852685
699,"['low', 16, 2, True]",TRUE,16,white,135,right,down,low,white_low_135_down,black_low_45_down,2,right,0.3552414,1,120,6,3.2.2021,120.2852685
700,"['low', 1, 2, True]",TRUE,1,black,45,right,up,low,black_low_45_up,white_low_135_up,2,right,0.3007347,1,120,6,3.2.2021,120.2852685
701,"['high', 1, 2, False]",FALSE,1,white,45,left,up,high,white_high_45_up,black_high_135_up,2,left,0.6189794,1,120,6,3.2.2021,120.2852685
702,"['high', 16, 2, True]",TRUE,16,black,135,left,up,high,black_high_135_up,white_high_45_up,2,left,0.2387291,1,120,6,3.2.2021,120.2852685
703,"['high', 4, 2, True]",TRUE,4,white,45,left,down,high,white_high_45_down,black_high_135_down,2,left,0.3067528,1,120,6,3.2.2021,120.2852685
704,"['high', 16, 2, True]",TRUE,16,white,135,right,down,high,white_high_135_down,black_high_45_down,2,right,0.1854149,1,120,6,3.2.2021,120.2852685
