trial_number,trial_type,mask_present,cycle_number,first_color,first_orientation,correct_response,visual_field,spatial_frequency,first_stim,second_stim,stimulus_frame_duration,answer,rt,accuracy,frame_rate,participant,psychopyVersion,frame_rate_detected
0,"['high', 1, 2, True]",TRUE,1,black,45,right,down,high,black_high_45_down,white_high_135_down,2,left,0.378003,0,120,1,3.2.2021,119.9872334
1,"['low', 8, 2, True]",TRUE,8,black,135,left,up,low,black_low_135_up,white_low_45_up,2,right,0.3547912,0,120,1,3.2.2021,119.9872334
2,"['low', 8, 2, True]",TRUE,8,white,45,left,down,low,white_low_45_down,black_low_135_down,2,right,0.1566285,0,120,1,3.2.2021,119.9872334
3,"['high', 1, 2, True]",TRUE,1,white,45,left,up,high,white_high_45_up,black_high_135_up,2,left,0.149569,1,120,1,3.2.2021,119.9872334
4,"['low', 32, 2, True]",TRUE,32,white,45,left,up,low,white_low_45_up,black_low_135_up,2,right,0.1599975,0,120,1,3.2.2021,119.9872334
5,"['high', 16, 2, True]",TRUE,16,white,135,right,up,high,white_high_135_up,black_high_45_up,2,right,0.0699308,1,120,1,3.2.2021,119.9872334
6,"['low', 3, 2, True]",TRUE,3,black,45,right,up,low,black_low_45_up,white_low_135_up,2,right,0.4287191,1,120,1,3.2.2021,119.9872334
7,"['low', 32, 2, True]",TRUE,32,black,135,left,up,low,black_low_135_up,white_low_45_up,2,right,0.296121,0,120,1,3.2.2021,119.9872334
8,"['high', 3, 60, False]",FALSE,3,black,135,left,down,high,black_high_135_down,white_high_45_down,60,left,0.7904688,1,120,1,3.2.2021,119.9872334
9,"['low', 64, 2, True]",TRUE,64,white,45,left,up,low,white_low_45_up,black_low_135_up,2,left,0.0915051,1,120,1,3.2.2021,119.9872334
10,"['high', 1, 2, False]",FALSE,1,white,135,right,down,high,white_high_135_down,black_high_45_down,2,right,0.3788938,1,120,1,3.2.2021,119.9872334
11,"['low', 2, 2, True]",TRUE,2,white,135,right,up,low,white_low_135_up,black_low_45_up,2,right,0.4946244,1,120,1,3.2.2021,119.9872334
12,"['high', 4, 2, True]",TRUE,4,white,135,right,up,high,white_high_135_up,black_high_45_up,2,right,0.1377318,1,120,1,3.2.2021,119.9872334
13,"['high', 8, 2, True]",TRUE,8,black,45,right,down,high,black_high_45_down,white_high_135_down,2,right,0.21451,1,120,1,3.2.2021,119.9872334
14,"['low', 64, 2, True]",TRUE,64,white,135,right,down,low,white_low_135_down,black_low_45_down,2,right,0.2311425,1,120,1,3.2.2021,119.9872334
15,"['low', 16, 2, True]",TRUE,16,white,135,right,down,low,white_low_135_down,black_low_45_down,2,right,0.1867575,1,120,1,3.2.2021,119.9872334
16,"['low', 16, 2, True]",TRUE,16,white,45,left,down,low,white_low_45_down,black_low_135_down,2,right,1.6878387,0,120,1,3.2.2021,119.9872334
17,"['high', 32, 2, True]",TRUE,32,black,45,right,down,high,black_high_45_down,white_high_135_down,2,left,0.1337768,0,120,1,3.2.2021,119.9872334
18,"['high', 1, 2, True]",TRUE,1,white,45,left,up,high,white_high_45_up,black_high_135_up,2,right,0.1681468,0,120,1,3.2.2021,119.9872334
19,"['low', 2, 2, True]",TRUE,2,white,135,right,down,low,white_low_135_down,black_low_45_down,2,right,0.3981964,1,120,1,3.2.2021,119.9872334
20,"['high', 2, 2, True]",TRUE,2,black,135,left,down,high,black_high_135_down,white_high_45_down,2,right,1.4149271,0,120,1,3.2.2021,119.9872334
21,"['low', 3, 2, True]",TRUE,3,black,45,right,down,low,black_low_45_down,white_low_135_down,2,right,0.4163217,1,120,1,3.2.2021,119.9872334
22,"['low', 16, 2, True]",TRUE,16,white,45,left,up,low,white_low_45_up,black_low_135_up,2,right,0.1056311,0,120,1,3.2.2021,119.9872334
23,"['low', 64, 2, True]",TRUE,64,black,135,left,down,low,black_low_135_down,white_low_45_down,2,left,0.2163916,1,120,1,3.2.2021,119.9872334
24,"['low', 1, 2, False]",FALSE,1,white,45,left,up,low,white_low_45_up,black_low_135_up,2,right,0.3104236,0,120,1,3.2.2021,119.9872334
25,"['high', 16, 2, True]",TRUE,16,white,45,left,up,high,white_high_45_up,black_high_135_up,2,right,0.2709056,0,120,1,3.2.2021,119.9872334
26,"['high', 1, 2, True]",TRUE,1,black,135,left,down,high,black_high_135_down,white_high_45_down,2,right,0.2131816,0,120,1,3.2.2021,119.9872334
27,"['high', 1, 2, False]",FALSE,1,black,45,right,down,high,black_high_45_down,white_high_135_down,2,right,0.2472527,1,120,1,3.2.2021,119.9872334
28,"['low', 1, 2, False]",FALSE,1,black,135,left,up,low,black_low_135_up,white_low_45_up,2,right,0.3978147,0,120,1,3.2.2021,119.9872334
29,"['low', 1, 2, True]",TRUE,1,white,135,right,down,low,white_low_135_down,black_low_45_down,2,right,0.4702108,1,120,1,3.2.2021,119.9872334
30,"['low', 3, 2, True]",TRUE,3,white,135,right,down,low,white_low_135_down,black_low_45_down,2,right,0.7171586,1,120,1,3.2.2021,119.9872334
31,"['low', 4, 2, True]",TRUE,4,black,135,left,down,low,black_low_135_down,white_low_45_down,2,right,0.2888354,0,120,1,3.2.2021,119.9872334
32,"['high', 4, 2, True]",TRUE,4,black,45,right,up,high,black_high_45_up,white_high_135_up,2,right,0.2911189,1,120,1,3.2.2021,119.9872334
33,"['low', 3, 2, True]",TRUE,3,white,135,right,up,low,white_low_135_up,black_low_45_up,2,right,0.6933529,1,120,1,3.2.2021,119.9872334
34,"['low', 4, 2, True]",TRUE,4,black,135,left,down,low,black_low_135_down,white_low_45_down,2,right,0.1716496,0,120,1,3.2.2021,119.9872334
35,"['low', 16, 2, True]",TRUE,16,white,45,left,down,low,white_low_45_down,black_low_135_down,2,right,2.2424058,0,120,1,3.2.2021,119.9872334
36,"['high', 32, 2, True]",TRUE,32,black,135,left,up,high,black_high_135_up,white_high_45_up,2,left,0.264053,1,120,1,3.2.2021,119.9872334
37,"['low', 16, 2, True]",TRUE,16,black,135,left,down,low,black_low_135_down,white_low_45_down,2,left,0.1244366,1,120,1,3.2.2021,119.9872334
38,"['high', 8, 2, True]",TRUE,8,black,135,left,down,high,black_high_135_down,white_high_45_down,2,left,0.1116943,1,120,1,3.2.2021,119.9872334
39,"['high', 8, 2, True]",TRUE,8,black,135,left,down,high,black_high_135_down,white_high_45_down,2,left,0.165361,1,120,1,3.2.2021,119.9872334
40,"['high', 8, 2, True]",TRUE,8,black,45,right,down,high,black_high_45_down,white_high_135_down,2,right,0.0998635,1,120,1,3.2.2021,119.9872334
41,"['low', 1, 2, False]",FALSE,1,white,45,left,down,low,white_low_45_down,black_low_135_down,2,right,0.1388375,0,120,1,3.2.2021,119.9872334
42,"['high', 3, 2, True]",TRUE,3,black,45,right,down,high,black_high_45_down,white_high_135_down,2,right,0.4266665,1,120,1,3.2.2021,119.9872334
43,"['high', 1, 2, False]",FALSE,1,black,45,right,down,high,black_high_45_down,white_high_135_down,2,right,0.2697466,1,120,1,3.2.2021,119.9872334
44,"['low', 3, 2, True]",TRUE,3,black,135,left,down,low,black_low_135_down,white_low_45_down,2,left,0.129914,1,120,1,3.2.2021,119.9872334
45,"['high', 1, 2, True]",TRUE,1,white,135,right,up,high,white_high_135_up,black_high_45_up,2,right,0.2722455,1,120,1,3.2.2021,119.9872334
46,"['high', 16, 2, True]",TRUE,16,white,45,left,down,high,white_high_45_down,black_high_135_down,2,left,0.3329003,1,120,1,3.2.2021,119.9872334
47,"['high', 64, 2, True]",TRUE,64,black,135,left,up,high,black_high_135_up,white_high_45_up,2,left,0.9455835,1,120,1,3.2.2021,119.9872334
48,"['high', 3, 2, True]",TRUE,3,white,135,right,up,high,white_high_135_up,black_high_45_up,2,right,0.2824513,1,120,1,3.2.2021,119.9872334
49,"['low', 4, 2, True]",TRUE,4,white,45,left,up,low,white_low_45_up,black_low_135_up,2,left,0.3191902,1,120,1,3.2.2021,119.9872334
50,"['high', 32, 2, True]",TRUE,32,white,45,left,up,high,white_high_45_up,black_high_135_up,2,left,0.4486958,1,120,1,3.2.2021,119.9872334
51,"['high', 4, 2, True]",TRUE,4,black,45,right,down,high,black_high_45_down,white_high_135_down,2,right,0.3001518,1,120,1,3.2.2021,119.9872334
52,"['low', 64, 2, True]",TRUE,64,black,135,left,up,low,black_low_135_up,white_low_45_up,2,left,0.4113849,1,120,1,3.2.2021,119.9872334
53,"['high', 16, 2, True]",TRUE,16,white,135,right,up,high,white_high_135_up,black_high_45_up,2,right,0.0516289,1,120,1,3.2.2021,119.9872334
54,"['high', 4, 2, True]",TRUE,4,black,135,left,down,high,black_high_135_down,white_high_45_down,2,right,2.7649272,0,120,1,3.2.2021,119.9872334
55,"['low', 3, 2, True]",TRUE,3,black,135,left,down,low,black_low_135_down,white_low_45_down,2,right,0.4852802,0,120,1,3.2.2021,119.9872334
56,"['high', 1, 2, False]",FALSE,1,white,135,right,up,high,white_high_135_up,black_high_45_up,2,right,0.1002148,1,120,1,3.2.2021,119.9872334
57,"['low', 4, 2, True]",TRUE,4,white,135,right,up,low,white_low_135_up,black_low_45_up,2,left,0.1519372,0,120,1,3.2.2021,119.9872334
58,"['high', 16, 2, True]",TRUE,16,black,135,left,up,high,black_high_135_up,white_high_45_up,2,right,0.3765627,0,120,1,3.2.2021,119.9872334
59,"['high', 64, 2, True]",TRUE,64,white,45,left,down,high,white_high_45_down,black_high_135_down,2,left,0.0211709,1,120,1,3.2.2021,119.9872334
60,"['low', 8, 2, True]",TRUE,8,black,135,left,down,low,black_low_135_down,white_low_45_down,2,left,0.0526295,1,120,1,3.2.2021,119.9872334
61,"['low', 1, 2, False]",FALSE,1,white,135,right,up,low,white_low_135_up,black_low_45_up,2,left,0.3283574,0,120,1,3.2.2021,119.9872334
62,"['low', 16, 2, True]",TRUE,16,black,45,right,up,low,black_low_45_up,white_low_135_up,2,right,0.2104642,1,120,1,3.2.2021,119.9872334
63,"['low', 1, 2, True]",TRUE,1,white,135,right,up,low,white_low_135_up,black_low_45_up,2,right,0.3500212,1,120,1,3.2.2021,119.9872334
64,"['low', 32, 2, True]",TRUE,32,white,45,left,up,low,white_low_45_up,black_low_135_up,2,left,0.5918286,1,120,1,3.2.2021,119.9872334
65,"['low', 1, 2, False]",FALSE,1,black,45,right,up,low,black_low_45_up,white_low_135_up,2,left,0.6621718,0,120,1,3.2.2021,119.9872334
66,"['high', 16, 2, True]",TRUE,16,black,45,right,up,high,black_high_45_up,white_high_135_up,2,right,0.3098067,1,120,1,3.2.2021,119.9872334
67,"['high', 16, 2, True]",TRUE,16,white,45,left,up,high,white_high_45_up,black_high_135_up,2,right,1.3877243,0,120,1,3.2.2021,119.9872334
68,"['high', 2, 2, True]",TRUE,2,white,45,left,down,high,white_high_45_down,black_high_135_down,2,right,0.4123775,0,120,1,3.2.2021,119.9872334
69,"['high', 1, 2, False]",FALSE,1,black,45,right,up,high,black_high_45_up,white_high_135_up,2,right,0.3395993,1,120,1,3.2.2021,119.9872334
70,"['low', 1, 2, True]",TRUE,1,black,45,right,down,low,black_low_45_down,white_low_135_down,2,right,0.1864451,1,120,1,3.2.2021,119.9872334
71,"['high', 4, 2, True]",TRUE,4,black,135,left,up,high,black_high_135_up,white_high_45_up,2,right,0.1363871,0,120,1,3.2.2021,119.9872334
72,"['high', 1, 2, False]",FALSE,1,black,45,right,up,high,black_high_45_up,white_high_135_up,2,left,0.4227041,0,120,1,3.2.2021,119.9872334
73,"['high', 32, 2, True]",TRUE,32,white,45,left,down,high,white_high_45_down,black_high_135_down,2,left,0.1635134,1,120,1,3.2.2021,119.9872334
74,"['high', 3, 2, True]",TRUE,3,white,45,left,down,high,white_high_45_down,black_high_135_down,2,right,0.3019245,0,120,1,3.2.2021,119.9872334
75,"['low', 3, 2, True]",TRUE,3,black,135,left,down,low,black_low_135_down,white_low_45_down,2,right,0.4272565,0,120,1,3.2.2021,119.9872334
76,"['high', 3, 60, False]",FALSE,3,black,135,left,up,high,black_high_135_up,white_high_45_up,60,left,0.189348,1,120,1,3.2.2021,119.9872334
77,"['low', 3, 2, True]",TRUE,3,black,45,right,up,low,black_low_45_up,white_low_135_up,2,right,0.0667432,1,120,1,3.2.2021,119.9872334
78,"['high', 32, 2, True]",TRUE,32,black,45,right,down,high,black_high_45_down,white_high_135_down,2,right,0.6761035,1,120,1,3.2.2021,119.9872334
79,"['high', 32, 2, True]",TRUE,32,black,135,left,down,high,black_high_135_down,white_high_45_down,2,left,0.4453275,1,120,1,3.2.2021,119.9872334
80,"['high', 64, 2, True]",TRUE,64,white,45,left,down,high,white_high_45_down,black_high_135_down,2,left,0.0116788,1,120,1,3.2.2021,119.9872334
81,"['low', 64, 2, True]",TRUE,64,white,135,right,up,low,white_low_135_up,black_low_45_up,2,right,0.2222146,1,120,1,3.2.2021,119.9872334
82,"['low', 1, 2, False]",FALSE,1,white,135,right,up,low,white_low_135_up,black_low_45_up,2,right,0.0858889,1,120,1,3.2.2021,119.9872334
83,"['high', 3, 60, False]",FALSE,3,white,45,left,up,high,white_high_45_up,black_high_135_up,60,left,0.0617178,1,120,1,3.2.2021,119.9872334
84,"['low', 1, 2, True]",TRUE,1,white,45,left,down,low,white_low_45_down,black_low_135_down,2,right,0.2647237,0,120,1,3.2.2021,119.9872334
85,"['low', 16, 2, True]",TRUE,16,black,45,right,up,low,black_low_45_up,white_low_135_up,2,right,0.5450343,1,120,1,3.2.2021,119.9872334
86,"['low', 2, 2, True]",TRUE,2,white,45,left,down,low,white_low_45_down,black_low_135_down,2,right,0.2163036,0,120,1,3.2.2021,119.9872334
87,"['high', 3, 2, True]",TRUE,3,black,135,left,up,high,black_high_135_up,white_high_45_up,2,right,0.2484008,0,120,1,3.2.2021,119.9872334
88,"['high', 64, 2, True]",TRUE,64,white,135,right,down,high,white_high_135_down,black_high_45_down,2,right,0.2401864,1,120,1,3.2.2021,119.9872334
89,"['low', 1, 2, False]",FALSE,1,black,135,left,up,low,black_low_135_up,white_low_45_up,2,right,0.5908571,0,120,1,3.2.2021,119.9872334
90,"['low', 16, 2, True]",TRUE,16,white,135,right,down,low,white_low_135_down,black_low_45_down,2,right,0.3881652,1,120,1,3.2.2021,119.9872334
91,"['low', 64, 2, True]",TRUE,64,black,135,left,down,low,black_low_135_down,white_low_45_down,2,left,0.9152309,1,120,1,3.2.2021,119.9872334
92,"['low', 4, 2, True]",TRUE,4,white,45,left,down,low,white_low_45_down,black_low_135_down,2,left,0.3616129,1,120,1,3.2.2021,119.9872334
93,"['high', 32, 2, True]",TRUE,32,white,45,left,down,high,white_high_45_down,black_high_135_down,2,left,0.2141315,1,120,1,3.2.2021,119.9872334
94,"['high', 64, 2, True]",TRUE,64,white,135,right,down,high,white_high_135_down,black_high_45_down,2,left,1.423129,0,120,1,3.2.2021,119.9872334
95,"['low', 4, 2, True]",TRUE,4,white,135,right,down,low,white_low_135_down,black_low_45_down,2,right,0.0135807,1,120,1,3.2.2021,119.9872334
96,"['high', 3, 2, True]",TRUE,3,black,45,right,up,high,black_high_45_up,white_high_135_up,2,left,1.4883851,0,120,1,3.2.2021,119.9872334
97,"['high', 16, 2, True]",TRUE,16,white,135,right,down,high,white_high_135_down,black_high_45_down,2,right,0.0834696,1,120,1,3.2.2021,119.9872334
98,"['high', 3, 60, False]",FALSE,3,black,45,right,down,high,black_high_45_down,white_high_135_down,60,right,0.123429,1,120,1,3.2.2021,119.9872334
99,"['low', 32, 2, True]",TRUE,32,black,45,right,up,low,black_low_45_up,white_low_135_up,2,right,0.2187329,1,120,1,3.2.2021,119.9872334
100,"['high', 1, 2, False]",FALSE,1,black,135,left,down,high,black_high_135_down,white_high_45_down,2,right,0.2256278,0,120,1,3.2.2021,119.9872334
101,"['high', 8, 2, True]",TRUE,8,white,135,right,up,high,white_high_135_up,black_high_45_up,2,right,0.020222,1,120,1,3.2.2021,119.9872334
102,"['low', 16, 2, True]",TRUE,16,black,135,left,up,low,black_low_135_up,white_low_45_up,2,left,0.3446474,1,120,1,3.2.2021,119.9872334
103,"['low', 64, 2, True]",TRUE,64,white,135,right,down,low,white_low_135_down,black_low_45_down,2,right,0.4168739,1,120,1,3.2.2021,119.9872334
104,"['low', 2, 2, True]",TRUE,2,black,135,left,up,low,black_low_135_up,white_low_45_up,2,right,0.267273,0,120,1,3.2.2021,119.9872334
105,"['low', 2, 2, True]",TRUE,2,black,135,left,down,low,black_low_135_down,white_low_45_down,2,left,0.3723309,1,120,1,3.2.2021,119.9872334
106,"['high', 2, 2, True]",TRUE,2,black,135,left,down,high,black_high_135_down,white_high_45_down,2,right,0.138779,0,120,1,3.2.2021,119.9872334
107,"['high', 8, 2, True]",TRUE,8,white,135,right,down,high,white_high_135_down,black_high_45_down,2,right,0.2373463,1,120,1,3.2.2021,119.9872334
108,"['high', 1, 2, True]",TRUE,1,black,45,right,up,high,black_high_45_up,white_high_135_up,2,right,0.1837792,1,120,1,3.2.2021,119.9872334
109,"['low', 16, 2, True]",TRUE,16,white,45,left,down,low,white_low_45_down,black_low_135_down,2,left,0.0311602,1,120,1,3.2.2021,119.9872334
110,"['high', 3, 2, True]",TRUE,3,white,45,left,up,high,white_high_45_up,black_high_135_up,2,right,0.1882209,0,120,1,3.2.2021,119.9872334
111,"['low', 2, 2, True]",TRUE,2,white,135,right,up,low,white_low_135_up,black_low_45_up,2,right,0.1001674,1,120,1,3.2.2021,119.9872334
112,"['low', 16, 2, True]",TRUE,16,black,135,left,up,low,black_low_135_up,white_low_45_up,2,left,0.0950201,1,120,1,3.2.2021,119.9872334
113,"['high', 3, 2, True]",TRUE,3,black,45,right,up,high,black_high_45_up,white_high_135_up,2,left,0.0763679,0,120,1,3.2.2021,119.9872334
114,"['low', 32, 2, True]",TRUE,32,black,135,left,down,low,black_low_135_down,white_low_45_down,2,left,0.6646381,1,120,1,3.2.2021,119.9872334
115,"['low', 3, 2, True]",TRUE,3,black,135,left,down,low,black_low_135_down,white_low_45_down,2,left,0.1759392,1,120,1,3.2.2021,119.9872334
116,"['low', 1, 2, False]",FALSE,1,black,135,left,up,low,black_low_135_up,white_low_45_up,2,left,0.3490834,1,120,1,3.2.2021,119.9872334
117,"['high', 2, 2, True]",TRUE,2,black,135,left,down,high,black_high_135_down,white_high_45_down,2,right,0.0741711,0,120,1,3.2.2021,119.9872334
118,"['low', 32, 2, True]",TRUE,32,black,135,left,up,low,black_low_135_up,white_low_45_up,2,left,0.3074569,1,120,1,3.2.2021,119.9872334
119,"['high', 1, 2, True]",TRUE,1,black,45,right,up,high,black_high_45_up,white_high_135_up,2,left,0.0486983,0,120,1,3.2.2021,119.9872334
120,"['low', 3, 2, True]",TRUE,3,white,45,left,down,low,white_low_45_down,black_low_135_down,2,left,0.1252942,1,120,1,3.2.2021,119.9872334
121,"['high', 16, 2, True]",TRUE,16,black,45,right,up,high,black_high_45_up,white_high_135_up,2,right,7.01181,1,120,1,3.2.2021,119.9872334
122,"['high', 2, 2, True]",TRUE,2,black,135,left,down,high,black_high_135_down,white_high_45_down,2,right,0.6395272,0,120,1,3.2.2021,119.9872334
123,"['low', 4, 2, True]",TRUE,4,black,45,right,down,low,black_low_45_down,white_low_135_down,2,right,0.1185459,1,120,1,3.2.2021,119.9872334
124,"['low', 1, 2, False]",FALSE,1,white,45,left,up,low,white_low_45_up,black_low_135_up,2,left,0.1156577,1,120,1,3.2.2021,119.9872334
125,"['high', 32, 2, True]",TRUE,32,black,135,left,down,high,black_high_135_down,white_high_45_down,2,left,0.3533609,1,120,1,3.2.2021,119.9872334
126,"['low', 8, 2, True]",TRUE,8,black,45,right,down,low,black_low_45_down,white_low_135_down,2,right,0.0122972,1,120,1,3.2.2021,119.9872334
127,"['high', 16, 2, True]",TRUE,16,white,45,left,down,high,white_high_45_down,black_high_135_down,2,left,0.5124876,1,120,1,3.2.2021,119.9872334
128,"['high', 4, 2, True]",TRUE,4,white,135,right,down,high,white_high_135_down,black_high_45_down,2,left,0.1670757,0,120,1,3.2.2021,119.9872334
129,"['high', 16, 2, True]",TRUE,16,white,45,left,down,high,white_high_45_down,black_high_135_down,2,left,0.1180988,1,120,1,3.2.2021,119.9872334
130,"['low', 64, 2, True]",TRUE,64,white,135,right,up,low,white_low_135_up,black_low_45_up,2,right,0.3359271,1,120,1,3.2.2021,119.9872334
131,"['low', 16, 2, True]",TRUE,16,black,135,left,down,low,black_low_135_down,white_low_45_down,2,left,0.1531442,1,120,1,3.2.2021,119.9872334
132,"['high', 8, 2, True]",TRUE,8,black,135,left,down,high,black_high_135_down,white_high_45_down,2,left,0.0553065,1,120,1,3.2.2021,119.9872334
133,"['low', 2, 2, True]",TRUE,2,white,135,right,down,low,white_low_135_down,black_low_45_down,2,right,0.2626501,1,120,1,3.2.2021,119.9872334
134,"['low', 1, 2, True]",TRUE,1,white,45,left,down,low,white_low_45_down,black_low_135_down,2,left,0.2465523,1,120,1,3.2.2021,119.9872334
135,"['low', 1, 2, True]",TRUE,1,white,45,left,down,low,white_low_45_down,black_low_135_down,2,left,0.3038584,1,120,1,3.2.2021,119.9872334
136,"['high', 3, 60, False]",FALSE,3,white,45,left,down,high,white_high_45_down,black_high_135_down,60,left,0.2860957,1,120,1,3.2.2021,119.9872334
137,"['high', 64, 2, True]",TRUE,64,white,45,left,down,high,white_high_45_down,black_high_135_down,2,left,0.3904795,1,120,1,3.2.2021,119.9872334
138,"['low', 4, 2, True]",TRUE,4,white,135,right,down,low,white_low_135_down,black_low_45_down,2,right,0.1933247,1,120,1,3.2.2021,119.9872334
139,"['low', 4, 2, True]",TRUE,4,black,45,right,down,low,black_low_45_down,white_low_135_down,2,right,0.1731913,1,120,1,3.2.2021,119.9872334
140,"['low', 64, 2, True]",TRUE,64,white,135,right,up,low,white_low_135_up,black_low_45_up,2,right,0.7342863,1,120,1,3.2.2021,119.9872334
141,"['high', 16, 2, True]",TRUE,16,white,135,right,down,high,white_high_135_down,black_high_45_down,2,right,0.0879173,1,120,1,3.2.2021,119.9872334
142,"['high', 32, 2, True]",TRUE,32,white,135,right,up,high,white_high_135_up,black_high_45_up,2,right,0.3776337,1,120,1,3.2.2021,119.9872334
143,"['low', 8, 2, True]",TRUE,8,black,45,right,down,low,black_low_45_down,white_low_135_down,2,right,0.2090523,1,120,1,3.2.2021,119.9872334
144,"['low', 4, 2, True]",TRUE,4,white,45,left,up,low,white_low_45_up,black_low_135_up,2,right,0.1188757,0,120,1,3.2.2021,119.9872334
145,"['high', 32, 2, True]",TRUE,32,white,135,right,down,high,white_high_135_down,black_high_45_down,2,right,0.2605045,1,120,1,3.2.2021,119.9872334
146,"['high', 8, 2, True]",TRUE,8,black,45,right,up,high,black_high_45_up,white_high_135_up,2,right,0.3409186,1,120,1,3.2.2021,119.9872334
147,"['low', 3, 2, True]",TRUE,3,black,135,left,down,low,black_low_135_down,white_low_45_down,2,right,0.2834273,0,120,1,3.2.2021,119.9872334
148,"['low', 8, 2, True]",TRUE,8,white,45,left,up,low,white_low_45_up,black_low_135_up,2,right,0.0784519,0,120,1,3.2.2021,119.9872334
149,"['low', 2, 2, True]",TRUE,2,black,45,right,up,low,black_low_45_up,white_low_135_up,2,right,0.0689885,1,120,1,3.2.2021,119.9872334
150,"['high', 2, 2, True]",TRUE,2,white,135,right,down,high,white_high_135_down,black_high_45_down,2,right,0.1664161,1,120,1,3.2.2021,119.9872334
151,"['high', 3, 2, True]",TRUE,3,white,45,left,up,high,white_high_45_up,black_high_135_up,2,right,0.1806975,0,120,1,3.2.2021,119.9872334
152,"['low', 2, 2, True]",TRUE,2,white,135,right,up,low,white_low_135_up,black_low_45_up,2,right,0.3018598,1,120,1,3.2.2021,119.9872334
153,"['high', 1, 2, False]",FALSE,1,black,45,right,up,high,black_high_45_up,white_high_135_up,2,left,0.2429617,0,120,1,3.2.2021,119.9872334
154,"['low', 1, 2, True]",TRUE,1,black,135,left,down,low,black_low_135_down,white_low_45_down,2,right,0.0166848,0,120,1,3.2.2021,119.9872334
155,"['low', 16, 2, True]",TRUE,16,white,45,left,up,low,white_low_45_up,black_low_135_up,2,right,0.3756907,0,120,1,3.2.2021,119.9872334
156,"['high', 3, 2, True]",TRUE,3,black,45,right,up,high,black_high_45_up,white_high_135_up,2,left,0.1518272,0,120,1,3.2.2021,119.9872334
157,"['low', 4, 2, True]",TRUE,4,white,135,right,up,low,white_low_135_up,black_low_45_up,2,right,1.3506304,1,120,1,3.2.2021,119.9872334
158,"['low', 2, 2, True]",TRUE,2,white,135,right,down,low,white_low_135_down,black_low_45_down,2,right,0.1449912,1,120,1,3.2.2021,119.9872334
159,"['high', 4, 2, True]",TRUE,4,white,45,left,up,high,white_high_45_up,black_high_135_up,2,right,0.2139445,0,120,1,3.2.2021,119.9872334
160,"['low', 1, 2, True]",TRUE,1,white,45,left,up,low,white_low_45_up,black_low_135_up,2,left,0.2496175,1,120,1,3.2.2021,119.9872334
161,"['high', 16, 2, True]",TRUE,16,white,135,right,down,high,white_high_135_down,black_high_45_down,2,right,0.2874852,1,120,1,3.2.2021,119.9872334
162,"['low', 64, 2, True]",TRUE,64,black,45,right,down,low,black_low_45_down,white_low_135_down,2,right,0.2137477,1,120,1,3.2.2021,119.9872334
163,"['low', 1, 2, True]",TRUE,1,white,45,left,up,low,white_low_45_up,black_low_135_up,2,left,0.0371808,1,120,1,3.2.2021,119.9872334
164,"['low', 16, 2, True]",TRUE,16,white,45,left,up,low,white_low_45_up,black_low_135_up,2,right,0.2344495,0,120,1,3.2.2021,119.9872334
165,"['high', 1, 2, False]",FALSE,1,white,135,right,down,high,white_high_135_down,black_high_45_down,2,right,0.154524,1,120,1,3.2.2021,119.9872334
166,"['high', 4, 2, True]",TRUE,4,black,45,right,down,high,black_high_45_down,white_high_135_down,2,right,0.1627789,1,120,1,3.2.2021,119.9872334
167,"['high', 3, 60, False]",FALSE,3,white,45,left,up,high,white_high_45_up,black_high_135_up,60,left,0.0261245,1,120,1,3.2.2021,119.9872334
168,"['low', 3, 2, True]",TRUE,3,black,135,left,down,low,black_low_135_down,white_low_45_down,2,right,1.0468615,0,120,1,3.2.2021,119.9872334
169,"['high', 16, 2, True]",TRUE,16,black,45,right,up,high,black_high_45_up,white_high_135_up,2,left,0.2738223,0,120,1,3.2.2021,119.9872334
170,"['high', 4, 2, True]",TRUE,4,black,135,left,up,high,black_high_135_up,white_high_45_up,2,left,0.2431369,1,120,1,3.2.2021,119.9872334
171,"['low', 1, 2, False]",FALSE,1,white,135,right,up,low,white_low_135_up,black_low_45_up,2,right,0.505399,1,120,1,3.2.2021,119.9872334
172,"['high', 1, 2, True]",TRUE,1,white,45,left,down,high,white_high_45_down,black_high_135_down,2,right,0.2102361,0,120,1,3.2.2021,119.9872334
173,"['high', 32, 2, True]",TRUE,32,black,135,left,up,high,black_high_135_up,white_high_45_up,2,left,0.3313066,1,120,1,3.2.2021,119.9872334
174,"['low', 16, 2, True]",TRUE,16,white,45,left,up,low,white_low_45_up,black_low_135_up,2,right,0.4769281,0,120,1,3.2.2021,119.9872334
175,"['high', 2, 2, True]",TRUE,2,black,45,right,down,high,black_high_45_down,white_high_135_down,2,left,0.1380468,0,120,1,3.2.2021,119.9872334
176,"['low', 2, 2, True]",TRUE,2,black,45,right,up,low,black_low_45_up,white_low_135_up,2,left,0.1195214,0,120,1,3.2.2021,119.9872334
177,"['low', 2, 2, True]",TRUE,2,black,45,right,up,low,black_low_45_up,white_low_135_up,2,right,0.4633763,1,120,1,3.2.2021,119.9872334
178,"['low', 3, 2, True]",TRUE,3,white,135,right,up,low,white_low_135_up,black_low_45_up,2,right,0.6434961,1,120,1,3.2.2021,119.9872334
179,"['low', 3, 2, True]",TRUE,3,white,135,right,up,low,white_low_135_up,black_low_45_up,2,right,0.8591147,1,120,1,3.2.2021,119.9872334
180,"['high', 16, 2, True]",TRUE,16,black,45,right,down,high,black_high_45_down,white_high_135_down,2,right,0.4240216,1,120,1,3.2.2021,119.9872334
181,"['low', 4, 2, True]",TRUE,4,white,135,right,up,low,white_low_135_up,black_low_45_up,2,right,0.1295027,1,120,1,3.2.2021,119.9872334
182,"['low', 8, 2, True]",TRUE,8,black,135,left,up,low,black_low_135_up,white_low_45_up,2,right,1.2734592,0,120,1,3.2.2021,119.9872334
183,"['low', 2, 2, True]",TRUE,2,white,45,left,up,low,white_low_45_up,black_low_135_up,2,right,0.0207439,0,120,1,3.2.2021,119.9872334
184,"['high', 3, 2, True]",TRUE,3,white,135,right,up,high,white_high_135_up,black_high_45_up,2,left,0.1552807,0,120,1,3.2.2021,119.9872334
185,"['high', 16, 2, True]",TRUE,16,white,45,left,down,high,white_high_45_down,black_high_135_down,2,right,0.4994944,0,120,1,3.2.2021,119.9872334
186,"['low', 8, 2, True]",TRUE,8,white,45,left,down,low,white_low_45_down,black_low_135_down,2,left,0.0658487,1,120,1,3.2.2021,119.9872334
187,"['high', 8, 2, True]",TRUE,8,black,135,left,up,high,black_high_135_up,white_high_45_up,2,right,0.3296571,0,120,1,3.2.2021,119.9872334
188,"['high', 16, 2, True]",TRUE,16,white,135,right,down,high,white_high_135_down,black_high_45_down,2,right,0.3500378,1,120,1,3.2.2021,119.9872334
189,"['low', 64, 2, True]",TRUE,64,black,135,left,down,low,black_low_135_down,white_low_45_down,2,left,0.1575797,1,120,1,3.2.2021,119.9872334
190,"['low', 64, 2, True]",TRUE,64,white,135,right,down,low,white_low_135_down,black_low_45_down,2,right,0.2822457,1,120,1,3.2.2021,119.9872334
191,"['low', 16, 2, True]",TRUE,16,white,45,left,down,low,white_low_45_down,black_low_135_down,2,left,0.1539564,1,120,1,3.2.2021,119.9872334
192,"['low', 3, 2, True]",TRUE,3,white,135,right,up,low,white_low_135_up,black_low_45_up,2,right,0.1391031,1,120,1,3.2.2021,119.9872334
193,"['high', 3, 2, True]",TRUE,3,white,135,right,down,high,white_high_135_down,black_high_45_down,2,right,0.2242493,1,120,1,3.2.2021,119.9872334
194,"['high', 3, 2, True]",TRUE,3,white,135,right,down,high,white_high_135_down,black_high_45_down,2,right,0.2997099,1,120,1,3.2.2021,119.9872334
195,"['high', 1, 2, False]",FALSE,1,white,45,left,down,high,white_high_45_down,black_high_135_down,2,left,0.2738719,1,120,1,3.2.2021,119.9872334
196,"['high', 2, 2, True]",TRUE,2,white,45,left,up,high,white_high_45_up,black_high_135_up,2,right,0.1980873,0,120,1,3.2.2021,119.9872334
197,"['high', 3, 60, False]",FALSE,3,white,45,left,up,high,white_high_45_up,black_high_135_up,60,left,0.054561,1,120,1,3.2.2021,119.9872334
198,"['high', 1, 2, False]",FALSE,1,black,135,left,down,high,black_high_135_down,white_high_45_down,2,right,0.4557987,0,120,1,3.2.2021,119.9872334
199,"['high', 4, 2, True]",TRUE,4,white,135,right,down,high,white_high_135_down,black_high_45_down,2,right,0.4614084,1,120,1,3.2.2021,119.9872334
200,"['low', 64, 2, True]",TRUE,64,black,45,right,up,low,black_low_45_up,white_low_135_up,2,right,0.3459085,1,120,1,3.2.2021,119.9872334
201,"['low', 4, 2, True]",TRUE,4,black,45,right,down,low,black_low_45_down,white_low_135_down,2,right,0.2293016,1,120,1,3.2.2021,119.9872334
202,"['low', 32, 2, True]",TRUE,32,white,135,right,down,low,white_low_135_down,black_low_45_down,2,right,0.454244,1,120,1,3.2.2021,119.9872334
203,"['high', 64, 2, True]",TRUE,64,white,135,right,up,high,white_high_135_up,black_high_45_up,2,right,0.0263707,1,120,1,3.2.2021,119.9872334
204,"['high', 16, 2, True]",TRUE,16,black,135,left,down,high,black_high_135_down,white_high_45_down,2,left,0.2457574,1,120,1,3.2.2021,119.9872334
205,"['low', 16, 2, True]",TRUE,16,white,45,left,down,low,white_low_45_down,black_low_135_down,2,left,0.1324474,1,120,1,3.2.2021,119.9872334
206,"['high', 1, 2, True]",TRUE,1,white,135,right,down,high,white_high_135_down,black_high_45_down,2,right,0.1291156,1,120,1,3.2.2021,119.9872334
207,"['high', 3, 60, False]",FALSE,3,black,45,right,up,high,black_high_45_up,white_high_135_up,60,right,0.3859993,1,120,1,3.2.2021,119.9872334
208,"['low', 32, 2, True]",TRUE,32,black,45,right,down,low,black_low_45_down,white_low_135_down,2,right,0.03248,1,120,1,3.2.2021,119.9872334
209,"['high', 2, 2, True]",TRUE,2,black,135,left,down,high,black_high_135_down,white_high_45_down,2,right,0.0683524,0,120,1,3.2.2021,119.9872334
210,"['high', 1, 2, False]",FALSE,1,white,135,right,down,high,white_high_135_down,black_high_45_down,2,right,0.1479657,1,120,1,3.2.2021,119.9872334
211,"['low', 64, 2, True]",TRUE,64,white,45,left,down,low,white_low_45_down,black_low_135_down,2,left,0.1811852,1,120,1,3.2.2021,119.9872334
212,"['high', 64, 2, True]",TRUE,64,black,45,right,up,high,black_high_45_up,white_high_135_up,2,right,0.3892976,1,120,1,3.2.2021,119.9872334
213,"['high', 1, 2, True]",TRUE,1,white,135,right,up,high,white_high_135_up,black_high_45_up,2,left,0.0606588,0,120,1,3.2.2021,119.9872334
214,"['low', 3, 2, True]",TRUE,3,black,135,left,down,low,black_low_135_down,white_low_45_down,2,left,0.6520381,1,120,1,3.2.2021,119.9872334
215,"['low', 32, 2, True]",TRUE,32,black,135,left,down,low,black_low_135_down,white_low_45_down,2,left,0.6223392,1,120,1,3.2.2021,119.9872334
216,"['high', 1, 2, False]",FALSE,1,white,135,right,up,high,white_high_135_up,black_high_45_up,2,left,0.1458742,0,120,1,3.2.2021,119.9872334
217,"['high', 1, 2, True]",TRUE,1,black,45,right,down,high,black_high_45_down,white_high_135_down,2,right,0.531167,1,120,1,3.2.2021,119.9872334
218,"['low', 2, 2, True]",TRUE,2,black,135,left,up,low,black_low_135_up,white_low_45_up,2,right,0.2480224,0,120,1,3.2.2021,119.9872334
219,"['high', 1, 2, True]",TRUE,1,black,135,left,up,high,black_high_135_up,white_high_45_up,2,left,0.1663488,1,120,1,3.2.2021,119.9872334
220,"['low', 16, 2, True]",TRUE,16,black,45,right,up,low,black_low_45_up,white_low_135_up,2,left,2.6595424,0,120,1,3.2.2021,119.9872334
221,"['low', 64, 2, True]",TRUE,64,white,135,right,down,low,white_low_135_down,black_low_45_down,2,right,0.2455567,1,120,1,3.2.2021,119.9872334
222,"['low', 16, 2, True]",TRUE,16,white,135,right,up,low,white_low_135_up,black_low_45_up,2,right,1.1924599,1,120,1,3.2.2021,119.9872334
223,"['high', 2, 2, True]",TRUE,2,black,135,left,up,high,black_high_135_up,white_high_45_up,2,left,0.0943365,1,120,1,3.2.2021,119.9872334
224,"['high', 64, 2, True]",TRUE,64,white,45,left,down,high,white_high_45_down,black_high_135_down,2,left,0.3717961,1,120,1,3.2.2021,119.9872334
225,"['high', 2, 2, True]",TRUE,2,black,135,left,up,high,black_high_135_up,white_high_45_up,2,right,0.2738544,0,120,1,3.2.2021,119.9872334
226,"['low', 64, 2, True]",TRUE,64,black,45,right,down,low,black_low_45_down,white_low_135_down,2,right,0.0683757,1,120,1,3.2.2021,119.9872334
227,"['high', 1, 2, True]",TRUE,1,white,45,left,up,high,white_high_45_up,black_high_135_up,2,left,0.0219045,1,120,1,3.2.2021,119.9872334
228,"['high', 64, 2, True]",TRUE,64,black,45,right,up,high,black_high_45_up,white_high_135_up,2,right,0.4250195,1,120,1,3.2.2021,119.9872334
229,"['high', 1, 2, True]",TRUE,1,white,45,left,down,high,white_high_45_down,black_high_135_down,2,left,0.2787386,1,120,1,3.2.2021,119.9872334
230,"['high', 4, 2, True]",TRUE,4,black,45,right,up,high,black_high_45_up,white_high_135_up,2,left,0.3429599,0,120,1,3.2.2021,119.9872334
231,"['low', 8, 2, True]",TRUE,8,black,135,left,down,low,black_low_135_down,white_low_45_down,2,left,0.011974,1,120,1,3.2.2021,119.9872334
232,"['high', 32, 2, True]",TRUE,32,black,135,left,up,high,black_high_135_up,white_high_45_up,2,left,1.0797101,1,120,1,3.2.2021,119.9872334
233,"['high', 1, 2, False]",FALSE,1,white,135,right,up,high,white_high_135_up,black_high_45_up,2,right,0.2951734,1,120,1,3.2.2021,119.9872334
234,"['high', 4, 2, True]",TRUE,4,white,45,left,down,high,white_high_45_down,black_high_135_down,2,left,0.0379162,1,120,1,3.2.2021,119.9872334
235,"['low', 64, 2, True]",TRUE,64,white,45,left,up,low,white_low_45_up,black_low_135_up,2,left,0.3549182,1,120,1,3.2.2021,119.9872334
236,"['low', 4, 2, True]",TRUE,4,white,135,right,up,low,white_low_135_up,black_low_45_up,2,right,0.2011971,1,120,1,3.2.2021,119.9872334
237,"['low', 4, 2, True]",TRUE,4,black,135,left,down,low,black_low_135_down,white_low_45_down,2,left,0.1534409,1,120,1,3.2.2021,119.9872334
238,"['low', 64, 2, True]",TRUE,64,black,45,right,down,low,black_low_45_down,white_low_135_down,2,right,0.3089967,1,120,1,3.2.2021,119.9872334
239,"['low', 8, 2, True]",TRUE,8,white,135,right,up,low,white_low_135_up,black_low_45_up,2,right,0.0088887,1,120,1,3.2.2021,119.9872334
240,"['low', 3, 2, True]",TRUE,3,black,135,left,up,low,black_low_135_up,white_low_45_up,2,right,0.1105596,0,120,1,3.2.2021,119.9872334
241,"['high', 64, 2, True]",TRUE,64,white,45,left,down,high,white_high_45_down,black_high_135_down,2,left,0.1541494,1,120,1,3.2.2021,119.9872334
242,"['high', 1, 2, False]",FALSE,1,black,45,right,up,high,black_high_45_up,white_high_135_up,2,left,0.1937972,0,120,1,3.2.2021,119.9872334
243,"['high', 8, 2, True]",TRUE,8,white,45,left,down,high,white_high_45_down,black_high_135_down,2,left,0.5108575,1,120,1,3.2.2021,119.9872334
244,"['high', 3, 60, False]",FALSE,3,black,45,right,up,high,black_high_45_up,white_high_135_up,60,right,0.1670814,1,120,1,3.2.2021,119.9872334
245,"['low', 8, 2, True]",TRUE,8,white,135,right,up,low,white_low_135_up,black_low_45_up,2,right,0.1833341,1,120,1,3.2.2021,119.9872334
246,"['low', 2, 2, True]",TRUE,2,black,135,left,up,low,black_low_135_up,white_low_45_up,2,right,0.1985848,0,120,1,3.2.2021,119.9872334
247,"['high', 4, 2, True]",TRUE,4,black,45,right,up,high,black_high_45_up,white_high_135_up,2,left,0.2226678,0,120,1,3.2.2021,119.9872334
248,"['high', 1, 2, True]",TRUE,1,black,45,right,down,high,black_high_45_down,white_high_135_down,2,left,0.0841585,0,120,1,3.2.2021,119.9872334
249,"['low', 4, 2, True]",TRUE,4,white,135,right,down,low,white_low_135_down,black_low_45_down,2,right,0.1067355,1,120,1,3.2.2021,119.9872334
250,"['low', 32, 2, True]",TRUE,32,black,135,left,up,low,black_low_135_up,white_low_45_up,2,left,0.0302515,1,120,1,3.2.2021,119.9872334
251,"['high', 1, 2, False]",FALSE,1,white,135,right,down,high,white_high_135_down,black_high_45_down,2,right,0.3144247,1,120,1,3.2.2021,119.9872334
252,"['low', 1, 2, False]",FALSE,1,black,135,left,down,low,black_low_135_down,white_low_45_down,2,left,0.2656782,1,120,1,3.2.2021,119.9872334
253,"['low', 32, 2, True]",TRUE,32,black,135,left,up,low,black_low_135_up,white_low_45_up,2,left,0.2258832,1,120,1,3.2.2021,119.9872334
254,"['low', 16, 2, True]",TRUE,16,white,135,right,up,low,white_low_135_up,black_low_45_up,2,right,0.1942092,1,120,1,3.2.2021,119.9872334
255,"['low', 4, 2, True]",TRUE,4,black,135,left,up,low,black_low_135_up,white_low_45_up,2,right,0.092677,0,120,1,3.2.2021,119.9872334
256,"['high', 3, 2, True]",TRUE,3,white,45,left,down,high,white_high_45_down,black_high_135_down,2,left,0.0945101,1,120,1,3.2.2021,119.9872334
257,"['low', 2, 2, True]",TRUE,2,black,135,left,up,low,black_low_135_up,white_low_45_up,2,right,0.5922532,0,120,1,3.2.2021,119.9872334
258,"['low', 64, 2, True]",TRUE,64,black,135,left,up,low,black_low_135_up,white_low_45_up,2,left,0.2075266,1,120,1,3.2.2021,119.9872334
259,"['high', 8, 2, True]",TRUE,8,white,135,right,up,high,white_high_135_up,black_high_45_up,2,right,0.2916618,1,120,1,3.2.2021,119.9872334
260,"['high', 32, 2, True]",TRUE,32,black,135,left,up,high,black_high_135_up,white_high_45_up,2,left,0.2208449,1,120,1,3.2.2021,119.9872334
261,"['high', 3, 60, False]",FALSE,3,black,135,left,down,high,black_high_135_down,white_high_45_down,60,left,0.1776448,1,120,1,3.2.2021,119.9872334
262,"['high', 2, 2, True]",TRUE,2,black,135,left,up,high,black_high_135_up,white_high_45_up,2,right,0.0931922,0,120,1,3.2.2021,119.9872334
263,"['low', 4, 2, True]",TRUE,4,black,45,right,up,low,black_low_45_up,white_low_135_up,2,right,0.673108,1,120,1,3.2.2021,119.9872334
264,"['high', 8, 2, True]",TRUE,8,white,45,left,up,high,white_high_45_up,black_high_135_up,2,right,1.1049671,0,120,1,3.2.2021,119.9872334
265,"['low', 8, 2, True]",TRUE,8,white,135,right,up,low,white_low_135_up,black_low_45_up,2,right,0.167149,1,120,1,3.2.2021,119.9872334
266,"['low', 1, 2, False]",FALSE,1,white,135,right,down,low,white_low_135_down,black_low_45_down,2,right,0.4396573,1,120,1,3.2.2021,119.9872334
267,"['high', 32, 2, True]",TRUE,32,white,135,right,down,high,white_high_135_down,black_high_45_down,2,right,0.3986772,1,120,1,3.2.2021,119.9872334
268,"['low', 1, 2, False]",FALSE,1,white,45,left,down,low,white_low_45_down,black_low_135_down,2,right,0.5868537,0,120,1,3.2.2021,119.9872334
269,"['low', 4, 2, True]",TRUE,4,black,45,right,down,low,black_low_45_down,white_low_135_down,2,right,1.5296124,1,120,1,3.2.2021,119.9872334
270,"['low', 16, 2, True]",TRUE,16,black,135,left,down,low,black_low_135_down,white_low_45_down,2,left,0.1328564,1,120,1,3.2.2021,119.9872334
271,"['high', 3, 60, False]",FALSE,3,white,135,right,down,high,white_high_135_down,black_high_45_down,60,right,0.1478616,1,120,1,3.2.2021,119.9872334
272,"['low', 4, 2, True]",TRUE,4,white,135,right,down,low,white_low_135_down,black_low_45_down,2,right,0.4363368,1,120,1,3.2.2021,119.9872334
273,"['high', 3, 2, True]",TRUE,3,white,45,left,down,high,white_high_45_down,black_high_135_down,2,right,0.1948425,0,120,1,3.2.2021,119.9872334
274,"['high', 2, 2, True]",TRUE,2,black,135,left,down,high,black_high_135_down,white_high_45_down,2,right,0.2343252,0,120,1,3.2.2021,119.9872334
275,"['high', 16, 2, True]",TRUE,16,black,45,right,up,high,black_high_45_up,white_high_135_up,2,left,0.2982281,0,120,1,3.2.2021,119.9872334
276,"['high', 1, 2, False]",FALSE,1,black,135,left,up,high,black_high_135_up,white_high_45_up,2,right,0.3996164,0,120,1,3.2.2021,119.9872334
277,"['high', 8, 2, True]",TRUE,8,black,135,left,down,high,black_high_135_down,white_high_45_down,2,right,0.1945918,0,120,1,3.2.2021,119.9872334
278,"['low', 32, 2, True]",TRUE,32,white,135,right,down,low,white_low_135_down,black_low_45_down,2,right,0.0608823,1,120,1,3.2.2021,119.9872334
279,"['high', 64, 2, True]",TRUE,64,white,45,left,up,high,white_high_45_up,black_high_135_up,2,left,0.1142058,1,120,1,3.2.2021,119.9872334
280,"['low', 8, 2, True]",TRUE,8,black,135,left,down,low,black_low_135_down,white_low_45_down,2,left,0.0469955,1,120,1,3.2.2021,119.9872334
281,"['low', 2, 2, True]",TRUE,2,black,135,left,down,low,black_low_135_down,white_low_45_down,2,right,0.4677977,0,120,1,3.2.2021,119.9872334
282,"['low', 4, 2, True]",TRUE,4,white,135,right,up,low,white_low_135_up,black_low_45_up,2,left,0.4840421,0,120,1,3.2.2021,119.9872334
283,"['low', 8, 2, True]",TRUE,8,white,135,right,up,low,white_low_135_up,black_low_45_up,2,right,0.1340858,1,120,1,3.2.2021,119.9872334
284,"['high', 64, 2, True]",TRUE,64,black,45,right,up,high,black_high_45_up,white_high_135_up,2,right,0.3715389,1,120,1,3.2.2021,119.9872334
285,"['high', 3, 2, True]",TRUE,3,black,45,right,down,high,black_high_45_down,white_high_135_down,2,right,0.0323602,1,120,1,3.2.2021,119.9872334
286,"['high', 64, 2, True]",TRUE,64,white,45,left,up,high,white_high_45_up,black_high_135_up,2,left,0.2974545,1,120,1,3.2.2021,119.9872334
287,"['low', 16, 2, True]",TRUE,16,black,135,left,down,low,black_low_135_down,white_low_45_down,2,left,0.23565,1,120,1,3.2.2021,119.9872334
288,"['low', 3, 2, True]",TRUE,3,black,45,right,up,low,black_low_45_up,white_low_135_up,2,right,0.1424256,1,120,1,3.2.2021,119.9872334
289,"['low', 32, 2, True]",TRUE,32,black,135,left,down,low,black_low_135_down,white_low_45_down,2,left,0.0679463,1,120,1,3.2.2021,119.9872334
290,"['low', 32, 2, True]",TRUE,32,black,135,left,down,low,black_low_135_down,white_low_45_down,2,left,0.1841688,1,120,1,3.2.2021,119.9872334
291,"['high', 32, 2, True]",TRUE,32,black,135,left,down,high,black_high_135_down,white_high_45_down,2,left,0.3051039,1,120,1,3.2.2021,119.9872334
292,"['high', 8, 2, True]",TRUE,8,black,45,right,up,high,black_high_45_up,white_high_135_up,2,right,2.0302074,1,120,1,3.2.2021,119.9872334
293,"['high', 8, 2, True]",TRUE,8,black,135,left,down,high,black_high_135_down,white_high_45_down,2,left,0.2161405,1,120,1,3.2.2021,119.9872334
294,"['high', 64, 2, True]",TRUE,64,white,45,left,down,high,white_high_45_down,black_high_135_down,2,left,0.3507623,1,120,1,3.2.2021,119.9872334
295,"['high', 8, 2, True]",TRUE,8,black,45,right,down,high,black_high_45_down,white_high_135_down,2,left,0.0633499,0,120,1,3.2.2021,119.9872334
296,"['low', 2, 2, True]",TRUE,2,white,45,left,up,low,white_low_45_up,black_low_135_up,2,left,0.0902503,1,120,1,3.2.2021,119.9872334
297,"['high', 4, 2, True]",TRUE,4,white,45,left,down,high,white_high_45_down,black_high_135_down,2,left,0.1292543,1,120,1,3.2.2021,119.9872334
298,"['low', 1, 2, False]",FALSE,1,black,135,left,down,low,black_low_135_down,white_low_45_down,2,left,0.2401664,1,120,1,3.2.2021,119.9872334
299,"['high', 1, 2, False]",FALSE,1,white,135,right,down,high,white_high_135_down,black_high_45_down,2,left,0.3335731,0,120,1,3.2.2021,119.9872334
300,"['high', 3, 2, True]",TRUE,3,black,135,left,down,high,black_high_135_down,white_high_45_down,2,left,0.2258211,1,120,1,3.2.2021,119.9872334
301,"['high', 32, 2, True]",TRUE,32,white,45,left,down,high,white_high_45_down,black_high_135_down,2,left,0.1120011,1,120,1,3.2.2021,119.9872334
302,"['low', 64, 2, True]",TRUE,64,white,135,right,up,low,white_low_135_up,black_low_45_up,2,right,0.0693176,1,120,1,3.2.2021,119.9872334
303,"['high', 64, 2, True]",TRUE,64,white,135,right,up,high,white_high_135_up,black_high_45_up,2,right,0.1247303,1,120,1,3.2.2021,119.9872334
304,"['high', 64, 2, True]",TRUE,64,white,135,right,down,high,white_high_135_down,black_high_45_down,2,right,0.1820574,1,120,1,3.2.2021,119.9872334
305,"['high', 1, 2, True]",TRUE,1,white,45,left,up,high,white_high_45_up,black_high_135_up,2,right,0.0856536,0,120,1,3.2.2021,119.9872334
306,"['low', 32, 2, True]",TRUE,32,black,135,left,down,low,black_low_135_down,white_low_45_down,2,left,0.1645462,1,120,1,3.2.2021,119.9872334
307,"['low', 8, 2, True]",TRUE,8,white,135,right,down,low,white_low_135_down,black_low_45_down,2,right,0.3585206,1,120,1,3.2.2021,119.9872334
308,"['high', 8, 2, True]",TRUE,8,black,135,left,down,high,black_high_135_down,white_high_45_down,2,left,0.5122284,1,120,1,3.2.2021,119.9872334
309,"['high', 32, 2, True]",TRUE,32,white,135,right,up,high,white_high_135_up,black_high_45_up,2,right,0.2966909,1,120,1,3.2.2021,119.9872334
310,"['high', 64, 2, True]",TRUE,64,white,45,left,up,high,white_high_45_up,black_high_135_up,2,left,0.4305565,1,120,1,3.2.2021,119.9872334
311,"['high', 3, 60, False]",FALSE,3,black,135,left,up,high,black_high_135_up,white_high_45_up,60,left,0.1753488,1,120,1,3.2.2021,119.9872334
312,"['high', 1, 2, False]",FALSE,1,white,45,left,down,high,white_high_45_down,black_high_135_down,2,right,0.4855727,0,120,1,3.2.2021,119.9872334
313,"['high', 32, 2, True]",TRUE,32,white,45,left,up,high,white_high_45_up,black_high_135_up,2,left,0.2590868,1,120,1,3.2.2021,119.9872334
314,"['high', 2, 2, True]",TRUE,2,black,45,right,up,high,black_high_45_up,white_high_135_up,2,left,0.1633226,0,120,1,3.2.2021,119.9872334
315,"['low', 1, 2, True]",TRUE,1,white,135,right,down,low,white_low_135_down,black_low_45_down,2,right,0.5195098,1,120,1,3.2.2021,119.9872334
316,"['high', 2, 2, True]",TRUE,2,white,135,right,down,high,white_high_135_down,black_high_45_down,2,right,0.3608193,1,120,1,3.2.2021,119.9872334
317,"['high', 64, 2, True]",TRUE,64,black,45,right,up,high,black_high_45_up,white_high_135_up,2,right,0.3388814,1,120,1,3.2.2021,119.9872334
318,"['high', 8, 2, True]",TRUE,8,black,45,right,up,high,black_high_45_up,white_high_135_up,2,left,0.1338806,0,120,1,3.2.2021,119.9872334
319,"['low', 2, 2, True]",TRUE,2,black,45,right,down,low,black_low_45_down,white_low_135_down,2,right,0.0957289,1,120,1,3.2.2021,119.9872334
320,"['high', 4, 2, True]",TRUE,4,black,45,right,down,high,black_high_45_down,white_high_135_down,2,right,0.2471423,1,120,1,3.2.2021,119.9872334
321,"['low', 1, 2, False]",FALSE,1,black,135,left,down,low,black_low_135_down,white_low_45_down,2,left,1.0655718,1,120,1,3.2.2021,119.9872334
322,"['high', 64, 2, True]",TRUE,64,white,135,right,down,high,white_high_135_down,black_high_45_down,2,right,0.4976331,1,120,1,3.2.2021,119.9872334
323,"['high', 16, 2, True]",TRUE,16,black,45,right,up,high,black_high_45_up,white_high_135_up,2,right,0.2202106,1,120,1,3.2.2021,119.9872334
324,"['low', 8, 2, True]",TRUE,8,black,135,left,up,low,black_low_135_up,white_low_45_up,2,right,0.3339554,0,120,1,3.2.2021,119.9872334
325,"['low', 64, 2, True]",TRUE,64,black,135,left,down,low,black_low_135_down,white_low_45_down,2,left,0.6262772,1,120,1,3.2.2021,119.9872334
326,"['low', 32, 2, True]",TRUE,32,black,135,left,down,low,black_low_135_down,white_low_45_down,2,left,0.1786541,1,120,1,3.2.2021,119.9872334
327,"['low', 1, 2, True]",TRUE,1,black,45,right,down,low,black_low_45_down,white_low_135_down,2,left,0.299159,0,120,1,3.2.2021,119.9872334
328,"['low', 1, 2, False]",FALSE,1,white,45,left,up,low,white_low_45_up,black_low_135_up,2,left,0.5223915,1,120,1,3.2.2021,119.9872334
329,"['low', 2, 2, True]",TRUE,2,white,45,left,up,low,white_low_45_up,black_low_135_up,2,left,0.0193617,1,120,1,3.2.2021,119.9872334
330,"['high', 3, 2, True]",TRUE,3,black,45,right,down,high,black_high_45_down,white_high_135_down,2,left,0.5672449,0,120,1,3.2.2021,119.9872334
331,"['low', 64, 2, True]",TRUE,64,black,45,right,down,low,black_low_45_down,white_low_135_down,2,right,0.0243372,1,120,1,3.2.2021,119.9872334
332,"['high', 1, 2, False]",FALSE,1,black,45,right,up,high,black_high_45_up,white_high_135_up,2,right,0.4699894,1,120,1,3.2.2021,119.9872334
333,"['low', 1, 2, True]",TRUE,1,white,45,left,down,low,white_low_45_down,black_low_135_down,2,right,0.2035419,0,120,1,3.2.2021,119.9872334
334,"['low', 64, 2, True]",TRUE,64,black,135,left,up,low,black_low_135_up,white_low_45_up,2,left,1.1184925,1,120,1,3.2.2021,119.9872334
335,"['high', 1, 2, True]",TRUE,1,black,45,right,up,high,black_high_45_up,white_high_135_up,2,left,0.2738028,0,120,1,3.2.2021,119.9872334
336,"['high', 1, 2, True]",TRUE,1,black,135,left,down,high,black_high_135_down,white_high_45_down,2,right,0.0593891,0,120,1,3.2.2021,119.9872334
337,"['high', 8, 2, True]",TRUE,8,black,135,left,up,high,black_high_135_up,white_high_45_up,2,right,0.1513796,0,120,1,3.2.2021,119.9872334
338,"['high', 32, 2, True]",TRUE,32,black,135,left,up,high,black_high_135_up,white_high_45_up,2,left,0.0333021,1,120,1,3.2.2021,119.9872334
339,"['high', 3, 60, False]",FALSE,3,white,45,left,down,high,white_high_45_down,black_high_135_down,60,left,0.1848608,1,120,1,3.2.2021,119.9872334
340,"['high', 2, 2, True]",TRUE,2,black,45,right,up,high,black_high_45_up,white_high_135_up,2,right,0.3903257,1,120,1,3.2.2021,119.9872334
341,"['high', 8, 2, True]",TRUE,8,white,135,right,up,high,white_high_135_up,black_high_45_up,2,left,0.0754361,0,120,1,3.2.2021,119.9872334
342,"['high', 1, 2, False]",FALSE,1,white,45,left,up,high,white_high_45_up,black_high_135_up,2,left,0.1906329,1,120,1,3.2.2021,119.9872334
343,"['low', 32, 2, True]",TRUE,32,white,135,right,up,low,white_low_135_up,black_low_45_up,2,right,0.4156395,1,120,1,3.2.2021,119.9872334
344,"['high', 3, 2, True]",TRUE,3,white,135,right,up,high,white_high_135_up,black_high_45_up,2,right,0.2409741,1,120,1,3.2.2021,119.9872334
345,"['high', 1, 2, True]",TRUE,1,black,45,right,down,high,black_high_45_down,white_high_135_down,2,right,2.1423183,1,120,1,3.2.2021,119.9872334
346,"['high', 1, 2, False]",FALSE,1,white,45,left,down,high,white_high_45_down,black_high_135_down,2,right,0.1985327,0,120,1,3.2.2021,119.9872334
347,"['low', 1, 2, False]",FALSE,1,white,45,left,down,low,white_low_45_down,black_low_135_down,2,left,0.7057872,1,120,1,3.2.2021,119.9872334
348,"['low', 3, 2, True]",TRUE,3,white,45,left,down,low,white_low_45_down,black_low_135_down,2,left,0.2204163,1,120,1,3.2.2021,119.9872334
349,"['low', 1, 2, True]",TRUE,1,black,135,left,up,low,black_low_135_up,white_low_45_up,2,right,0.1505558,0,120,1,3.2.2021,119.9872334
350,"['low', 16, 2, True]",TRUE,16,white,135,right,down,low,white_low_135_down,black_low_45_down,2,right,0.1220003,1,120,1,3.2.2021,119.9872334
351,"['low', 16, 2, True]",TRUE,16,white,45,left,up,low,white_low_45_up,black_low_135_up,2,left,0.1671512,1,120,1,3.2.2021,119.9872334
352,"['high', 1, 2, True]",TRUE,1,white,45,left,down,high,white_high_45_down,black_high_135_down,2,right,0.2033208,0,120,1,3.2.2021,119.9872334
353,"['high', 4, 2, True]",TRUE,4,white,135,right,down,high,white_high_135_down,black_high_45_down,2,right,0.2392406,1,120,1,3.2.2021,119.9872334
354,"['low', 2, 2, True]",TRUE,2,white,135,right,up,low,white_low_135_up,black_low_45_up,2,left,5.0578793,0,120,1,3.2.2021,119.9872334
355,"['low', 8, 2, True]",TRUE,8,black,135,left,up,low,black_low_135_up,white_low_45_up,2,right,0.1938452,0,120,1,3.2.2021,119.9872334
356,"['low', 4, 2, True]",TRUE,4,white,45,left,down,low,white_low_45_down,black_low_135_down,2,left,0.0242987,1,120,1,3.2.2021,119.9872334
357,"['low', 3, 2, True]",TRUE,3,black,45,right,up,low,black_low_45_up,white_low_135_up,2,right,0.3628037,1,120,1,3.2.2021,119.9872334
358,"['high', 16, 2, True]",TRUE,16,white,135,right,down,high,white_high_135_down,black_high_45_down,2,right,0.5026617,1,120,1,3.2.2021,119.9872334
359,"['high', 1, 2, True]",TRUE,1,black,135,left,up,high,black_high_135_up,white_high_45_up,2,right,0.0679361,0,120,1,3.2.2021,119.9872334
360,"['low', 1, 2, True]",TRUE,1,white,135,right,down,low,white_low_135_down,black_low_45_down,2,right,0.3060537,1,120,1,3.2.2021,119.9872334
361,"['low', 4, 2, True]",TRUE,4,white,45,left,down,low,white_low_45_down,black_low_135_down,2,left,0.1609397,1,120,1,3.2.2021,119.9872334
362,"['high', 1, 2, False]",FALSE,1,black,45,right,down,high,black_high_45_down,white_high_135_down,2,right,0.3953859,1,120,1,3.2.2021,119.9872334
363,"['low', 16, 2, True]",TRUE,16,black,135,left,down,low,black_low_135_down,white_low_45_down,2,left,0.1990124,1,120,1,3.2.2021,119.9872334
364,"['high', 3, 2, True]",TRUE,3,white,45,left,up,high,white_high_45_up,black_high_135_up,2,right,0.0895268,0,120,1,3.2.2021,119.9872334
365,"['high', 3, 60, False]",FALSE,3,black,135,left,up,high,black_high_135_up,white_high_45_up,60,left,0.2065691,1,120,1,3.2.2021,119.9872334
366,"['low', 2, 2, True]",TRUE,2,black,135,left,down,low,black_low_135_down,white_low_45_down,2,left,0.0392062,1,120,1,3.2.2021,119.9872334
367,"['low', 3, 2, True]",TRUE,3,black,45,right,up,low,black_low_45_up,white_low_135_up,2,left,0.0150944,0,120,1,3.2.2021,119.9872334
368,"['low', 2, 2, True]",TRUE,2,white,45,left,down,low,white_low_45_down,black_low_135_down,2,right,0.3587727,0,120,1,3.2.2021,119.9872334
369,"['high', 3, 60, False]",FALSE,3,black,135,left,down,high,black_high_135_down,white_high_45_down,60,left,0.455931,1,120,1,3.2.2021,119.9872334
370,"['low', 1, 2, True]",TRUE,1,white,135,right,down,low,white_low_135_down,black_low_45_down,2,right,0.278357,1,120,1,3.2.2021,119.9872334
371,"['low', 32, 2, True]",TRUE,32,white,45,left,up,low,white_low_45_up,black_low_135_up,2,left,0.5571843,1,120,1,3.2.2021,119.9872334
372,"['low', 1, 2, False]",FALSE,1,black,45,right,up,low,black_low_45_up,white_low_135_up,2,left,0.5770617,0,120,1,3.2.2021,119.9872334
373,"['low', 1, 2, True]",TRUE,1,black,135,left,up,low,black_low_135_up,white_low_45_up,2,right,0.490001,0,120,1,3.2.2021,119.9872334
374,"['low', 32, 2, True]",TRUE,32,white,45,left,down,low,white_low_45_down,black_low_135_down,2,left,0.1279273,1,120,1,3.2.2021,119.9872334
375,"['low', 64, 2, True]",TRUE,64,black,135,left,down,low,black_low_135_down,white_low_45_down,2,left,0.0816673,1,120,1,3.2.2021,119.9872334
376,"['low', 1, 2, True]",TRUE,1,black,45,right,down,low,black_low_45_down,white_low_135_down,2,right,0.2692499,1,120,1,3.2.2021,119.9872334
377,"['low', 3, 2, True]",TRUE,3,white,45,left,down,low,white_low_45_down,black_low_135_down,2,left,0.2507261,1,120,1,3.2.2021,119.9872334
378,"['low', 16, 2, True]",TRUE,16,white,45,left,down,low,white_low_45_down,black_low_135_down,2,left,0.219722,1,120,1,3.2.2021,119.9872334
379,"['high', 16, 2, True]",TRUE,16,black,135,left,down,high,black_high_135_down,white_high_45_down,2,left,0.0182633,1,120,1,3.2.2021,119.9872334
380,"['high', 2, 2, True]",TRUE,2,black,135,left,down,high,black_high_135_down,white_high_45_down,2,left,0.1451173,1,120,1,3.2.2021,119.9872334
381,"['high', 16, 2, True]",TRUE,16,white,45,left,up,high,white_high_45_up,black_high_135_up,2,left,0.339767,1,120,1,3.2.2021,119.9872334
382,"['high', 3, 2, True]",TRUE,3,white,135,right,up,high,white_high_135_up,black_high_45_up,2,left,0.6226978,0,120,1,3.2.2021,119.9872334
383,"['low', 4, 2, True]",TRUE,4,black,135,left,down,low,black_low_135_down,white_low_45_down,2,left,6.3824206,1,120,1,3.2.2021,119.9872334
384,"['high', 32, 2, True]",TRUE,32,black,45,right,down,high,black_high_45_down,white_high_135_down,2,right,0.3423539,1,120,1,3.2.2021,119.9872334
385,"['low', 64, 2, True]",TRUE,64,black,135,left,down,low,black_low_135_down,white_low_45_down,2,left,0.3302829,1,120,1,3.2.2021,119.9872334
386,"['low', 3, 2, True]",TRUE,3,black,45,right,down,low,black_low_45_down,white_low_135_down,2,left,0.2865564,0,120,1,3.2.2021,119.9872334
387,"['low', 64, 2, True]",TRUE,64,white,135,right,down,low,white_low_135_down,black_low_45_down,2,right,0.3868702,1,120,1,3.2.2021,119.9872334
388,"['low', 16, 2, True]",TRUE,16,black,45,right,up,low,black_low_45_up,white_low_135_up,2,right,0.3654572,1,120,1,3.2.2021,119.9872334
389,"['high', 1, 2, False]",FALSE,1,white,135,right,down,high,white_high_135_down,black_high_45_down,2,right,0.3422589,1,120,1,3.2.2021,119.9872334
390,"['low', 2, 2, True]",TRUE,2,white,45,left,down,low,white_low_45_down,black_low_135_down,2,right,0.7391207,0,120,1,3.2.2021,119.9872334
391,"['low', 1, 2, True]",TRUE,1,black,45,right,up,low,black_low_45_up,white_low_135_up,2,left,0.2963144,0,120,1,3.2.2021,119.9872334
392,"['low', 32, 2, True]",TRUE,32,white,135,right,down,low,white_low_135_down,black_low_45_down,2,right,0.5294016,1,120,1,3.2.2021,119.9872334
393,"['high', 1, 2, True]",TRUE,1,black,45,right,down,high,black_high_45_down,white_high_135_down,2,right,0.7459614,1,120,1,3.2.2021,119.9872334
394,"['high', 64, 2, True]",TRUE,64,black,135,left,up,high,black_high_135_up,white_high_45_up,2,left,0.0270565,1,120,1,3.2.2021,119.9872334
395,"['low', 16, 2, True]",TRUE,16,white,45,left,down,low,white_low_45_down,black_low_135_down,2,left,0.1729714,1,120,1,3.2.2021,119.9872334
396,"['high', 1, 2, True]",TRUE,1,black,45,right,down,high,black_high_45_down,white_high_135_down,2,left,0.2975578,0,120,1,3.2.2021,119.9872334
397,"['low', 64, 2, True]",TRUE,64,white,135,right,down,low,white_low_135_down,black_low_45_down,2,right,0.4653655,1,120,1,3.2.2021,119.9872334
398,"['low', 1, 2, True]",TRUE,1,white,45,left,up,low,white_low_45_up,black_low_135_up,2,right,0.0321731,0,120,1,3.2.2021,119.9872334
399,"['high', 1, 2, False]",FALSE,1,black,135,left,up,high,black_high_135_up,white_high_45_up,2,right,0.4624676,0,120,1,3.2.2021,119.9872334
400,"['low', 1, 2, False]",FALSE,1,white,45,left,down,low,white_low_45_down,black_low_135_down,2,left,1.7167726,1,120,1,3.2.2021,119.9872334
401,"['low', 64, 2, True]",TRUE,64,white,45,left,down,low,white_low_45_down,black_low_135_down,2,left,0.2729804,1,120,1,3.2.2021,119.9872334
402,"['high', 4, 2, True]",TRUE,4,black,45,right,up,high,black_high_45_up,white_high_135_up,2,left,0.4357051,0,120,1,3.2.2021,119.9872334
403,"['low', 8, 2, True]",TRUE,8,white,45,left,down,low,white_low_45_down,black_low_135_down,2,left,0.0252287,1,120,1,3.2.2021,119.9872334
404,"['high', 8, 2, True]",TRUE,8,white,135,right,down,high,white_high_135_down,black_high_45_down,2,right,0.5228714,1,120,1,3.2.2021,119.9872334
405,"['high', 1, 2, True]",TRUE,1,black,135,left,up,high,black_high_135_up,white_high_45_up,2,left,0.3831304,1,120,1,3.2.2021,119.9872334
406,"['low', 16, 2, True]",TRUE,16,white,45,left,down,low,white_low_45_down,black_low_135_down,2,left,0.1376988,1,120,1,3.2.2021,119.9872334
407,"['low', 8, 2, True]",TRUE,8,white,45,left,up,low,white_low_45_up,black_low_135_up,2,left,0.5956055,1,120,1,3.2.2021,119.9872334
408,"['low', 8, 2, True]",TRUE,8,white,135,right,down,low,white_low_135_down,black_low_45_down,2,right,0.9688654,1,120,1,3.2.2021,119.9872334
409,"['high', 16, 2, True]",TRUE,16,white,135,right,up,high,white_high_135_up,black_high_45_up,2,right,0.3254965,1,120,1,3.2.2021,119.9872334
410,"['high', 32, 2, True]",TRUE,32,white,45,left,down,high,white_high_45_down,black_high_135_down,2,left,0.6883557,1,120,1,3.2.2021,119.9872334
411,"['high', 1, 2, False]",FALSE,1,white,45,left,up,high,white_high_45_up,black_high_135_up,2,right,1.0258964,0,120,1,3.2.2021,119.9872334
412,"['low', 8, 2, True]",TRUE,8,white,45,left,up,low,white_low_45_up,black_low_135_up,2,left,0.1013804,1,120,1,3.2.2021,119.9872334
413,"['high', 1, 2, False]",FALSE,1,black,45,right,down,high,black_high_45_down,white_high_135_down,2,left,0.330232,0,120,1,3.2.2021,119.9872334
414,"['high', 1, 2, True]",TRUE,1,white,45,left,up,high,white_high_45_up,black_high_135_up,2,left,0.3318808,1,120,1,3.2.2021,119.9872334
415,"['low', 8, 2, True]",TRUE,8,black,45,right,down,low,black_low_45_down,white_low_135_down,2,right,0.6205978,1,120,1,3.2.2021,119.9872334
416,"['low', 1, 2, True]",TRUE,1,white,135,right,down,low,white_low_135_down,black_low_45_down,2,left,0.1626832,0,120,1,3.2.2021,119.9872334
417,"['high', 1, 2, True]",TRUE,1,white,135,right,up,high,white_high_135_up,black_high_45_up,2,left,0.1319607,0,120,1,3.2.2021,119.9872334
418,"['low', 16, 2, True]",TRUE,16,white,45,left,down,low,white_low_45_down,black_low_135_down,2,left,0.0677423,1,120,1,3.2.2021,119.9872334
419,"['low', 4, 2, True]",TRUE,4,black,45,right,up,low,black_low_45_up,white_low_135_up,2,left,0.1772775,0,120,1,3.2.2021,119.9872334
420,"['high', 4, 2, True]",TRUE,4,black,45,right,up,high,black_high_45_up,white_high_135_up,2,left,0.111907,0,120,1,3.2.2021,119.9872334
421,"['high', 1, 2, True]",TRUE,1,black,45,right,down,high,black_high_45_down,white_high_135_down,2,left,0.3278916,0,120,1,3.2.2021,119.9872334
422,"['high', 32, 2, True]",TRUE,32,white,45,left,up,high,white_high_45_up,black_high_135_up,2,left,0.3729389,1,120,1,3.2.2021,119.9872334
423,"['low', 2, 2, True]",TRUE,2,black,135,left,down,low,black_low_135_down,white_low_45_down,2,left,0.3550569,1,120,1,3.2.2021,119.9872334
424,"['high', 3, 60, False]",FALSE,3,black,135,left,down,high,black_high_135_down,white_high_45_down,60,left,0.0935299,1,120,1,3.2.2021,119.9872334
425,"['low', 1, 2, True]",TRUE,1,black,45,right,down,low,black_low_45_down,white_low_135_down,2,left,0.0670468,0,120,1,3.2.2021,119.9872334
426,"['high', 3, 2, True]",TRUE,3,black,45,right,down,high,black_high_45_down,white_high_135_down,2,left,1.0932272,0,120,1,3.2.2021,119.9872334
427,"['low', 1, 2, True]",TRUE,1,black,45,right,up,low,black_low_45_up,white_low_135_up,2,left,0.071311,0,120,1,3.2.2021,119.9872334
428,"['high', 2, 2, True]",TRUE,2,white,135,right,up,high,white_high_135_up,black_high_45_up,2,right,0.427405,1,120,1,3.2.2021,119.9872334
429,"['high', 2, 2, True]",TRUE,2,black,45,right,up,high,black_high_45_up,white_high_135_up,2,right,0.0855443,1,120,1,3.2.2021,119.9872334
430,"['low', 64, 2, True]",TRUE,64,black,135,left,down,low,black_low_135_down,white_low_45_down,2,left,0.3700904,1,120,1,3.2.2021,119.9872334
431,"['low', 1, 2, True]",TRUE,1,white,135,right,down,low,white_low_135_down,black_low_45_down,2,right,0.1798669,1,120,1,3.2.2021,119.9872334
432,"['high', 16, 2, True]",TRUE,16,white,45,left,down,high,white_high_45_down,black_high_135_down,2,left,0.3518815,1,120,1,3.2.2021,119.9872334
433,"['low', 3, 2, True]",TRUE,3,black,45,right,down,low,black_low_45_down,white_low_135_down,2,right,0.1079267,1,120,1,3.2.2021,119.9872334
434,"['high', 64, 2, True]",TRUE,64,black,45,right,up,high,black_high_45_up,white_high_135_up,2,right,0.3167293,1,120,1,3.2.2021,119.9872334
435,"['high', 1, 2, True]",TRUE,1,white,135,right,up,high,white_high_135_up,black_high_45_up,2,right,0.067705,1,120,1,3.2.2021,119.9872334
436,"['high', 16, 2, True]",TRUE,16,black,45,right,up,high,black_high_45_up,white_high_135_up,2,right,0.0658617,1,120,1,3.2.2021,119.9872334
437,"['low', 16, 2, True]",TRUE,16,white,45,left,down,low,white_low_45_down,black_low_135_down,2,left,0.8777646,1,120,1,3.2.2021,119.9872334
438,"['high', 32, 2, True]",TRUE,32,black,45,right,up,high,black_high_45_up,white_high_135_up,2,right,0.0164003,1,120,1,3.2.2021,119.9872334
439,"['high', 8, 2, True]",TRUE,8,black,135,left,down,high,black_high_135_down,white_high_45_down,2,left,0.3130879,1,120,1,3.2.2021,119.9872334
440,"['high', 3, 60, False]",FALSE,3,black,45,right,up,high,black_high_45_up,white_high_135_up,60,right,0.2364183,1,120,1,3.2.2021,119.9872334
441,"['high', 64, 2, True]",TRUE,64,white,135,right,down,high,white_high_135_down,black_high_45_down,2,right,0.113898,1,120,1,3.2.2021,119.9872334
442,"['low', 1, 2, True]",TRUE,1,white,45,left,down,low,white_low_45_down,black_low_135_down,2,left,0.3992663,1,120,1,3.2.2021,119.9872334
443,"['low', 16, 2, True]",TRUE,16,black,135,left,down,low,black_low_135_down,white_low_45_down,2,left,0.0750193,1,120,1,3.2.2021,119.9872334
444,"['low', 2, 2, True]",TRUE,2,white,45,left,up,low,white_low_45_up,black_low_135_up,2,left,0.2236066,1,120,1,3.2.2021,119.9872334
445,"['low', 32, 2, True]",TRUE,32,black,45,right,down,low,black_low_45_down,white_low_135_down,2,right,0.0596943,1,120,1,3.2.2021,119.9872334
446,"['low', 1, 2, False]",FALSE,1,white,45,left,down,low,white_low_45_down,black_low_135_down,2,left,0.2366763,1,120,1,3.2.2021,119.9872334
447,"['high', 8, 2, True]",TRUE,8,white,45,left,down,high,white_high_45_down,black_high_135_down,2,left,0.093799,1,120,1,3.2.2021,119.9872334
448,"['high', 2, 2, True]",TRUE,2,white,135,right,up,high,white_high_135_up,black_high_45_up,2,left,0.2592867,0,120,1,3.2.2021,119.9872334
449,"['low', 1, 2, True]",TRUE,1,white,45,left,up,low,white_low_45_up,black_low_135_up,2,right,0.0395946,0,120,1,3.2.2021,119.9872334
450,"['high', 32, 2, True]",TRUE,32,white,135,right,down,high,white_high_135_down,black_high_45_down,2,right,0.5621441,1,120,1,3.2.2021,119.9872334
451,"['high', 4, 2, True]",TRUE,4,white,135,right,up,high,white_high_135_up,black_high_45_up,2,right,0.6070561,1,120,1,3.2.2021,119.9872334
452,"['high', 64, 2, True]",TRUE,64,white,135,right,up,high,white_high_135_up,black_high_45_up,2,right,0.6974953,1,120,1,3.2.2021,119.9872334
453,"['high', 64, 2, True]",TRUE,64,black,135,left,up,high,black_high_135_up,white_high_45_up,2,left,0.1413233,1,120,1,3.2.2021,119.9872334
454,"['high', 1, 2, True]",TRUE,1,black,45,right,up,high,black_high_45_up,white_high_135_up,2,right,0.8607264,1,120,1,3.2.2021,119.9872334
455,"['high', 16, 2, True]",TRUE,16,white,135,right,down,high,white_high_135_down,black_high_45_down,2,right,0.0696142,1,120,1,3.2.2021,119.9872334
456,"['high', 2, 2, True]",TRUE,2,black,135,left,up,high,black_high_135_up,white_high_45_up,2,right,0.2862553,0,120,1,3.2.2021,119.9872334
457,"['low', 1, 2, False]",FALSE,1,white,45,left,up,low,white_low_45_up,black_low_135_up,2,right,0.4635588,0,120,1,3.2.2021,119.9872334
458,"['high', 3, 2, True]",TRUE,3,white,135,right,down,high,white_high_135_down,black_high_45_down,2,right,0.2311762,1,120,1,3.2.2021,119.9872334
459,"['low', 3, 2, True]",TRUE,3,black,45,right,down,low,black_low_45_down,white_low_135_down,2,right,0.2127053,1,120,1,3.2.2021,119.9872334
460,"['low', 2, 2, True]",TRUE,2,white,45,left,up,low,white_low_45_up,black_low_135_up,2,right,0.0975054,0,120,1,3.2.2021,119.9872334
461,"['high', 1, 2, True]",TRUE,1,white,135,right,up,high,white_high_135_up,black_high_45_up,2,right,0.2723093,1,120,1,3.2.2021,119.9872334
462,"['low', 1, 2, False]",FALSE,1,white,45,left,down,low,white_low_45_down,black_low_135_down,2,right,0.4861803,0,120,1,3.2.2021,119.9872334
463,"['low', 3, 2, True]",TRUE,3,black,135,left,up,low,black_low_135_up,white_low_45_up,2,right,0.1017423,0,120,1,3.2.2021,119.9872334
464,"['low', 2, 2, True]",TRUE,2,white,135,right,up,low,white_low_135_up,black_low_45_up,2,right,0.2563283,1,120,1,3.2.2021,119.9872334
465,"['low', 1, 2, True]",TRUE,1,white,45,left,up,low,white_low_45_up,black_low_135_up,2,right,0.2906578,0,120,1,3.2.2021,119.9872334
466,"['high', 64, 2, True]",TRUE,64,white,45,left,down,high,white_high_45_down,black_high_135_down,2,left,0.1392626,1,120,1,3.2.2021,119.9872334
467,"['low', 8, 2, True]",TRUE,8,black,135,left,up,low,black_low_135_up,white_low_45_up,2,left,0.6271884,1,120,1,3.2.2021,119.9872334
468,"['low', 64, 2, True]",TRUE,64,white,45,left,up,low,white_low_45_up,black_low_135_up,2,left,0.044665,1,120,1,3.2.2021,119.9872334
469,"['high', 32, 2, True]",TRUE,32,black,45,right,up,high,black_high_45_up,white_high_135_up,2,right,0.5463889,1,120,1,3.2.2021,119.9872334
470,"['high', 32, 2, True]",TRUE,32,black,135,left,up,high,black_high_135_up,white_high_45_up,2,left,0.4438573,1,120,1,3.2.2021,119.9872334
471,"['high', 2, 2, True]",TRUE,2,black,45,right,down,high,black_high_45_down,white_high_135_down,2,right,0.681533,1,120,1,3.2.2021,119.9872334
472,"['high', 3, 60, False]",FALSE,3,black,135,left,up,high,black_high_135_up,white_high_45_up,60,left,0.8920001,1,120,1,3.2.2021,119.9872334
473,"['high', 64, 2, True]",TRUE,64,white,135,right,up,high,white_high_135_up,black_high_45_up,2,right,0.4424356,1,120,1,3.2.2021,119.9872334
474,"['high', 8, 2, True]",TRUE,8,black,135,left,down,high,black_high_135_down,white_high_45_down,2,left,0.1739072,1,120,1,3.2.2021,119.9872334
475,"['low', 64, 2, True]",TRUE,64,white,135,right,up,low,white_low_135_up,black_low_45_up,2,right,0.0929055,1,120,1,3.2.2021,119.9872334
476,"['high', 16, 2, True]",TRUE,16,white,135,right,up,high,white_high_135_up,black_high_45_up,2,right,0.2140447,1,120,1,3.2.2021,119.9872334
477,"['high', 4, 2, True]",TRUE,4,white,45,left,up,high,white_high_45_up,black_high_135_up,2,left,0.3980962,1,120,1,3.2.2021,119.9872334
478,"['high', 3, 2, True]",TRUE,3,white,45,left,up,high,white_high_45_up,black_high_135_up,2,left,0.3207085,1,120,1,3.2.2021,119.9872334
479,"['high', 3, 2, True]",TRUE,3,white,45,left,up,high,white_high_45_up,black_high_135_up,2,left,0.0222741,1,120,1,3.2.2021,119.9872334
480,"['low', 1, 2, True]",TRUE,1,black,135,left,down,low,black_low_135_down,white_low_45_down,2,right,0.9516352,0,120,1,3.2.2021,119.9872334
481,"['low', 8, 2, True]",TRUE,8,white,45,left,down,low,white_low_45_down,black_low_135_down,2,left,0.1583221,1,120,1,3.2.2021,119.9872334
482,"['low', 8, 2, True]",TRUE,8,black,135,left,up,low,black_low_135_up,white_low_45_up,2,left,0.1624844,1,120,1,3.2.2021,119.9872334
483,"['high', 64, 2, True]",TRUE,64,black,45,right,up,high,black_high_45_up,white_high_135_up,2,right,0.1765642,1,120,1,3.2.2021,119.9872334
484,"['low', 2, 2, True]",TRUE,2,black,45,right,down,low,black_low_45_down,white_low_135_down,2,right,0.0844478,1,120,1,3.2.2021,119.9872334
485,"['high', 1, 2, False]",FALSE,1,black,45,right,down,high,black_high_45_down,white_high_135_down,2,right,1.4604873,1,120,1,3.2.2021,119.9872334
486,"['high', 32, 2, True]",TRUE,32,black,45,right,down,high,black_high_45_down,white_high_135_down,2,right,0.1257249,1,120,1,3.2.2021,119.9872334
487,"['high', 1, 2, True]",TRUE,1,black,45,right,up,high,black_high_45_up,white_high_135_up,2,left,0.0857813,0,120,1,3.2.2021,119.9872334
488,"['low', 1, 2, True]",TRUE,1,black,135,left,up,low,black_low_135_up,white_low_45_up,2,left,0.4842073,1,120,1,3.2.2021,119.9872334
489,"['low', 1, 2, False]",FALSE,1,black,135,left,down,low,black_low_135_down,white_low_45_down,2,left,2.1163825,1,120,1,3.2.2021,119.9872334
490,"['high', 1, 2, False]",FALSE,1,white,135,right,up,high,white_high_135_up,black_high_45_up,2,right,0.4566239,1,120,1,3.2.2021,119.9872334
491,"['low', 1, 2, False]",FALSE,1,black,45,right,down,low,black_low_45_down,white_low_135_down,2,right,0.5608852,1,120,1,3.2.2021,119.9872334
492,"['low', 3, 2, True]",TRUE,3,black,45,right,up,low,black_low_45_up,white_low_135_up,2,right,3.5039406,1,120,1,3.2.2021,119.9872334
493,"['high', 4, 2, True]",TRUE,4,black,135,left,down,high,black_high_135_down,white_high_45_down,2,right,0.5793565,0,120,1,3.2.2021,119.9872334
494,"['low', 64, 2, True]",TRUE,64,black,135,left,up,low,black_low_135_up,white_low_45_up,2,left,0.3357789,1,120,1,3.2.2021,119.9872334
495,"['low', 64, 2, True]",TRUE,64,black,45,right,down,low,black_low_45_down,white_low_135_down,2,right,0.058966,1,120,1,3.2.2021,119.9872334
496,"['high', 8, 2, True]",TRUE,8,black,135,left,up,high,black_high_135_up,white_high_45_up,2,left,6.0587681,1,120,1,3.2.2021,119.9872334
497,"['high', 3, 60, False]",FALSE,3,black,135,left,up,high,black_high_135_up,white_high_45_up,60,left,0.4314934,1,120,1,3.2.2021,119.9872334
498,"['low', 2, 2, True]",TRUE,2,black,135,left,down,low,black_low_135_down,white_low_45_down,2,right,0.5298881,0,120,1,3.2.2021,119.9872334
499,"['high', 3, 2, True]",TRUE,3,white,135,right,up,high,white_high_135_up,black_high_45_up,2,left,0.3283002,0,120,1,3.2.2021,119.9872334
500,"['high', 16, 2, True]",TRUE,16,white,135,right,down,high,white_high_135_down,black_high_45_down,2,right,0.100999,1,120,1,3.2.2021,119.9872334
501,"['low', 3, 2, True]",TRUE,3,white,135,right,down,low,white_low_135_down,black_low_45_down,2,right,0.2255659,1,120,1,3.2.2021,119.9872334
502,"['low', 1, 2, False]",FALSE,1,black,135,left,down,low,black_low_135_down,white_low_45_down,2,left,0.5416311,1,120,1,3.2.2021,119.9872334
503,"['high', 16, 2, True]",TRUE,16,black,45,right,up,high,black_high_45_up,white_high_135_up,2,right,0.0429846,1,120,1,3.2.2021,119.9872334
504,"['high', 4, 2, True]",TRUE,4,white,135,right,down,high,white_high_135_down,black_high_45_down,2,right,0.0843034,1,120,1,3.2.2021,119.9872334
505,"['high', 3, 2, True]",TRUE,3,black,135,left,up,high,black_high_135_up,white_high_45_up,2,right,0.1295349,0,120,1,3.2.2021,119.9872334
506,"['high', 32, 2, True]",TRUE,32,white,135,right,down,high,white_high_135_down,black_high_45_down,2,right,0.6464227,1,120,1,3.2.2021,119.9872334
507,"['low', 16, 2, True]",TRUE,16,white,45,left,up,low,white_low_45_up,black_low_135_up,2,left,0.092621,1,120,1,3.2.2021,119.9872334
508,"['high', 64, 2, True]",TRUE,64,black,45,right,up,high,black_high_45_up,white_high_135_up,2,right,0.8001221,1,120,1,3.2.2021,119.9872334
509,"['high', 64, 2, True]",TRUE,64,black,135,left,down,high,black_high_135_down,white_high_45_down,2,left,0.2226341,1,120,1,3.2.2021,119.9872334
510,"['high', 1, 2, False]",FALSE,1,black,45,right,up,high,black_high_45_up,white_high_135_up,2,left,0.4180663,0,120,1,3.2.2021,119.9872334
511,"['low', 2, 2, True]",TRUE,2,black,45,right,down,low,black_low_45_down,white_low_135_down,2,left,0.1008698,0,120,1,3.2.2021,119.9872334
512,"['low', 8, 2, True]",TRUE,8,black,135,left,down,low,black_low_135_down,white_low_45_down,2,left,0.1891726,1,120,1,3.2.2021,119.9872334
513,"['low', 1, 2, True]",TRUE,1,white,135,right,up,low,white_low_135_up,black_low_45_up,2,left,0.1003842,0,120,1,3.2.2021,119.9872334
514,"['high', 2, 2, True]",TRUE,2,black,135,left,up,high,black_high_135_up,white_high_45_up,2,left,0.0809609,1,120,1,3.2.2021,119.9872334
515,"['high', 2, 2, True]",TRUE,2,white,45,left,down,high,white_high_45_down,black_high_135_down,2,right,0.1449829,0,120,1,3.2.2021,119.9872334
516,"['high', 2, 2, True]",TRUE,2,black,135,left,down,high,black_high_135_down,white_high_45_down,2,right,0.4513852,0,120,1,3.2.2021,119.9872334
517,"['high', 3, 2, True]",TRUE,3,white,45,left,up,high,white_high_45_up,black_high_135_up,2,left,0.4805467,1,120,1,3.2.2021,119.9872334
518,"['high', 3, 60, False]",FALSE,3,white,135,right,down,high,white_high_135_down,black_high_45_down,60,right,0.2656921,1,120,1,3.2.2021,119.9872334
519,"['high', 64, 2, True]",TRUE,64,white,45,left,up,high,white_high_45_up,black_high_135_up,2,left,0.2848379,1,120,1,3.2.2021,119.9872334
520,"['low', 16, 2, True]",TRUE,16,white,45,left,up,low,white_low_45_up,black_low_135_up,2,left,0.2291044,1,120,1,3.2.2021,119.9872334
521,"['low', 4, 2, True]",TRUE,4,white,45,left,up,low,white_low_45_up,black_low_135_up,2,left,0.1988742,1,120,1,3.2.2021,119.9872334
522,"['high', 4, 2, True]",TRUE,4,white,135,right,up,high,white_high_135_up,black_high_45_up,2,left,0.1731092,0,120,1,3.2.2021,119.9872334
523,"['high', 1, 2, False]",FALSE,1,white,135,right,up,high,white_high_135_up,black_high_45_up,2,right,0.5558886,1,120,1,3.2.2021,119.9872334
524,"['low', 8, 2, True]",TRUE,8,black,45,right,up,low,black_low_45_up,white_low_135_up,2,right,0.5547996,1,120,1,3.2.2021,119.9872334
525,"['low', 32, 2, True]",TRUE,32,black,45,right,up,low,black_low_45_up,white_low_135_up,2,right,0.0752126,1,120,1,3.2.2021,119.9872334
526,"['low', 4, 2, True]",TRUE,4,white,45,left,down,low,white_low_45_down,black_low_135_down,2,left,0.235341,1,120,1,3.2.2021,119.9872334
527,"['low', 16, 2, True]",TRUE,16,white,45,left,up,low,white_low_45_up,black_low_135_up,2,left,0.1412764,1,120,1,3.2.2021,119.9872334
528,"['high', 4, 2, True]",TRUE,4,white,45,left,up,high,white_high_45_up,black_high_135_up,2,left,0.0917467,1,120,1,3.2.2021,119.9872334
529,"['high', 3, 2, True]",TRUE,3,white,135,right,down,high,white_high_135_down,black_high_45_down,2,right,0.1436559,1,120,1,3.2.2021,119.9872334
530,"['low', 8, 2, True]",TRUE,8,white,45,left,up,low,white_low_45_up,black_low_135_up,2,left,0.1067223,1,120,1,3.2.2021,119.9872334
531,"['high', 1, 2, False]",FALSE,1,black,135,left,up,high,black_high_135_up,white_high_45_up,2,left,0.2445031,1,120,1,3.2.2021,119.9872334
532,"['low', 64, 2, True]",TRUE,64,black,135,left,down,low,black_low_135_down,white_low_45_down,2,left,0.1602741,1,120,1,3.2.2021,119.9872334
533,"['high', 1, 2, True]",TRUE,1,black,135,left,down,high,black_high_135_down,white_high_45_down,2,right,0.1389322,0,120,1,3.2.2021,119.9872334
534,"['high', 1, 2, True]",TRUE,1,white,135,right,down,high,white_high_135_down,black_high_45_down,2,right,0.068773,1,120,1,3.2.2021,119.9872334
535,"['high', 1, 2, True]",TRUE,1,black,45,right,up,high,black_high_45_up,white_high_135_up,2,left,0.3441601,0,120,1,3.2.2021,119.9872334
536,"['low', 1, 2, False]",FALSE,1,black,135,left,up,low,black_low_135_up,white_low_45_up,2,right,0.5517216,0,120,1,3.2.2021,119.9872334
537,"['low', 64, 2, True]",TRUE,64,black,45,right,down,low,black_low_45_down,white_low_135_down,2,right,0.2455912,1,120,1,3.2.2021,119.9872334
538,"['high', 8, 2, True]",TRUE,8,black,135,left,down,high,black_high_135_down,white_high_45_down,2,left,0.1826286,1,120,1,3.2.2021,119.9872334
539,"['low', 4, 2, True]",TRUE,4,white,45,left,down,low,white_low_45_down,black_low_135_down,2,left,0.4276096,1,120,1,3.2.2021,119.9872334
540,"['low', 16, 2, True]",TRUE,16,white,45,left,down,low,white_low_45_down,black_low_135_down,2,left,0.0644894,1,120,1,3.2.2021,119.9872334
541,"['high', 32, 2, True]",TRUE,32,black,135,left,up,high,black_high_135_up,white_high_45_up,2,left,0.1441211,1,120,1,3.2.2021,119.9872334
542,"['high', 1, 2, True]",TRUE,1,white,45,left,down,high,white_high_45_down,black_high_135_down,2,left,0.0819281,1,120,1,3.2.2021,119.9872334
543,"['high', 3, 2, True]",TRUE,3,black,135,left,down,high,black_high_135_down,white_high_45_down,2,left,0.3164772,1,120,1,3.2.2021,119.9872334
544,"['high', 64, 2, True]",TRUE,64,black,45,right,down,high,black_high_45_down,white_high_135_down,2,right,0.1576173,1,120,1,3.2.2021,119.9872334
545,"['high', 4, 2, True]",TRUE,4,black,135,left,up,high,black_high_135_up,white_high_45_up,2,right,0.0862927,0,120,1,3.2.2021,119.9872334
546,"['low', 1, 2, True]",TRUE,1,white,45,left,down,low,white_low_45_down,black_low_135_down,2,right,0.4411396,0,120,1,3.2.2021,119.9872334
547,"['low', 4, 2, True]",TRUE,4,white,45,left,down,low,white_low_45_down,black_low_135_down,2,left,0.4826649,1,120,1,3.2.2021,119.9872334
548,"['high', 4, 2, True]",TRUE,4,white,45,left,down,high,white_high_45_down,black_high_135_down,2,left,0.106409,1,120,1,3.2.2021,119.9872334
549,"['low', 64, 2, True]",TRUE,64,black,45,right,down,low,black_low_45_down,white_low_135_down,2,right,0.1365492,1,120,1,3.2.2021,119.9872334
550,"['high', 4, 2, True]",TRUE,4,black,45,right,down,high,black_high_45_down,white_high_135_down,2,right,0.1290635,1,120,1,3.2.2021,119.9872334
551,"['high', 32, 2, True]",TRUE,32,black,45,right,down,high,black_high_45_down,white_high_135_down,2,right,0.3144253,1,120,1,3.2.2021,119.9872334
552,"['high', 1, 2, False]",FALSE,1,white,135,right,down,high,white_high_135_down,black_high_45_down,2,left,0.9406391,0,120,1,3.2.2021,119.9872334
553,"['low', 16, 2, True]",TRUE,16,white,45,left,up,low,white_low_45_up,black_low_135_up,2,left,0.1070465,1,120,1,3.2.2021,119.9872334
554,"['high', 2, 2, True]",TRUE,2,black,135,left,down,high,black_high_135_down,white_high_45_down,2,left,0.11757,1,120,1,3.2.2021,119.9872334
555,"['low', 1, 2, False]",FALSE,1,white,45,left,down,low,white_low_45_down,black_low_135_down,2,left,0.5124314,1,120,1,3.2.2021,119.9872334
556,"['high', 4, 2, True]",TRUE,4,black,45,right,up,high,black_high_45_up,white_high_135_up,2,left,0.1812358,0,120,1,3.2.2021,119.9872334
557,"['low', 4, 2, True]",TRUE,4,white,45,left,up,low,white_low_45_up,black_low_135_up,2,left,0.0512912,1,120,1,3.2.2021,119.9872334
558,"['low', 4, 2, True]",TRUE,4,black,135,left,up,low,black_low_135_up,white_low_45_up,2,left,0.1993923,1,120,1,3.2.2021,119.9872334
559,"['high', 1, 2, False]",FALSE,1,black,135,left,down,high,black_high_135_down,white_high_45_down,2,left,0.3477325,1,120,1,3.2.2021,119.9872334
560,"['low', 64, 2, True]",TRUE,64,black,135,left,up,low,black_low_135_up,white_low_45_up,2,left,0.9175733,1,120,1,3.2.2021,119.9872334
561,"['low', 16, 2, True]",TRUE,16,white,135,right,down,low,white_low_135_down,black_low_45_down,2,right,0.2374885,1,120,1,3.2.2021,119.9872334
562,"['low', 32, 2, True]",TRUE,32,white,135,right,up,low,white_low_135_up,black_low_45_up,2,right,0.5965451,1,120,1,3.2.2021,119.9872334
563,"['high', 16, 2, True]",TRUE,16,white,45,left,down,high,white_high_45_down,black_high_135_down,2,right,0.2427696,0,120,1,3.2.2021,119.9872334
564,"['high', 8, 2, True]",TRUE,8,black,135,left,down,high,black_high_135_down,white_high_45_down,2,right,0.2312824,0,120,1,3.2.2021,119.9872334
565,"['high', 3, 2, True]",TRUE,3,black,135,left,up,high,black_high_135_up,white_high_45_up,2,left,0.2116907,1,120,1,3.2.2021,119.9872334
566,"['high', 64, 2, True]",TRUE,64,black,135,left,up,high,black_high_135_up,white_high_45_up,2,left,0.2693511,1,120,1,3.2.2021,119.9872334
567,"['low', 16, 2, True]",TRUE,16,black,135,left,down,low,black_low_135_down,white_low_45_down,2,left,0.3813252,1,120,1,3.2.2021,119.9872334
568,"['low', 3, 2, True]",TRUE,3,white,135,right,up,low,white_low_135_up,black_low_45_up,2,left,0.3584707,0,120,1,3.2.2021,119.9872334
569,"['low', 4, 2, True]",TRUE,4,black,135,left,up,low,black_low_135_up,white_low_45_up,2,left,0.2056835,1,120,1,3.2.2021,119.9872334
570,"['high', 4, 2, True]",TRUE,4,black,45,right,up,high,black_high_45_up,white_high_135_up,2,left,0.6404233,0,120,1,3.2.2021,119.9872334
571,"['low', 3, 2, True]",TRUE,3,white,45,left,up,low,white_low_45_up,black_low_135_up,2,left,0.5228635,1,120,1,3.2.2021,119.9872334
572,"['high', 4, 2, True]",TRUE,4,white,135,right,down,high,white_high_135_down,black_high_45_down,2,left,0.0935667,0,120,1,3.2.2021,119.9872334
573,"['low', 2, 2, True]",TRUE,2,black,135,left,down,low,black_low_135_down,white_low_45_down,2,left,0.1676171,1,120,1,3.2.2021,119.9872334
574,"['high', 2, 2, True]",TRUE,2,white,135,right,down,high,white_high_135_down,black_high_45_down,2,left,0.0235582,0,120,1,3.2.2021,119.9872334
575,"['high', 4, 2, True]",TRUE,4,black,135,left,up,high,black_high_135_up,white_high_45_up,2,left,0.3431409,1,120,1,3.2.2021,119.9872334
576,"['low', 64, 2, True]",TRUE,64,white,135,right,down,low,white_low_135_down,black_low_45_down,2,right,0.4754752,1,120,1,3.2.2021,119.9872334
577,"['high', 64, 2, True]",TRUE,64,black,135,left,up,high,black_high_135_up,white_high_45_up,2,left,0.3814081,1,120,1,3.2.2021,119.9872334
578,"['low', 2, 2, True]",TRUE,2,black,45,right,up,low,black_low_45_up,white_low_135_up,2,left,0.2550458,0,120,1,3.2.2021,119.9872334
579,"['low', 2, 2, True]",TRUE,2,black,45,right,up,low,black_low_45_up,white_low_135_up,2,left,0.1640861,0,120,1,3.2.2021,119.9872334
580,"['low', 64, 2, True]",TRUE,64,black,45,right,up,low,black_low_45_up,white_low_135_up,2,right,0.022077,1,120,1,3.2.2021,119.9872334
581,"['high', 64, 2, True]",TRUE,64,black,45,right,up,high,black_high_45_up,white_high_135_up,2,right,0.072201,1,120,1,3.2.2021,119.9872334
582,"['low', 16, 2, True]",TRUE,16,white,45,left,down,low,white_low_45_down,black_low_135_down,2,left,0.4670876,1,120,1,3.2.2021,119.9872334
583,"['high', 1, 2, True]",TRUE,1,white,135,right,up,high,white_high_135_up,black_high_45_up,2,left,0.0188079,0,120,1,3.2.2021,119.9872334
584,"['low', 2, 2, True]",TRUE,2,black,135,left,up,low,black_low_135_up,white_low_45_up,2,left,0.0169268,1,120,1,3.2.2021,119.9872334
585,"['high', 4, 2, True]",TRUE,4,white,45,left,up,high,white_high_45_up,black_high_135_up,2,left,0.5212841,1,120,1,3.2.2021,119.9872334
586,"['low', 3, 2, True]",TRUE,3,white,45,left,down,low,white_low_45_down,black_low_135_down,2,left,0.125736,1,120,1,3.2.2021,119.9872334
587,"['high', 1, 2, True]",TRUE,1,black,135,left,down,high,black_high_135_down,white_high_45_down,2,left,0.334284,1,120,1,3.2.2021,119.9872334
588,"['high', 8, 2, True]",TRUE,8,black,45,right,up,high,black_high_45_up,white_high_135_up,2,left,0.1723732,0,120,1,3.2.2021,119.9872334
589,"['high', 2, 2, True]",TRUE,2,black,45,right,down,high,black_high_45_down,white_high_135_down,2,left,0.5583474,0,120,1,3.2.2021,119.9872334
590,"['low', 8, 2, True]",TRUE,8,white,135,right,down,low,white_low_135_down,black_low_45_down,2,left,1.2340047,0,120,1,3.2.2021,119.9872334
591,"['low', 32, 2, True]",TRUE,32,white,135,right,down,low,white_low_135_down,black_low_45_down,2,right,0.5728546,1,120,1,3.2.2021,119.9872334
592,"['high', 32, 2, True]",TRUE,32,black,135,left,up,high,black_high_135_up,white_high_45_up,2,left,0.4382232,1,120,1,3.2.2021,119.9872334
593,"['high', 1, 2, True]",TRUE,1,black,45,right,up,high,black_high_45_up,white_high_135_up,2,left,0.0949779,0,120,1,3.2.2021,119.9872334
594,"['high', 1, 2, True]",TRUE,1,black,45,right,up,high,black_high_45_up,white_high_135_up,2,left,0.0682085,0,120,1,3.2.2021,119.9872334
595,"['high', 3, 2, True]",TRUE,3,black,45,right,up,high,black_high_45_up,white_high_135_up,2,right,0.2140115,1,120,1,3.2.2021,119.9872334
596,"['low', 1, 2, True]",TRUE,1,white,45,left,down,low,white_low_45_down,black_low_135_down,2,left,0.2633975,1,120,1,3.2.2021,119.9872334
597,"['low', 32, 2, True]",TRUE,32,white,45,left,down,low,white_low_45_down,black_low_135_down,2,left,1.8331893,1,120,1,3.2.2021,119.9872334
598,"['low', 2, 2, True]",TRUE,2,white,45,left,up,low,white_low_45_up,black_low_135_up,2,right,0.5680662,0,120,1,3.2.2021,119.9872334
599,"['high', 64, 2, True]",TRUE,64,white,45,left,up,high,white_high_45_up,black_high_135_up,2,left,0.3452585,1,120,1,3.2.2021,119.9872334
600,"['low', 1, 2, True]",TRUE,1,black,45,right,up,low,black_low_45_up,white_low_135_up,2,left,0.6271207,0,120,1,3.2.2021,119.9872334
601,"['high', 64, 2, True]",TRUE,64,black,135,left,up,high,black_high_135_up,white_high_45_up,2,left,0.0273775,1,120,1,3.2.2021,119.9872334
602,"['high', 64, 2, True]",TRUE,64,black,45,right,down,high,black_high_45_down,white_high_135_down,2,right,0.2523591,1,120,1,3.2.2021,119.9872334
603,"['low', 3, 2, True]",TRUE,3,black,45,right,up,low,black_low_45_up,white_low_135_up,2,right,0.1014418,1,120,1,3.2.2021,119.9872334
604,"['high', 3, 60, False]",FALSE,3,white,45,left,up,high,white_high_45_up,black_high_135_up,60,left,0.6568226,1,120,1,3.2.2021,119.9872334
605,"['high', 3, 2, True]",TRUE,3,white,45,left,up,high,white_high_45_up,black_high_135_up,2,left,0.2272585,1,120,1,3.2.2021,119.9872334
606,"['low', 3, 2, True]",TRUE,3,white,45,left,up,low,white_low_45_up,black_low_135_up,2,left,0.0927966,1,120,1,3.2.2021,119.9872334
607,"['low', 1, 2, False]",FALSE,1,black,135,left,up,low,black_low_135_up,white_low_45_up,2,left,0.2194186,1,120,1,3.2.2021,119.9872334
608,"['high', 8, 2, True]",TRUE,8,white,135,right,up,high,white_high_135_up,black_high_45_up,2,right,0.4144123,1,120,1,3.2.2021,119.9872334
609,"['high', 2, 2, True]",TRUE,2,black,135,left,up,high,black_high_135_up,white_high_45_up,2,left,0.5243673,1,120,1,3.2.2021,119.9872334
610,"['low', 32, 2, True]",TRUE,32,white,135,right,down,low,white_low_135_down,black_low_45_down,2,right,0.4930172,1,120,1,3.2.2021,119.9872334
611,"['high', 16, 2, True]",TRUE,16,black,45,right,down,high,black_high_45_down,white_high_135_down,2,right,0.297261,1,120,1,3.2.2021,119.9872334
612,"['high', 1, 2, False]",FALSE,1,black,135,left,down,high,black_high_135_down,white_high_45_down,2,right,0.6139939,0,120,1,3.2.2021,119.9872334
613,"['low', 2, 2, True]",TRUE,2,white,135,right,up,low,white_low_135_up,black_low_45_up,2,right,2.0673379,1,120,1,3.2.2021,119.9872334
614,"['low', 1, 2, True]",TRUE,1,black,135,left,down,low,black_low_135_down,white_low_45_down,2,right,1.0290752,0,120,1,3.2.2021,119.9872334
615,"['low', 32, 2, True]",TRUE,32,white,45,left,down,low,white_low_45_down,black_low_135_down,2,left,0.2002112,1,120,1,3.2.2021,119.9872334
616,"['low', 32, 2, True]",TRUE,32,white,45,left,up,low,white_low_45_up,black_low_135_up,2,left,1.4456302,1,120,1,3.2.2021,119.9872334
617,"['high', 4, 2, True]",TRUE,4,white,135,right,down,high,white_high_135_down,black_high_45_down,2,right,0.2248015,1,120,1,3.2.2021,119.9872334
618,"['low', 2, 2, True]",TRUE,2,white,45,left,down,low,white_low_45_down,black_low_135_down,2,left,0.7144581,1,120,1,3.2.2021,119.9872334
619,"['low', 2, 2, True]",TRUE,2,white,45,left,down,low,white_low_45_down,black_low_135_down,2,right,0.4600178,0,120,1,3.2.2021,119.9872334
620,"['high', 64, 2, True]",TRUE,64,black,45,right,up,high,black_high_45_up,white_high_135_up,2,right,0.3663196,1,120,1,3.2.2021,119.9872334
621,"['high', 2, 2, True]",TRUE,2,black,135,left,down,high,black_high_135_down,white_high_45_down,2,right,0.1747863,0,120,1,3.2.2021,119.9872334
622,"['low', 1, 2, False]",FALSE,1,white,45,left,down,low,white_low_45_down,black_low_135_down,2,left,0.1602983,1,120,1,3.2.2021,119.9872334
623,"['high', 4, 2, True]",TRUE,4,white,45,left,down,high,white_high_45_down,black_high_135_down,2,left,0.088021,1,120,1,3.2.2021,119.9872334
624,"['low', 2, 2, True]",TRUE,2,black,45,right,down,low,black_low_45_down,white_low_135_down,2,right,1.2347222,1,120,1,3.2.2021,119.9872334
625,"['low', 16, 2, True]",TRUE,16,black,135,left,down,low,black_low_135_down,white_low_45_down,2,left,0.1457961,1,120,1,3.2.2021,119.9872334
626,"['low', 1, 2, False]",FALSE,1,white,135,right,down,low,white_low_135_down,black_low_45_down,2,right,1.0645513,1,120,1,3.2.2021,119.9872334
627,"['low', 32, 2, True]",TRUE,32,white,135,right,up,low,white_low_135_up,black_low_45_up,2,right,0.2683999,1,120,1,3.2.2021,119.9872334
628,"['low', 3, 2, True]",TRUE,3,white,45,left,down,low,white_low_45_down,black_low_135_down,2,right,0.2838103,0,120,1,3.2.2021,119.9872334
629,"['low', 3, 2, True]",TRUE,3,black,45,right,up,low,black_low_45_up,white_low_135_up,2,right,0.6018943,1,120,1,3.2.2021,119.9872334
630,"['low', 1, 2, False]",FALSE,1,black,45,right,up,low,black_low_45_up,white_low_135_up,2,right,0.3533919,1,120,1,3.2.2021,119.9872334
631,"['low', 3, 2, True]",TRUE,3,white,45,left,down,low,white_low_45_down,black_low_135_down,2,left,0.5913898,1,120,1,3.2.2021,119.9872334
632,"['low', 32, 2, True]",TRUE,32,black,45,right,up,low,black_low_45_up,white_low_135_up,2,right,0.1878153,1,120,1,3.2.2021,119.9872334
633,"['low', 8, 2, True]",TRUE,8,white,135,right,down,low,white_low_135_down,black_low_45_down,2,left,1.2860959,0,120,1,3.2.2021,119.9872334
634,"['high', 2, 2, True]",TRUE,2,white,135,right,down,high,white_high_135_down,black_high_45_down,2,left,0.1143252,0,120,1,3.2.2021,119.9872334
635,"['high', 3, 2, True]",TRUE,3,black,135,left,up,high,black_high_135_up,white_high_45_up,2,left,0.287023,1,120,1,3.2.2021,119.9872334
636,"['low', 8, 2, True]",TRUE,8,black,45,right,down,low,black_low_45_down,white_low_135_down,2,right,0.580488,1,120,1,3.2.2021,119.9872334
637,"['high', 4, 2, True]",TRUE,4,black,45,right,down,high,black_high_45_down,white_high_135_down,2,right,0.2413723,1,120,1,3.2.2021,119.9872334
638,"['high', 2, 2, True]",TRUE,2,white,45,left,down,high,white_high_45_down,black_high_135_down,2,left,0.1995087,1,120,1,3.2.2021,119.9872334
639,"['low', 32, 2, True]",TRUE,32,black,135,left,down,low,black_low_135_down,white_low_45_down,2,left,0.2031408,1,120,1,3.2.2021,119.9872334
640,"['low', 16, 2, True]",TRUE,16,black,135,left,up,low,black_low_135_up,white_low_45_up,2,left,0.0604502,1,120,1,3.2.2021,119.9872334
641,"['low', 16, 2, True]",TRUE,16,black,45,right,down,low,black_low_45_down,white_low_135_down,2,right,1.3782506,1,120,1,3.2.2021,119.9872334
642,"['low', 8, 2, True]",TRUE,8,black,45,right,down,low,black_low_45_down,white_low_135_down,2,right,0.101838,1,120,1,3.2.2021,119.9872334
643,"['high', 2, 2, True]",TRUE,2,white,135,right,up,high,white_high_135_up,black_high_45_up,2,left,0.3922541,0,120,1,3.2.2021,119.9872334
644,"['high', 3, 60, False]",FALSE,3,black,135,left,up,high,black_high_135_up,white_high_45_up,60,left,0.61207,1,120,1,3.2.2021,119.9872334
645,"['low', 4, 2, True]",TRUE,4,black,45,right,up,low,black_low_45_up,white_low_135_up,2,right,0.8879057,1,120,1,3.2.2021,119.9872334
646,"['low', 4, 2, True]",TRUE,4,white,135,right,down,low,white_low_135_down,black_low_45_down,2,right,0.7833397,1,120,1,3.2.2021,119.9872334
647,"['low', 2, 2, True]",TRUE,2,white,45,left,down,low,white_low_45_down,black_low_135_down,2,right,0.364292,0,120,1,3.2.2021,119.9872334
648,"['high', 16, 2, True]",TRUE,16,black,135,left,down,high,black_high_135_down,white_high_45_down,2,left,0.1214118,1,120,1,3.2.2021,119.9872334
649,"['low', 16, 2, True]",TRUE,16,white,135,right,up,low,white_low_135_up,black_low_45_up,2,right,0.2607082,1,120,1,3.2.2021,119.9872334
650,"['high', 16, 2, True]",TRUE,16,white,135,right,down,high,white_high_135_down,black_high_45_down,2,right,0.7075353,1,120,1,3.2.2021,119.9872334
651,"['high', 8, 2, True]",TRUE,8,black,45,right,up,high,black_high_45_up,white_high_135_up,2,right,0.3278647,1,120,1,3.2.2021,119.9872334
652,"['low', 2, 2, True]",TRUE,2,black,135,left,up,low,black_low_135_up,white_low_45_up,2,left,1.0714864,1,120,1,3.2.2021,119.9872334
653,"['low', 4, 2, True]",TRUE,4,black,135,left,down,low,black_low_135_down,white_low_45_down,2,left,0.1520332,1,120,1,3.2.2021,119.9872334
654,"['low', 1, 2, True]",TRUE,1,black,135,left,down,low,black_low_135_down,white_low_45_down,2,right,0.6091281,0,120,1,3.2.2021,119.9872334
655,"['low', 4, 2, True]",TRUE,4,white,135,right,down,low,white_low_135_down,black_low_45_down,2,right,0.5080116,1,120,1,3.2.2021,119.9872334
656,"['high', 3, 60, False]",FALSE,3,white,45,left,up,high,white_high_45_up,black_high_135_up,60,left,0.0286902,1,120,1,3.2.2021,119.9872334
657,"['high', 1, 2, False]",FALSE,1,black,135,left,up,high,black_high_135_up,white_high_45_up,2,right,0.388761,0,120,1,3.2.2021,119.9872334
658,"['high', 32, 2, True]",TRUE,32,black,45,right,down,high,black_high_45_down,white_high_135_down,2,right,0.2984072,1,120,1,3.2.2021,119.9872334
659,"['high', 8, 2, True]",TRUE,8,black,135,left,down,high,black_high_135_down,white_high_45_down,2,left,0.1873526,1,120,1,3.2.2021,119.9872334
660,"['low', 4, 2, True]",TRUE,4,white,135,right,down,low,white_low_135_down,black_low_45_down,2,right,0.8514545,1,120,1,3.2.2021,119.9872334
661,"['high', 8, 2, True]",TRUE,8,white,135,right,up,high,white_high_135_up,black_high_45_up,2,right,0.7634456,1,120,1,3.2.2021,119.9872334
662,"['high', 4, 2, True]",TRUE,4,white,45,left,down,high,white_high_45_down,black_high_135_down,2,left,1.9480212,1,120,1,3.2.2021,119.9872334
663,"['high', 2, 2, True]",TRUE,2,white,45,left,down,high,white_high_45_down,black_high_135_down,2,left,2.7172237,1,120,1,3.2.2021,119.9872334
664,"['high', 2, 2, True]",TRUE,2,white,45,left,down,high,white_high_45_down,black_high_135_down,2,right,0.4839191,0,120,1,3.2.2021,119.9872334
665,"['low', 2, 2, True]",TRUE,2,white,135,right,down,low,white_low_135_down,black_low_45_down,2,left,0.2838338,0,120,1,3.2.2021,119.9872334
666,"['high', 4, 2, True]",TRUE,4,black,135,left,down,high,black_high_135_down,white_high_45_down,2,left,0.8349787,1,120,1,3.2.2021,119.9872334
667,"['low', 1, 2, True]",TRUE,1,black,45,right,down,low,black_low_45_down,white_low_135_down,2,right,0.7293752,1,120,1,3.2.2021,119.9872334
668,"['high', 1, 2, False]",FALSE,1,black,45,right,down,high,black_high_45_down,white_high_135_down,2,right,0.4332518,1,120,1,3.2.2021,119.9872334
669,"['high', 16, 2, True]",TRUE,16,black,45,right,up,high,black_high_45_up,white_high_135_up,2,right,0.5723532,1,120,1,3.2.2021,119.9872334
670,"['high', 2, 2, True]",TRUE,2,white,45,left,up,high,white_high_45_up,black_high_135_up,2,right,0.4873443,0,120,1,3.2.2021,119.9872334
671,"['low', 64, 2, True]",TRUE,64,white,135,right,up,low,white_low_135_up,black_low_45_up,2,right,0.3739018,1,120,1,3.2.2021,119.9872334
672,"['high', 2, 2, True]",TRUE,2,white,45,left,down,high,white_high_45_down,black_high_135_down,2,right,0.3511074,0,120,1,3.2.2021,119.9872334
673,"['low', 16, 2, True]",TRUE,16,black,45,right,down,low,black_low_45_down,white_low_135_down,2,right,0.2302786,1,120,1,3.2.2021,119.9872334
674,"['high', 3, 2, True]",TRUE,3,black,45,right,up,high,black_high_45_up,white_high_135_up,2,right,0.2526841,1,120,1,3.2.2021,119.9872334
675,"['low', 32, 2, True]",TRUE,32,white,45,left,down,low,white_low_45_down,black_low_135_down,2,left,0.317466,1,120,1,3.2.2021,119.9872334
676,"['high', 1, 2, False]",FALSE,1,white,135,right,up,high,white_high_135_up,black_high_45_up,2,right,0.6880488,1,120,1,3.2.2021,119.9872334
677,"['low', 2, 2, True]",TRUE,2,white,45,left,down,low,white_low_45_down,black_low_135_down,2,right,0.2911543,0,120,1,3.2.2021,119.9872334
678,"['high', 1, 2, False]",FALSE,1,black,135,left,up,high,black_high_135_up,white_high_45_up,2,right,1.3717262,0,120,1,3.2.2021,119.9872334
679,"['low', 8, 2, True]",TRUE,8,white,45,left,down,low,white_low_45_down,black_low_135_down,2,left,0.1946948,1,120,1,3.2.2021,119.9872334
680,"['high', 2, 2, True]",TRUE,2,black,45,right,up,high,black_high_45_up,white_high_135_up,2,right,0.4692255,1,120,1,3.2.2021,119.9872334
681,"['low', 64, 2, True]",TRUE,64,white,45,left,up,low,white_low_45_up,black_low_135_up,2,left,0.340322,1,120,1,3.2.2021,119.9872334
682,"['high', 3, 2, True]",TRUE,3,black,135,left,down,high,black_high_135_down,white_high_45_down,2,left,0.2752491,1,120,1,3.2.2021,119.9872334
683,"['low', 16, 2, True]",TRUE,16,black,45,right,up,low,black_low_45_up,white_low_135_up,2,right,0.0394507,1,120,1,3.2.2021,119.9872334
684,"['high', 8, 2, True]",TRUE,8,black,45,right,down,high,black_high_45_down,white_high_135_down,2,right,0.2011414,1,120,1,3.2.2021,119.9872334
685,"['low', 4, 2, True]",TRUE,4,white,135,right,up,low,white_low_135_up,black_low_45_up,2,right,0.7790966,1,120,1,3.2.2021,119.9872334
686,"['high', 3, 60, False]",FALSE,3,white,135,right,up,high,white_high_135_up,black_high_45_up,60,right,0.2812408,1,120,1,3.2.2021,119.9872334
687,"['high', 16, 2, True]",TRUE,16,black,45,right,up,high,black_high_45_up,white_high_135_up,2,right,0.5368154,1,120,1,3.2.2021,119.9872334
688,"['low', 4, 2, True]",TRUE,4,black,135,left,down,low,black_low_135_down,white_low_45_down,2,right,0.1129544,0,120,1,3.2.2021,119.9872334
689,"['low', 2, 2, True]",TRUE,2,black,45,right,up,low,black_low_45_up,white_low_135_up,2,right,0.4483652,1,120,1,3.2.2021,119.9872334
690,"['high', 8, 2, True]",TRUE,8,black,135,left,up,high,black_high_135_up,white_high_45_up,2,right,1.1662823,0,120,1,3.2.2021,119.9872334
691,"['high', 3, 2, True]",TRUE,3,black,45,right,down,high,black_high_45_down,white_high_135_down,2,right,0.4543451,1,120,1,3.2.2021,119.9872334
692,"['high', 2, 2, True]",TRUE,2,white,45,left,up,high,white_high_45_up,black_high_135_up,2,right,0.2743023,0,120,1,3.2.2021,119.9872334
693,"['low', 64, 2, True]",TRUE,64,black,135,left,down,low,black_low_135_down,white_low_45_down,2,left,0.3093273,1,120,1,3.2.2021,119.9872334
694,"['high', 4, 2, True]",TRUE,4,black,135,left,down,high,black_high_135_down,white_high_45_down,2,right,0.1654038,0,120,1,3.2.2021,119.9872334
695,"['low', 1, 2, True]",TRUE,1,black,45,right,up,low,black_low_45_up,white_low_135_up,2,left,0.5649228,0,120,1,3.2.2021,119.9872334
696,"['high', 3, 60, False]",FALSE,3,white,135,right,up,high,white_high_135_up,black_high_45_up,60,right,0.3794177,1,120,1,3.2.2021,119.9872334
697,"['high', 3, 60, False]",FALSE,3,white,45,left,up,high,white_high_45_up,black_high_135_up,60,left,0.2287747,1,120,1,3.2.2021,119.9872334
698,"['high', 1, 2, True]",TRUE,1,white,45,left,up,high,white_high_45_up,black_high_135_up,2,right,0.7121745,0,120,1,3.2.2021,119.9872334
699,"['high', 16, 2, True]",TRUE,16,white,45,left,down,high,white_high_45_down,black_high_135_down,2,left,0.0791056,1,120,1,3.2.2021,119.9872334
700,"['low', 32, 2, True]",TRUE,32,white,135,right,up,low,white_low_135_up,black_low_45_up,2,right,0.3146609,1,120,1,3.2.2021,119.9872334
701,"['high', 64, 2, True]",TRUE,64,white,45,left,down,high,white_high_45_down,black_high_135_down,2,left,0.1839818,1,120,1,3.2.2021,119.9872334
702,"['high', 1, 2, False]",FALSE,1,white,45,left,down,high,white_high_45_down,black_high_135_down,2,right,0.5613847,0,120,1,3.2.2021,119.9872334
703,"['low', 1, 2, False]",FALSE,1,white,45,left,down,low,white_low_45_down,black_low_135_down,2,left,0.4407956,1,120,1,3.2.2021,119.9872334
704,"['low', 8, 2, True]",TRUE,8,black,135,left,down,low,black_low_135_down,white_low_45_down,2,left,0.2243596,1,120,1,3.2.2021,119.9872334
