trial_number,trial_type,mask_present,cycle_number,first_color,first_orientation,correct_response,visual_field,spatial_frequency,first_stim,second_stim,stimulus_frame_duration,answer,rt,accuracy,frame_rate,participant,psychopyVersion,frame_rate_detected
0,"['high', 32, 2, True]",TRUE,32,black,45,right,up,high,black_high_45_up,white_high_135_up,2,right,0.2761505,1,120,3,3.2.2021,120.1901408
1,"['high', 8, 2, True]",TRUE,8,black,45,right,up,high,black_high_45_up,white_high_135_up,2,left,0.1049742,0,120,3,3.2.2021,120.1901408
2,"['low', 32, 2, True]",TRUE,32,black,45,right,up,low,black_low_45_up,white_low_135_up,2,right,0.9051703,1,120,3,3.2.2021,120.1901408
3,"['high', 64, 2, True]",TRUE,64,black,45,right,down,high,black_high_45_down,white_high_135_down,2,right,0.1725352,1,120,3,3.2.2021,120.1901408
4,"['high', 3, 2, True]",TRUE,3,white,135,right,up,high,white_high_135_up,black_high_45_up,2,left,0.098844,0,120,3,3.2.2021,120.1901408
5,"['high', 32, 2, True]",TRUE,32,black,135,left,down,high,black_high_135_down,white_high_45_down,2,left,0.2233937,1,120,3,3.2.2021,120.1901408
6,"['low', 8, 2, True]",TRUE,8,white,45,left,down,low,white_low_45_down,black_low_135_down,2,left,0.1337796,1,120,3,3.2.2021,120.1901408
7,"['high', 1, 2, False]",FALSE,1,black,45,right,down,high,black_high_45_down,white_high_135_down,2,left,0.3508161,0,120,3,3.2.2021,120.1901408
8,"['high', 4, 2, True]",TRUE,4,black,45,right,down,high,black_high_45_down,white_high_135_down,2,left,0.1314475,0,120,3,3.2.2021,120.1901408
9,"['high', 2, 2, True]",TRUE,2,black,45,right,up,high,black_high_45_up,white_high_135_up,2,left,0.6198716,0,120,3,3.2.2021,120.1901408
10,"['low', 16, 2, True]",TRUE,16,white,135,right,down,low,white_low_135_down,black_low_45_down,2,right,0.4141923,1,120,3,3.2.2021,120.1901408
11,"['high', 32, 2, True]",TRUE,32,black,135,left,down,high,black_high_135_down,white_high_45_down,2,left,0.4685866,1,120,3,3.2.2021,120.1901408
12,"['high', 32, 2, True]",TRUE,32,white,135,right,up,high,white_high_135_up,black_high_45_up,2,right,0.0690433,1,120,3,3.2.2021,120.1901408
13,"['high', 1, 2, True]",TRUE,1,black,45,right,down,high,black_high_45_down,white_high_135_down,2,right,0.7769101,1,120,3,3.2.2021,120.1901408
14,"['low', 4, 2, True]",TRUE,4,black,45,right,down,low,black_low_45_down,white_low_135_down,2,right,0.1275092,1,120,3,3.2.2021,120.1901408
15,"['high', 16, 2, True]",TRUE,16,white,135,right,down,high,white_high_135_down,black_high_45_down,2,right,0.4639347,1,120,3,3.2.2021,120.1901408
16,"['high', 2, 2, True]",TRUE,2,black,135,left,down,high,black_high_135_down,white_high_45_down,2,right,0.3040255,0,120,3,3.2.2021,120.1901408
17,"['low', 64, 2, True]",TRUE,64,black,135,left,up,low,black_low_135_up,white_low_45_up,2,left,0.4195465,1,120,3,3.2.2021,120.1901408
18,"['low', 1, 2, False]",FALSE,1,black,45,right,down,low,black_low_45_down,white_low_135_down,2,left,0.3795932,0,120,3,3.2.2021,120.1901408
19,"['high', 64, 2, True]",TRUE,64,black,45,right,up,high,black_high_45_up,white_high_135_up,2,right,0.4720292,1,120,3,3.2.2021,120.1901408
20,"['low', 2, 2, True]",TRUE,2,black,135,left,up,low,black_low_135_up,white_low_45_up,2,right,0.1594015,0,120,3,3.2.2021,120.1901408
21,"['low', 32, 2, True]",TRUE,32,black,135,left,up,low,black_low_135_up,white_low_45_up,2,left,0.6128198,1,120,3,3.2.2021,120.1901408
22,"['low', 3, 2, True]",TRUE,3,white,135,right,down,low,white_low_135_down,black_low_45_down,2,right,0.4427405,1,120,3,3.2.2021,120.1901408
23,"['low', 64, 2, True]",TRUE,64,black,45,right,up,low,black_low_45_up,white_low_135_up,2,right,0.4793933,1,120,3,3.2.2021,120.1901408
24,"['low', 8, 2, True]",TRUE,8,white,135,right,down,low,white_low_135_down,black_low_45_down,2,right,0.4302477,1,120,3,3.2.2021,120.1901408
25,"['high', 32, 2, True]",TRUE,32,white,45,left,down,high,white_high_45_down,black_high_135_down,2,left,0.1406147,1,120,3,3.2.2021,120.1901408
26,"['low', 32, 2, True]",TRUE,32,black,45,right,down,low,black_low_45_down,white_low_135_down,2,right,0.4819079,1,120,3,3.2.2021,120.1901408
27,"['high', 32, 2, True]",TRUE,32,black,135,left,down,high,black_high_135_down,white_high_45_down,2,left,1.2690824,1,120,3,3.2.2021,120.1901408
28,"['high', 1, 2, False]",FALSE,1,white,45,left,up,high,white_high_45_up,black_high_135_up,2,right,0.6302359,0,120,3,3.2.2021,120.1901408
29,"['low', 8, 2, True]",TRUE,8,black,45,right,down,low,black_low_45_down,white_low_135_down,2,right,0.4537588,1,120,3,3.2.2021,120.1901408
30,"['low', 1, 2, True]",TRUE,1,black,135,left,up,low,black_low_135_up,white_low_45_up,2,right,0.324491,0,120,3,3.2.2021,120.1901408
31,"['high', 3, 2, True]",TRUE,3,white,45,left,down,high,white_high_45_down,black_high_135_down,2,right,0.4703441,0,120,3,3.2.2021,120.1901408
32,"['low', 4, 2, True]",TRUE,4,white,45,left,down,low,white_low_45_down,black_low_135_down,2,right,0.1449287,0,120,3,3.2.2021,120.1901408
33,"['high', 32, 2, True]",TRUE,32,black,135,left,down,high,black_high_135_down,white_high_45_down,2,left,0.4884532,1,120,3,3.2.2021,120.1901408
34,"['low', 4, 2, True]",TRUE,4,black,135,left,down,low,black_low_135_down,white_low_45_down,2,right,1.3998344,0,120,3,3.2.2021,120.1901408
35,"['high', 1, 2, True]",TRUE,1,black,45,right,up,high,black_high_45_up,white_high_135_up,2,left,0.3659276,0,120,3,3.2.2021,120.1901408
36,"['low', 16, 2, True]",TRUE,16,white,135,right,down,low,white_low_135_down,black_low_45_down,2,right,0.4260797,1,120,3,3.2.2021,120.1901408
37,"['low', 8, 2, True]",TRUE,8,white,45,left,down,low,white_low_45_down,black_low_135_down,2,left,0.4188859,1,120,3,3.2.2021,120.1901408
38,"['low', 1, 2, False]",FALSE,1,white,135,right,down,low,white_low_135_down,black_low_45_down,2,right,0.4251817,1,120,3,3.2.2021,120.1901408
39,"['high', 32, 2, True]",TRUE,32,white,135,right,down,high,white_high_135_down,black_high_45_down,2,right,0.0941575,1,120,3,3.2.2021,120.1901408
40,"['low', 16, 2, True]",TRUE,16,black,45,right,down,low,black_low_45_down,white_low_135_down,2,right,0.1963496,1,120,3,3.2.2021,120.1901408
41,"['low', 32, 2, True]",TRUE,32,black,45,right,down,low,black_low_45_down,white_low_135_down,2,right,0.167023,1,120,3,3.2.2021,120.1901408
42,"['high', 2, 2, True]",TRUE,2,white,135,right,down,high,white_high_135_down,black_high_45_down,2,right,0.1762646,1,120,3,3.2.2021,120.1901408
43,"['high', 3, 60, False]",FALSE,3,white,135,right,down,high,white_high_135_down,black_high_45_down,60,right,0.1710127,1,120,3,3.2.2021,120.1901408
44,"['high', 8, 2, True]",TRUE,8,white,45,left,down,high,white_high_45_down,black_high_135_down,2,left,0.3208143,1,120,3,3.2.2021,120.1901408
45,"['low', 3, 2, True]",TRUE,3,black,45,right,up,low,black_low_45_up,white_low_135_up,2,right,1.0777158,1,120,3,3.2.2021,120.1901408
46,"['low', 3, 2, True]",TRUE,3,black,45,right,down,low,black_low_45_down,white_low_135_down,2,right,0.1942932,1,120,3,3.2.2021,120.1901408
47,"['high', 8, 2, True]",TRUE,8,white,45,left,down,high,white_high_45_down,black_high_135_down,2,left,0.2288359,1,120,3,3.2.2021,120.1901408
48,"['low', 3, 2, True]",TRUE,3,black,45,right,up,low,black_low_45_up,white_low_135_up,2,right,0.3936283,1,120,3,3.2.2021,120.1901408
49,"['high', 3, 60, False]",FALSE,3,black,135,left,up,high,black_high_135_up,white_high_45_up,60,left,0.400312,1,120,3,3.2.2021,120.1901408
50,"['low', 64, 2, True]",TRUE,64,white,135,right,down,low,white_low_135_down,black_low_45_down,2,right,0.2744706,1,120,3,3.2.2021,120.1901408
51,"['high', 1, 2, True]",TRUE,1,white,45,left,up,high,white_high_45_up,black_high_135_up,2,left,0.8135036,1,120,3,3.2.2021,120.1901408
52,"['high', 64, 2, True]",TRUE,64,black,45,right,down,high,black_high_45_down,white_high_135_down,2,right,0.1374874,1,120,3,3.2.2021,120.1901408
53,"['low', 1, 2, False]",FALSE,1,white,45,left,up,low,white_low_45_up,black_low_135_up,2,left,0.7290215,1,120,3,3.2.2021,120.1901408
54,"['low', 2, 2, True]",TRUE,2,black,45,right,down,low,black_low_45_down,white_low_135_down,2,right,0.0513738,1,120,3,3.2.2021,120.1901408
55,"['low', 3, 2, True]",TRUE,3,white,45,left,up,low,white_low_45_up,black_low_135_up,2,left,0.1504436,1,120,3,3.2.2021,120.1901408
56,"['high', 16, 2, True]",TRUE,16,white,45,left,down,high,white_high_45_down,black_high_135_down,2,left,0.3622312,1,120,3,3.2.2021,120.1901408
57,"['high', 8, 2, True]",TRUE,8,black,135,left,up,high,black_high_135_up,white_high_45_up,2,left,0.372364,1,120,3,3.2.2021,120.1901408
58,"['high', 64, 2, True]",TRUE,64,black,45,right,up,high,black_high_45_up,white_high_135_up,2,right,0.4220779,1,120,3,3.2.2021,120.1901408
59,"['low', 1, 2, True]",TRUE,1,black,135,left,down,low,black_low_135_down,white_low_45_down,2,left,0.5573127,1,120,3,3.2.2021,120.1901408
60,"['high', 3, 60, False]",FALSE,3,black,45,right,down,high,black_high_45_down,white_high_135_down,60,right,0.4800716,1,120,3,3.2.2021,120.1901408
61,"['low', 64, 2, True]",TRUE,64,white,45,left,up,low,white_low_45_up,black_low_135_up,2,left,0.3310764,1,120,3,3.2.2021,120.1901408
62,"['low', 8, 2, True]",TRUE,8,black,45,right,down,low,black_low_45_down,white_low_135_down,2,right,0.640222,1,120,3,3.2.2021,120.1901408
63,"['high', 1, 2, False]",FALSE,1,white,135,right,down,high,white_high_135_down,black_high_45_down,2,right,0.4786564,1,120,3,3.2.2021,120.1901408
64,"['low', 64, 2, True]",TRUE,64,white,45,left,down,low,white_low_45_down,black_low_135_down,2,left,1.1309181,1,120,3,3.2.2021,120.1901408
65,"['low', 64, 2, True]",TRUE,64,white,135,right,down,low,white_low_135_down,black_low_45_down,2,right,0.1942933,1,120,3,3.2.2021,120.1901408
66,"['high', 64, 2, True]",TRUE,64,white,45,left,down,high,white_high_45_down,black_high_135_down,2,left,0.3817795,1,120,3,3.2.2021,120.1901408
67,"['low', 2, 2, True]",TRUE,2,white,45,left,up,low,white_low_45_up,black_low_135_up,2,left,0.1740417,1,120,3,3.2.2021,120.1901408
68,"['low', 64, 2, True]",TRUE,64,white,135,right,down,low,white_low_135_down,black_low_45_down,2,right,0.7646229,1,120,3,3.2.2021,120.1901408
69,"['low', 64, 2, True]",TRUE,64,black,135,left,up,low,black_low_135_up,white_low_45_up,2,left,0.4210833,1,120,3,3.2.2021,120.1901408
70,"['low', 16, 2, True]",TRUE,16,white,135,right,down,low,white_low_135_down,black_low_45_down,2,right,0.4066593,1,120,3,3.2.2021,120.1901408
71,"['high', 8, 2, True]",TRUE,8,white,135,right,down,high,white_high_135_down,black_high_45_down,2,left,0.1776922,0,120,3,3.2.2021,120.1901408
72,"['low', 3, 2, True]",TRUE,3,white,135,right,up,low,white_low_135_up,black_low_45_up,2,left,0.1115774,0,120,3,3.2.2021,120.1901408
73,"['high', 1, 2, False]",FALSE,1,black,45,right,down,high,black_high_45_down,white_high_135_down,2,right,0.7141783,1,120,3,3.2.2021,120.1901408
74,"['high', 4, 2, True]",TRUE,4,black,135,left,up,high,black_high_135_up,white_high_45_up,2,left,0.6239491,1,120,3,3.2.2021,120.1901408
75,"['high', 32, 2, True]",TRUE,32,black,45,right,up,high,black_high_45_up,white_high_135_up,2,right,0.2965518,1,120,3,3.2.2021,120.1901408
76,"['high', 16, 2, True]",TRUE,16,white,45,left,up,high,white_high_45_up,black_high_135_up,2,left,0.2773813,1,120,3,3.2.2021,120.1901408
77,"['high', 1, 2, False]",FALSE,1,white,45,left,down,high,white_high_45_down,black_high_135_down,2,left,0.3466853,1,120,3,3.2.2021,120.1901408
78,"['high', 64, 2, True]",TRUE,64,black,45,right,down,high,black_high_45_down,white_high_135_down,2,right,0.4017714,1,120,3,3.2.2021,120.1901408
79,"['high', 4, 2, True]",TRUE,4,black,45,right,down,high,black_high_45_down,white_high_135_down,2,right,1.658491,1,120,3,3.2.2021,120.1901408
80,"['high', 32, 2, True]",TRUE,32,white,45,left,down,high,white_high_45_down,black_high_135_down,2,left,0.3112842,1,120,3,3.2.2021,120.1901408
81,"['low', 8, 2, True]",TRUE,8,white,135,right,up,low,white_low_135_up,black_low_45_up,2,right,0.3802887,1,120,3,3.2.2021,120.1901408
82,"['low', 4, 2, True]",TRUE,4,white,135,right,up,low,white_low_135_up,black_low_45_up,2,right,0.2914861,1,120,3,3.2.2021,120.1901408
83,"['high', 16, 2, True]",TRUE,16,white,135,right,up,high,white_high_135_up,black_high_45_up,2,right,0.4651856,1,120,3,3.2.2021,120.1901408
84,"['high', 1, 2, True]",TRUE,1,black,45,right,down,high,black_high_45_down,white_high_135_down,2,left,0.2981262,0,120,3,3.2.2021,120.1901408
85,"['high', 64, 2, True]",TRUE,64,black,135,left,up,high,black_high_135_up,white_high_45_up,2,left,0.3767231,1,120,3,3.2.2021,120.1901408
86,"['high', 1, 2, True]",TRUE,1,black,135,left,up,high,black_high_135_up,white_high_45_up,2,left,0.5683336,1,120,3,3.2.2021,120.1901408
87,"['high', 64, 2, True]",TRUE,64,white,135,right,down,high,white_high_135_down,black_high_45_down,2,right,0.3837688,1,120,3,3.2.2021,120.1901408
88,"['low', 4, 2, True]",TRUE,4,white,135,right,up,low,white_low_135_up,black_low_45_up,2,right,0.2357134,1,120,3,3.2.2021,120.1901408
89,"['low', 64, 2, True]",TRUE,64,black,135,left,up,low,black_low_135_up,white_low_45_up,2,left,0.2151271,1,120,3,3.2.2021,120.1901408
90,"['high', 1, 2, True]",TRUE,1,white,45,left,down,high,white_high_45_down,black_high_135_down,2,left,0.2170189,1,120,3,3.2.2021,120.1901408
91,"['high', 3, 2, True]",TRUE,3,white,45,left,up,high,white_high_45_up,black_high_135_up,2,left,0.1481197,1,120,3,3.2.2021,120.1901408
92,"['low', 3, 2, True]",TRUE,3,black,135,left,down,low,black_low_135_down,white_low_45_down,2,right,0.1963444,0,120,3,3.2.2021,120.1901408
93,"['high', 32, 2, True]",TRUE,32,white,45,left,up,high,white_high_45_up,black_high_135_up,2,left,0.9669749,1,120,3,3.2.2021,120.1901408
94,"['low', 2, 2, True]",TRUE,2,black,135,left,down,low,black_low_135_down,white_low_45_down,2,right,0.1485931,0,120,3,3.2.2021,120.1901408
95,"['high', 8, 2, True]",TRUE,8,white,45,left,up,high,white_high_45_up,black_high_135_up,2,left,0.1869658,1,120,3,3.2.2021,120.1901408
96,"['high', 3, 60, False]",FALSE,3,white,135,right,down,high,white_high_135_down,black_high_45_down,60,right,3.5454172,1,120,3,3.2.2021,120.1901408
97,"['low', 64, 2, True]",TRUE,64,black,135,left,up,low,black_low_135_up,white_low_45_up,2,left,0.5319727,1,120,3,3.2.2021,120.1901408
98,"['high', 2, 2, True]",TRUE,2,black,45,right,up,high,black_high_45_up,white_high_135_up,2,left,0.3892742,0,120,3,3.2.2021,120.1901408
99,"['high', 4, 2, True]",TRUE,4,black,135,left,down,high,black_high_135_down,white_high_45_down,2,left,0.5518631,1,120,3,3.2.2021,120.1901408
100,"['low', 1, 2, False]",FALSE,1,black,45,right,down,low,black_low_45_down,white_low_135_down,2,right,0.467896,1,120,3,3.2.2021,120.1901408
101,"['high', 4, 2, True]",TRUE,4,black,135,left,up,high,black_high_135_up,white_high_45_up,2,left,0.846879,1,120,3,3.2.2021,120.1901408
102,"['high', 4, 2, True]",TRUE,4,white,45,left,down,high,white_high_45_down,black_high_135_down,2,right,0.2770557,0,120,3,3.2.2021,120.1901408
103,"['low', 4, 2, True]",TRUE,4,black,45,right,up,low,black_low_45_up,white_low_135_up,2,left,0.2250862,0,120,3,3.2.2021,120.1901408
104,"['high', 16, 2, True]",TRUE,16,black,135,left,up,high,black_high_135_up,white_high_45_up,2,left,0.2706668,1,120,3,3.2.2021,120.1901408
105,"['high', 1, 2, False]",FALSE,1,black,135,left,up,high,black_high_135_up,white_high_45_up,2,left,0.3766592,1,120,3,3.2.2021,120.1901408
106,"['high', 3, 60, False]",FALSE,3,black,45,right,down,high,black_high_45_down,white_high_135_down,60,right,0.4144537,1,120,3,3.2.2021,120.1901408
107,"['high', 64, 2, True]",TRUE,64,black,45,right,up,high,black_high_45_up,white_high_135_up,2,right,0.2444154,1,120,3,3.2.2021,120.1901408
108,"['low', 1, 2, False]",FALSE,1,white,45,left,down,low,white_low_45_down,black_low_135_down,2,right,0.4124561,0,120,3,3.2.2021,120.1901408
109,"['high', 2, 2, True]",TRUE,2,white,45,left,down,high,white_high_45_down,black_high_135_down,2,right,0.1056341,0,120,3,3.2.2021,120.1901408
110,"['low', 64, 2, True]",TRUE,64,black,45,right,down,low,black_low_45_down,white_low_135_down,2,right,0.223308,1,120,3,3.2.2021,120.1901408
111,"['low', 4, 2, True]",TRUE,4,black,45,right,up,low,black_low_45_up,white_low_135_up,2,right,0.0645849,1,120,3,3.2.2021,120.1901408
112,"['high', 16, 2, True]",TRUE,16,black,135,left,up,high,black_high_135_up,white_high_45_up,2,left,0.1707671,1,120,3,3.2.2021,120.1901408
113,"['low', 8, 2, True]",TRUE,8,black,135,left,down,low,black_low_135_down,white_low_45_down,2,left,0.0448087,1,120,3,3.2.2021,120.1901408
114,"['high', 64, 2, True]",TRUE,64,black,135,left,up,high,black_high_135_up,white_high_45_up,2,left,0.0596371,1,120,3,3.2.2021,120.1901408
115,"['low', 4, 2, True]",TRUE,4,black,135,left,down,low,black_low_135_down,white_low_45_down,2,left,0.1168843,1,120,3,3.2.2021,120.1901408
116,"['low', 3, 2, True]",TRUE,3,black,45,right,up,low,black_low_45_up,white_low_135_up,2,right,0.2094805,1,120,3,3.2.2021,120.1901408
117,"['high', 8, 2, True]",TRUE,8,black,135,left,up,high,black_high_135_up,white_high_45_up,2,left,0.0825752,1,120,3,3.2.2021,120.1901408
118,"['low', 64, 2, True]",TRUE,64,white,45,left,up,low,white_low_45_up,black_low_135_up,2,left,0.0961264,1,120,3,3.2.2021,120.1901408
119,"['low', 1, 2, True]",TRUE,1,black,135,left,up,low,black_low_135_up,white_low_45_up,2,right,0.2493804,0,120,3,3.2.2021,120.1901408
120,"['low', 16, 2, True]",TRUE,16,black,45,right,up,low,black_low_45_up,white_low_135_up,2,right,0.0518655,1,120,3,3.2.2021,120.1901408
121,"['high', 4, 2, True]",TRUE,4,black,135,left,down,high,black_high_135_down,white_high_45_down,2,right,0.0261068,0,120,3,3.2.2021,120.1901408
122,"['low', 32, 2, True]",TRUE,32,white,135,right,up,low,white_low_135_up,black_low_45_up,2,right,0.0757069,1,120,3,3.2.2021,120.1901408
123,"['high', 1, 2, False]",FALSE,1,white,135,right,down,high,white_high_135_down,black_high_45_down,2,right,0.7582404,1,120,3,3.2.2021,120.1901408
124,"['high', 8, 2, True]",TRUE,8,black,135,left,up,high,black_high_135_up,white_high_45_up,2,left,0.5056804,1,120,3,3.2.2021,120.1901408
125,"['low', 1, 2, True]",TRUE,1,black,45,right,down,low,black_low_45_down,white_low_135_down,2,right,0.2603279,1,120,3,3.2.2021,120.1901408
126,"['high', 1, 2, False]",FALSE,1,black,45,right,up,high,black_high_45_up,white_high_135_up,2,left,0.5216565,0,120,3,3.2.2021,120.1901408
127,"['low', 64, 2, True]",TRUE,64,black,45,right,up,low,black_low_45_up,white_low_135_up,2,right,0.0322617,1,120,3,3.2.2021,120.1901408
128,"['high', 1, 2, False]",FALSE,1,white,45,left,up,high,white_high_45_up,black_high_135_up,2,right,1.2363907,0,120,3,3.2.2021,120.1901408
129,"['high', 3, 2, True]",TRUE,3,black,135,left,up,high,black_high_135_up,white_high_45_up,2,right,0.6791141,0,120,3,3.2.2021,120.1901408
130,"['high', 16, 2, True]",TRUE,16,white,45,left,down,high,white_high_45_down,black_high_135_down,2,left,0.1011876,1,120,3,3.2.2021,120.1901408
131,"['high', 32, 2, True]",TRUE,32,white,45,left,up,high,white_high_45_up,black_high_135_up,2,left,0.1332418,1,120,3,3.2.2021,120.1901408
132,"['low', 1, 2, True]",TRUE,1,white,135,right,up,low,white_low_135_up,black_low_45_up,2,right,0.5061582,1,120,3,3.2.2021,120.1901408
133,"['high', 4, 2, True]",TRUE,4,black,135,left,up,high,black_high_135_up,white_high_45_up,2,left,0.5995659,1,120,3,3.2.2021,120.1901408
134,"['high', 1, 2, False]",FALSE,1,black,45,right,down,high,black_high_45_down,white_high_135_down,2,left,0.5571946,0,120,3,3.2.2021,120.1901408
135,"['high', 16, 2, True]",TRUE,16,black,135,left,up,high,black_high_135_up,white_high_45_up,2,left,0.3633512,1,120,3,3.2.2021,120.1901408
136,"['high', 3, 2, True]",TRUE,3,white,45,left,up,high,white_high_45_up,black_high_135_up,2,left,0.2085995,1,120,3,3.2.2021,120.1901408
137,"['high', 3, 2, True]",TRUE,3,black,45,right,up,high,black_high_45_up,white_high_135_up,2,left,0.0817572,0,120,3,3.2.2021,120.1901408
138,"['high', 8, 2, True]",TRUE,8,white,45,left,up,high,white_high_45_up,black_high_135_up,2,left,0.4766398,1,120,3,3.2.2021,120.1901408
139,"['high', 4, 2, True]",TRUE,4,black,135,left,up,high,black_high_135_up,white_high_45_up,2,left,0.1389204,1,120,3,3.2.2021,120.1901408
140,"['low', 64, 2, True]",TRUE,64,black,135,left,down,low,black_low_135_down,white_low_45_down,2,left,0.454739,1,120,3,3.2.2021,120.1901408
141,"['high', 2, 2, True]",TRUE,2,white,45,left,down,high,white_high_45_down,black_high_135_down,2,left,0.1377555,1,120,3,3.2.2021,120.1901408
142,"['low', 1, 2, False]",FALSE,1,black,45,right,up,low,black_low_45_up,white_low_135_up,2,right,0.474483,1,120,3,3.2.2021,120.1901408
143,"['low', 3, 2, True]",TRUE,3,black,135,left,up,low,black_low_135_up,white_low_45_up,2,right,0.1616497,0,120,3,3.2.2021,120.1901408
144,"['low', 2, 2, True]",TRUE,2,black,135,left,down,low,black_low_135_down,white_low_45_down,2,right,0.1345681,0,120,3,3.2.2021,120.1901408
145,"['low', 16, 2, True]",TRUE,16,white,135,right,up,low,white_low_135_up,black_low_45_up,2,right,0.1728084,1,120,3,3.2.2021,120.1901408
146,"['low', 64, 2, True]",TRUE,64,white,135,right,down,low,white_low_135_down,black_low_45_down,2,right,0.0151061,1,120,3,3.2.2021,120.1901408
147,"['low', 4, 2, True]",TRUE,4,black,135,left,up,low,black_low_135_up,white_low_45_up,2,right,0.065012,0,120,3,3.2.2021,120.1901408
148,"['high', 16, 2, True]",TRUE,16,black,135,left,down,high,black_high_135_down,white_high_45_down,2,left,0.015115,1,120,3,3.2.2021,120.1901408
149,"['low', 8, 2, True]",TRUE,8,white,135,right,down,low,white_low_135_down,black_low_45_down,2,right,0.3675135,1,120,3,3.2.2021,120.1901408
150,"['low', 3, 2, True]",TRUE,3,white,45,left,down,low,white_low_45_down,black_low_135_down,2,left,0.2011051,1,120,3,3.2.2021,120.1901408
151,"['low', 16, 2, True]",TRUE,16,white,45,left,up,low,white_low_45_up,black_low_135_up,2,left,0.7126898,1,120,3,3.2.2021,120.1901408
152,"['high', 3, 2, True]",TRUE,3,black,45,right,up,high,black_high_45_up,white_high_135_up,2,left,0.2004869,0,120,3,3.2.2021,120.1901408
153,"['high', 32, 2, True]",TRUE,32,black,45,right,down,high,black_high_45_down,white_high_135_down,2,right,0.3407567,1,120,3,3.2.2021,120.1901408
154,"['low', 8, 2, True]",TRUE,8,white,135,right,down,low,white_low_135_down,black_low_45_down,2,right,0.1755402,1,120,3,3.2.2021,120.1901408
155,"['high', 16, 2, True]",TRUE,16,white,45,left,up,high,white_high_45_up,black_high_135_up,2,left,0.1180909,1,120,3,3.2.2021,120.1901408
156,"['low', 1, 2, False]",FALSE,1,white,45,left,up,low,white_low_45_up,black_low_135_up,2,left,0.2856201,1,120,3,3.2.2021,120.1901408
157,"['low', 4, 2, True]",TRUE,4,black,45,right,down,low,black_low_45_down,white_low_135_down,2,right,0.3234403,1,120,3,3.2.2021,120.1901408
158,"['high', 64, 2, True]",TRUE,64,white,45,left,up,high,white_high_45_up,black_high_135_up,2,right,0.1060652,0,120,3,3.2.2021,120.1901408
159,"['low', 8, 2, True]",TRUE,8,white,135,right,up,low,white_low_135_up,black_low_45_up,2,right,0.2460143,1,120,3,3.2.2021,120.1901408
160,"['low', 3, 2, True]",TRUE,3,white,135,right,up,low,white_low_135_up,black_low_45_up,2,right,0.1428307,1,120,3,3.2.2021,120.1901408
161,"['low', 2, 2, True]",TRUE,2,white,45,left,down,low,white_low_45_down,black_low_135_down,2,left,0.1097361,1,120,3,3.2.2021,120.1901408
162,"['high', 3, 60, False]",FALSE,3,black,45,right,down,high,black_high_45_down,white_high_135_down,60,right,0.4178537,1,120,3,3.2.2021,120.1901408
163,"['low', 32, 2, True]",TRUE,32,white,135,right,down,low,white_low_135_down,black_low_45_down,2,right,0.2110856,1,120,3,3.2.2021,120.1901408
164,"['high', 3, 60, False]",FALSE,3,white,45,left,up,high,white_high_45_up,black_high_135_up,60,left,0.2509655,1,120,3,3.2.2021,120.1901408
165,"['low', 4, 2, True]",TRUE,4,white,135,right,down,low,white_low_135_down,black_low_45_down,2,right,0.2682125,1,120,3,3.2.2021,120.1901408
166,"['low', 16, 2, True]",TRUE,16,white,45,left,down,low,white_low_45_down,black_low_135_down,2,left,0.1445188,1,120,3,3.2.2021,120.1901408
167,"['low', 64, 2, True]",TRUE,64,white,45,left,down,low,white_low_45_down,black_low_135_down,2,left,0.3624486,1,120,3,3.2.2021,120.1901408
168,"['low', 2, 2, True]",TRUE,2,white,45,left,up,low,white_low_45_up,black_low_135_up,2,left,0.5975522,1,120,3,3.2.2021,120.1901408
169,"['low', 64, 2, True]",TRUE,64,white,45,left,up,low,white_low_45_up,black_low_135_up,2,left,2.6532104,1,120,3,3.2.2021,120.1901408
170,"['low', 3, 2, True]",TRUE,3,white,45,left,down,low,white_low_45_down,black_low_135_down,2,right,0.4916466,0,120,3,3.2.2021,120.1901408
171,"['low', 1, 2, False]",FALSE,1,black,135,left,down,low,black_low_135_down,white_low_45_down,2,left,0.4684557,1,120,3,3.2.2021,120.1901408
172,"['low', 4, 2, True]",TRUE,4,black,135,left,down,low,black_low_135_down,white_low_45_down,2,right,1.0268609,0,120,3,3.2.2021,120.1901408
173,"['low', 3, 2, True]",TRUE,3,white,45,left,down,low,white_low_45_down,black_low_135_down,2,right,1.4473873,0,120,3,3.2.2021,120.1901408
174,"['high', 4, 2, True]",TRUE,4,white,135,right,down,high,white_high_135_down,black_high_45_down,2,right,0.4571222,1,120,3,3.2.2021,120.1901408
175,"['low', 1, 2, True]",TRUE,1,white,45,left,up,low,white_low_45_up,black_low_135_up,2,left,0.3517513,1,120,3,3.2.2021,120.1901408
176,"['high', 8, 2, True]",TRUE,8,black,45,right,up,high,black_high_45_up,white_high_135_up,2,right,0.4289935,1,120,3,3.2.2021,120.1901408
177,"['low', 8, 2, True]",TRUE,8,black,135,left,up,low,black_low_135_up,white_low_45_up,2,left,0.2346236,1,120,3,3.2.2021,120.1901408
178,"['high', 3, 2, True]",TRUE,3,white,135,right,up,high,white_high_135_up,black_high_45_up,2,right,0.2621894,1,120,3,3.2.2021,120.1901408
179,"['low', 16, 2, True]",TRUE,16,black,45,right,down,low,black_low_45_down,white_low_135_down,2,right,0.0325829,1,120,3,3.2.2021,120.1901408
180,"['low', 2, 2, True]",TRUE,2,white,45,left,up,low,white_low_45_up,black_low_135_up,2,right,0.1998045,0,120,3,3.2.2021,120.1901408
181,"['low', 1, 2, False]",FALSE,1,white,135,right,up,low,white_low_135_up,black_low_45_up,2,right,0.3449802,1,120,3,3.2.2021,120.1901408
182,"['low', 1, 2, False]",FALSE,1,white,135,right,up,low,white_low_135_up,black_low_45_up,2,right,0.3127064,1,120,3,3.2.2021,120.1901408
183,"['high', 3, 60, False]",FALSE,3,white,45,left,up,high,white_high_45_up,black_high_135_up,60,left,0.2466246,1,120,3,3.2.2021,120.1901408
184,"['high', 4, 2, True]",TRUE,4,black,45,right,down,high,black_high_45_down,white_high_135_down,2,left,0.5605392,0,120,3,3.2.2021,120.1901408
185,"['high', 1, 2, True]",TRUE,1,black,135,left,down,high,black_high_135_down,white_high_45_down,2,right,0.54971,0,120,3,3.2.2021,120.1901408
186,"['high', 16, 2, True]",TRUE,16,white,135,right,down,high,white_high_135_down,black_high_45_down,2,right,0.137165,1,120,3,3.2.2021,120.1901408
187,"['high', 1, 2, False]",FALSE,1,white,135,right,down,high,white_high_135_down,black_high_45_down,2,right,0.4986145,1,120,3,3.2.2021,120.1901408
188,"['high', 3, 2, True]",TRUE,3,white,45,left,down,high,white_high_45_down,black_high_135_down,2,right,0.1299929,0,120,3,3.2.2021,120.1901408
189,"['low', 32, 2, True]",TRUE,32,black,45,right,down,low,black_low_45_down,white_low_135_down,2,right,0.4791945,1,120,3,3.2.2021,120.1901408
190,"['low', 2, 2, True]",TRUE,2,white,135,right,down,low,white_low_135_down,black_low_45_down,2,right,0.3757052,1,120,3,3.2.2021,120.1901408
191,"['high', 3, 60, False]",FALSE,3,white,135,right,down,high,white_high_135_down,black_high_45_down,60,right,0.2077409,1,120,3,3.2.2021,120.1901408
192,"['high', 1, 2, False]",FALSE,1,white,45,left,down,high,white_high_45_down,black_high_135_down,2,left,1.0014264,1,120,3,3.2.2021,120.1901408
193,"['low', 16, 2, True]",TRUE,16,black,135,left,up,low,black_low_135_up,white_low_45_up,2,left,0.1752792,1,120,3,3.2.2021,120.1901408
194,"['low', 4, 2, True]",TRUE,4,black,135,left,down,low,black_low_135_down,white_low_45_down,2,left,0.1166269,1,120,3,3.2.2021,120.1901408
195,"['low', 16, 2, True]",TRUE,16,white,45,left,up,low,white_low_45_up,black_low_135_up,2,left,0.4548281,1,120,3,3.2.2021,120.1901408
196,"['low', 16, 2, True]",TRUE,16,black,45,right,up,low,black_low_45_up,white_low_135_up,2,right,0.2417691,1,120,3,3.2.2021,120.1901408
197,"['low', 2, 2, True]",TRUE,2,black,45,right,up,low,black_low_45_up,white_low_135_up,2,right,0.1870792,1,120,3,3.2.2021,120.1901408
198,"['low', 64, 2, True]",TRUE,64,black,135,left,up,low,black_low_135_up,white_low_45_up,2,left,0.2008455,1,120,3,3.2.2021,120.1901408
199,"['high', 32, 2, True]",TRUE,32,black,45,right,up,high,black_high_45_up,white_high_135_up,2,right,0.0181785,1,120,3,3.2.2021,120.1901408
200,"['high', 3, 60, False]",FALSE,3,white,135,right,down,high,white_high_135_down,black_high_45_down,60,right,0.3052384,1,120,3,3.2.2021,120.1901408
201,"['high', 32, 2, True]",TRUE,32,black,45,right,up,high,black_high_45_up,white_high_135_up,2,right,2.6385406,1,120,3,3.2.2021,120.1901408
202,"['low', 3, 2, True]",TRUE,3,black,135,left,up,low,black_low_135_up,white_low_45_up,2,left,0.7768214,1,120,3,3.2.2021,120.1901408
203,"['low', 64, 2, True]",TRUE,64,white,135,right,up,low,white_low_135_up,black_low_45_up,2,right,0.2778506,1,120,3,3.2.2021,120.1901408
204,"['high', 1, 2, False]",FALSE,1,black,135,left,down,high,black_high_135_down,white_high_45_down,2,left,0.8378785,1,120,3,3.2.2021,120.1901408
205,"['low', 1, 2, True]",TRUE,1,white,135,right,up,low,white_low_135_up,black_low_45_up,2,right,0.2743851,1,120,3,3.2.2021,120.1901408
206,"['high', 1, 2, True]",TRUE,1,white,45,left,up,high,white_high_45_up,black_high_135_up,2,left,0.3303639,1,120,3,3.2.2021,120.1901408
207,"['high', 16, 2, True]",TRUE,16,white,45,left,down,high,white_high_45_down,black_high_135_down,2,left,0.4578943,1,120,3,3.2.2021,120.1901408
208,"['high', 1, 2, True]",TRUE,1,black,45,right,down,high,black_high_45_down,white_high_135_down,2,right,0.1308141,1,120,3,3.2.2021,120.1901408
209,"['high', 4, 2, True]",TRUE,4,white,45,left,down,high,white_high_45_down,black_high_135_down,2,left,0.0899819,1,120,3,3.2.2021,120.1901408
210,"['low', 2, 2, True]",TRUE,2,black,135,left,down,low,black_low_135_down,white_low_45_down,2,left,0.0574299,1,120,3,3.2.2021,120.1901408
211,"['low', 2, 2, True]",TRUE,2,black,135,left,up,low,black_low_135_up,white_low_45_up,2,left,0.4353983,1,120,3,3.2.2021,120.1901408
212,"['low', 3, 2, True]",TRUE,3,black,45,right,down,low,black_low_45_down,white_low_135_down,2,right,0.5820046,1,120,3,3.2.2021,120.1901408
213,"['low', 4, 2, True]",TRUE,4,black,45,right,up,low,black_low_45_up,white_low_135_up,2,right,0.3607975,1,120,3,3.2.2021,120.1901408
214,"['high', 3, 60, False]",FALSE,3,white,135,right,up,high,white_high_135_up,black_high_45_up,60,right,0.3309914,1,120,3,3.2.2021,120.1901408
215,"['low', 2, 2, True]",TRUE,2,white,135,right,down,low,white_low_135_down,black_low_45_down,2,right,0.6110342,1,120,3,3.2.2021,120.1901408
216,"['low', 1, 2, False]",FALSE,1,black,45,right,up,low,black_low_45_up,white_low_135_up,2,right,0.6467364,1,120,3,3.2.2021,120.1901408
217,"['low', 3, 2, True]",TRUE,3,white,135,right,down,low,white_low_135_down,black_low_45_down,2,right,0.266839,1,120,3,3.2.2021,120.1901408
218,"['high', 1, 2, True]",TRUE,1,black,135,left,down,high,black_high_135_down,white_high_45_down,2,right,0.3095581,0,120,3,3.2.2021,120.1901408
219,"['high', 1, 2, False]",FALSE,1,white,135,right,down,high,white_high_135_down,black_high_45_down,2,right,0.3947986,1,120,3,3.2.2021,120.1901408
220,"['low', 32, 2, True]",TRUE,32,black,45,right,down,low,black_low_45_down,white_low_135_down,2,right,0.4226607,1,120,3,3.2.2021,120.1901408
221,"['high', 64, 2, True]",TRUE,64,black,135,left,down,high,black_high_135_down,white_high_45_down,2,left,0.389714,1,120,3,3.2.2021,120.1901408
222,"['high', 8, 2, True]",TRUE,8,white,45,left,down,high,white_high_45_down,black_high_135_down,2,left,0.4043638,1,120,3,3.2.2021,120.1901408
223,"['low', 32, 2, True]",TRUE,32,white,135,right,up,low,white_low_135_up,black_low_45_up,2,right,0.410814,1,120,3,3.2.2021,120.1901408
224,"['high', 3, 60, False]",FALSE,3,black,45,right,down,high,black_high_45_down,white_high_135_down,60,right,0.373643,1,120,3,3.2.2021,120.1901408
225,"['high', 2, 2, True]",TRUE,2,white,45,left,down,high,white_high_45_down,black_high_135_down,2,left,0.3848479,1,120,3,3.2.2021,120.1901408
226,"['high', 3, 2, True]",TRUE,3,white,45,left,down,high,white_high_45_down,black_high_135_down,2,right,0.1506212,0,120,3,3.2.2021,120.1901408
227,"['low', 2, 2, True]",TRUE,2,black,135,left,down,low,black_low_135_down,white_low_45_down,2,right,0.2305814,0,120,3,3.2.2021,120.1901408
228,"['low', 1, 2, False]",FALSE,1,black,45,right,down,low,black_low_45_down,white_low_135_down,2,right,0.2853158,1,120,3,3.2.2021,120.1901408
229,"['high', 3, 2, True]",TRUE,3,white,135,right,up,high,white_high_135_up,black_high_45_up,2,right,0.0847517,1,120,3,3.2.2021,120.1901408
230,"['low', 2, 2, True]",TRUE,2,black,135,left,up,low,black_low_135_up,white_low_45_up,2,left,0.9095919,1,120,3,3.2.2021,120.1901408
231,"['low', 1, 2, False]",FALSE,1,black,135,left,down,low,black_low_135_down,white_low_45_down,2,right,0.442999,0,120,3,3.2.2021,120.1901408
232,"['high', 1, 2, True]",TRUE,1,black,135,left,down,high,black_high_135_down,white_high_45_down,2,right,0.697492,0,120,3,3.2.2021,120.1901408
233,"['high', 64, 2, True]",TRUE,64,white,45,left,down,high,white_high_45_down,black_high_135_down,2,left,0.362582,1,120,3,3.2.2021,120.1901408
234,"['low', 8, 2, True]",TRUE,8,white,135,right,down,low,white_low_135_down,black_low_45_down,2,right,0.3547048,1,120,3,3.2.2021,120.1901408
235,"['high', 2, 2, True]",TRUE,2,white,45,left,up,high,white_high_45_up,black_high_135_up,2,right,0.1163968,0,120,3,3.2.2021,120.1901408
236,"['low', 16, 2, True]",TRUE,16,white,45,left,down,low,white_low_45_down,black_low_135_down,2,left,0.3456824,1,120,3,3.2.2021,120.1901408
237,"['high', 32, 2, True]",TRUE,32,black,135,left,down,high,black_high_135_down,white_high_45_down,2,left,0.5389705,1,120,3,3.2.2021,120.1901408
238,"['high', 4, 2, True]",TRUE,4,black,45,right,up,high,black_high_45_up,white_high_135_up,2,right,0.4553853,1,120,3,3.2.2021,120.1901408
239,"['high', 8, 2, True]",TRUE,8,white,135,right,down,high,white_high_135_down,black_high_45_down,2,right,0.3404734,1,120,3,3.2.2021,120.1901408
240,"['high', 8, 2, True]",TRUE,8,black,135,left,up,high,black_high_135_up,white_high_45_up,2,left,0.3119521,1,120,3,3.2.2021,120.1901408
241,"['high', 1, 2, False]",FALSE,1,white,135,right,down,high,white_high_135_down,black_high_45_down,2,right,0.5621304,1,120,3,3.2.2021,120.1901408
242,"['low', 32, 2, True]",TRUE,32,white,45,left,down,low,white_low_45_down,black_low_135_down,2,left,0.3507661,1,120,3,3.2.2021,120.1901408
243,"['low', 64, 2, True]",TRUE,64,white,45,left,up,low,white_low_45_up,black_low_135_up,2,left,0.3784653,1,120,3,3.2.2021,120.1901408
244,"['low', 16, 2, True]",TRUE,16,white,135,right,up,low,white_low_135_up,black_low_45_up,2,right,0.4246164,1,120,3,3.2.2021,120.1901408
245,"['low', 16, 2, True]",TRUE,16,white,45,left,down,low,white_low_45_down,black_low_135_down,2,left,0.391422,1,120,3,3.2.2021,120.1901408
246,"['high', 2, 2, True]",TRUE,2,white,135,right,up,high,white_high_135_up,black_high_45_up,2,right,0.1206324,1,120,3,3.2.2021,120.1901408
247,"['low', 1, 2, True]",TRUE,1,black,135,left,up,low,black_low_135_up,white_low_45_up,2,right,0.6617662,0,120,3,3.2.2021,120.1901408
248,"['low', 1, 2, True]",TRUE,1,black,45,right,down,low,black_low_45_down,white_low_135_down,2,right,0.3023245,1,120,3,3.2.2021,120.1901408
249,"['high', 32, 2, True]",TRUE,32,white,45,left,down,high,white_high_45_down,black_high_135_down,2,left,0.3181946,1,120,3,3.2.2021,120.1901408
250,"['high', 8, 2, True]",TRUE,8,black,45,right,down,high,black_high_45_down,white_high_135_down,2,right,0.3815264,1,120,3,3.2.2021,120.1901408
251,"['high', 3, 2, True]",TRUE,3,black,135,left,down,high,black_high_135_down,white_high_45_down,2,right,0.1028277,0,120,3,3.2.2021,120.1901408
252,"['high', 16, 2, True]",TRUE,16,white,135,right,up,high,white_high_135_up,black_high_45_up,2,right,0.1291505,1,120,3,3.2.2021,120.1901408
253,"['low', 16, 2, True]",TRUE,16,white,45,left,down,low,white_low_45_down,black_low_135_down,2,left,0.1249262,1,120,3,3.2.2021,120.1901408
254,"['high', 4, 2, True]",TRUE,4,black,45,right,down,high,black_high_45_down,white_high_135_down,2,right,0.1182951,1,120,3,3.2.2021,120.1901408
255,"['high', 64, 2, True]",TRUE,64,black,135,left,up,high,black_high_135_up,white_high_45_up,2,left,0.4791146,1,120,3,3.2.2021,120.1901408
256,"['low', 8, 2, True]",TRUE,8,black,45,right,up,low,black_low_45_up,white_low_135_up,2,right,0.351546,1,120,3,3.2.2021,120.1901408
257,"['low', 64, 2, True]",TRUE,64,black,135,left,up,low,black_low_135_up,white_low_45_up,2,left,0.3870449,1,120,3,3.2.2021,120.1901408
258,"['low', 8, 2, True]",TRUE,8,white,45,left,down,low,white_low_45_down,black_low_135_down,2,left,0.3927127,1,120,3,3.2.2021,120.1901408
259,"['high', 2, 2, True]",TRUE,2,black,135,left,up,high,black_high_135_up,white_high_45_up,2,right,0.2766092,0,120,3,3.2.2021,120.1901408
260,"['low', 4, 2, True]",TRUE,4,black,45,right,up,low,black_low_45_up,white_low_135_up,2,right,0.2628439,1,120,3,3.2.2021,120.1901408
261,"['high', 3, 2, True]",TRUE,3,white,45,left,up,high,white_high_45_up,black_high_135_up,2,left,0.3009424,1,120,3,3.2.2021,120.1901408
262,"['low', 1, 2, True]",TRUE,1,black,135,left,up,low,black_low_135_up,white_low_45_up,2,left,0.2945854,1,120,3,3.2.2021,120.1901408
263,"['low', 32, 2, True]",TRUE,32,white,45,left,down,low,white_low_45_down,black_low_135_down,2,left,0.418493,1,120,3,3.2.2021,120.1901408
264,"['low', 4, 2, True]",TRUE,4,black,135,left,up,low,black_low_135_up,white_low_45_up,2,left,0.0808766,1,120,3,3.2.2021,120.1901408
265,"['high', 8, 2, True]",TRUE,8,white,45,left,up,high,white_high_45_up,black_high_135_up,2,left,0.0788595,1,120,3,3.2.2021,120.1901408
266,"['high', 3, 60, False]",FALSE,3,black,135,left,up,high,black_high_135_up,white_high_45_up,60,left,0.4015688,1,120,3,3.2.2021,120.1901408
267,"['high', 4, 2, True]",TRUE,4,white,135,right,down,high,white_high_135_down,black_high_45_down,2,left,0.4925372,0,120,3,3.2.2021,120.1901408
268,"['high', 2, 2, True]",TRUE,2,white,45,left,up,high,white_high_45_up,black_high_135_up,2,right,0.322474,0,120,3,3.2.2021,120.1901408
269,"['high', 16, 2, True]",TRUE,16,white,135,right,down,high,white_high_135_down,black_high_45_down,2,right,0.30577,1,120,3,3.2.2021,120.1901408
270,"['low', 32, 2, True]",TRUE,32,black,45,right,down,low,black_low_45_down,white_low_135_down,2,right,0.2068418,1,120,3,3.2.2021,120.1901408
271,"['low', 2, 2, True]",TRUE,2,white,135,right,down,low,white_low_135_down,black_low_45_down,2,right,0.3004266,1,120,3,3.2.2021,120.1901408
272,"['low', 2, 2, True]",TRUE,2,white,135,right,up,low,white_low_135_up,black_low_45_up,2,left,0.18497,0,120,3,3.2.2021,120.1901408
273,"['high', 2, 2, True]",TRUE,2,white,135,right,up,high,white_high_135_up,black_high_45_up,2,left,0.5282375,0,120,3,3.2.2021,120.1901408
274,"['high', 2, 2, True]",TRUE,2,white,45,left,up,high,white_high_45_up,black_high_135_up,2,right,0.4012077,0,120,3,3.2.2021,120.1901408
275,"['low', 8, 2, True]",TRUE,8,white,45,left,up,low,white_low_45_up,black_low_135_up,2,left,0.1328047,1,120,3,3.2.2021,120.1901408
276,"['high', 16, 2, True]",TRUE,16,black,135,left,down,high,black_high_135_down,white_high_45_down,2,left,0.2357596,1,120,3,3.2.2021,120.1901408
277,"['high', 1, 2, False]",FALSE,1,white,135,right,down,high,white_high_135_down,black_high_45_down,2,right,0.5464882,1,120,3,3.2.2021,120.1901408
278,"['low', 64, 2, True]",TRUE,64,black,135,left,up,low,black_low_135_up,white_low_45_up,2,left,0.4539678,1,120,3,3.2.2021,120.1901408
279,"['low', 4, 2, True]",TRUE,4,black,45,right,down,low,black_low_45_down,white_low_135_down,2,right,0.5376943,1,120,3,3.2.2021,120.1901408
280,"['low', 8, 2, True]",TRUE,8,white,135,right,down,low,white_low_135_down,black_low_45_down,2,right,0.5546078,1,120,3,3.2.2021,120.1901408
281,"['high', 16, 2, True]",TRUE,16,black,45,right,up,high,black_high_45_up,white_high_135_up,2,right,0.3736709,1,120,3,3.2.2021,120.1901408
282,"['high', 16, 2, True]",TRUE,16,black,135,left,up,high,black_high_135_up,white_high_45_up,2,left,0.3776973,1,120,3,3.2.2021,120.1901408
283,"['high', 64, 2, True]",TRUE,64,white,135,right,down,high,white_high_135_down,black_high_45_down,2,right,0.1229897,1,120,3,3.2.2021,120.1901408
284,"['high', 16, 2, True]",TRUE,16,white,135,right,up,high,white_high_135_up,black_high_45_up,2,right,0.6680712,1,120,3,3.2.2021,120.1901408
285,"['low', 4, 2, True]",TRUE,4,black,135,left,up,low,black_low_135_up,white_low_45_up,2,left,0.2302171,1,120,3,3.2.2021,120.1901408
286,"['high', 2, 2, True]",TRUE,2,white,135,right,down,high,white_high_135_down,black_high_45_down,2,right,0.1632565,1,120,3,3.2.2021,120.1901408
287,"['high', 64, 2, True]",TRUE,64,black,45,right,up,high,black_high_45_up,white_high_135_up,2,right,0.3628848,1,120,3,3.2.2021,120.1901408
288,"['high', 3, 2, True]",TRUE,3,black,135,left,down,high,black_high_135_down,white_high_45_down,2,right,0.1756113,0,120,3,3.2.2021,120.1901408
289,"['high', 2, 2, True]",TRUE,2,black,45,right,down,high,black_high_45_down,white_high_135_down,2,right,0.162472,1,120,3,3.2.2021,120.1901408
290,"['high', 2, 2, True]",TRUE,2,black,45,right,down,high,black_high_45_down,white_high_135_down,2,right,0.3963719,1,120,3,3.2.2021,120.1901408
291,"['high', 32, 2, True]",TRUE,32,white,45,left,down,high,white_high_45_down,black_high_135_down,2,left,0.4082514,1,120,3,3.2.2021,120.1901408
292,"['low', 1, 2, False]",FALSE,1,black,45,right,up,low,black_low_45_up,white_low_135_up,2,left,0.4689034,0,120,3,3.2.2021,120.1901408
293,"['high', 3, 2, True]",TRUE,3,white,135,right,down,high,white_high_135_down,black_high_45_down,2,right,0.0921646,1,120,3,3.2.2021,120.1901408
294,"['high', 1, 2, False]",FALSE,1,white,45,left,up,high,white_high_45_up,black_high_135_up,2,left,0.5737339,1,120,3,3.2.2021,120.1901408
295,"['high', 3, 2, True]",TRUE,3,black,135,left,up,high,black_high_135_up,white_high_45_up,2,left,0.6147546,1,120,3,3.2.2021,120.1901408
296,"['high', 1, 2, False]",FALSE,1,black,45,right,down,high,black_high_45_down,white_high_135_down,2,right,1.5133183,1,120,3,3.2.2021,120.1901408
297,"['high', 8, 2, True]",TRUE,8,white,135,right,down,high,white_high_135_down,black_high_45_down,2,right,0.3786976,1,120,3,3.2.2021,120.1901408
298,"['low', 1, 2, False]",FALSE,1,black,135,left,down,low,black_low_135_down,white_low_45_down,2,right,0.7649476,0,120,3,3.2.2021,120.1901408
299,"['high', 2, 2, True]",TRUE,2,white,135,right,down,high,white_high_135_down,black_high_45_down,2,right,0.3979081,1,120,3,3.2.2021,120.1901408
300,"['high', 1, 2, False]",FALSE,1,white,135,right,up,high,white_high_135_up,black_high_45_up,2,right,0.6196953,1,120,3,3.2.2021,120.1901408
301,"['high', 16, 2, True]",TRUE,16,black,45,right,up,high,black_high_45_up,white_high_135_up,2,right,0.1679061,1,120,3,3.2.2021,120.1901408
302,"['low', 2, 2, True]",TRUE,2,white,135,right,down,low,white_low_135_down,black_low_45_down,2,right,0.4743211,1,120,3,3.2.2021,120.1901408
303,"['low', 32, 2, True]",TRUE,32,black,135,left,down,low,black_low_135_down,white_low_45_down,2,left,0.5684923,1,120,3,3.2.2021,120.1901408
304,"['high', 3, 60, False]",FALSE,3,black,45,right,up,high,black_high_45_up,white_high_135_up,60,right,0.3960619,1,120,3,3.2.2021,120.1901408
305,"['high', 64, 2, True]",TRUE,64,white,135,right,down,high,white_high_135_down,black_high_45_down,2,right,0.3505538,1,120,3,3.2.2021,120.1901408
306,"['high', 16, 2, True]",TRUE,16,black,135,left,up,high,black_high_135_up,white_high_45_up,2,left,0.2586518,1,120,3,3.2.2021,120.1901408
307,"['high', 1, 2, True]",TRUE,1,black,135,left,up,high,black_high_135_up,white_high_45_up,2,right,0.1713898,0,120,3,3.2.2021,120.1901408
308,"['low', 1, 2, False]",FALSE,1,black,135,left,up,low,black_low_135_up,white_low_45_up,2,left,0.4997781,1,120,3,3.2.2021,120.1901408
309,"['high', 8, 2, True]",TRUE,8,white,45,left,down,high,white_high_45_down,black_high_135_down,2,left,0.4355851,1,120,3,3.2.2021,120.1901408
310,"['high', 3, 60, False]",FALSE,3,white,45,left,down,high,white_high_45_down,black_high_135_down,60,left,6.86582,1,120,3,3.2.2021,120.1901408
311,"['low', 64, 2, True]",TRUE,64,white,135,right,down,low,white_low_135_down,black_low_45_down,2,right,0.2600636,1,120,3,3.2.2021,120.1901408
312,"['low', 2, 2, True]",TRUE,2,white,45,left,down,low,white_low_45_down,black_low_135_down,2,left,0.5031176,1,120,3,3.2.2021,120.1901408
313,"['high', 64, 2, True]",TRUE,64,white,45,left,down,high,white_high_45_down,black_high_135_down,2,right,0.3775054,0,120,3,3.2.2021,120.1901408
314,"['low', 1, 2, True]",TRUE,1,black,135,left,down,low,black_low_135_down,white_low_45_down,2,right,0.4169503,0,120,3,3.2.2021,120.1901408
315,"['high', 2, 2, True]",TRUE,2,white,135,right,up,high,white_high_135_up,black_high_45_up,2,left,0.2079859,0,120,3,3.2.2021,120.1901408
316,"['high', 3, 2, True]",TRUE,3,white,135,right,down,high,white_high_135_down,black_high_45_down,2,right,0.0710428,1,120,3,3.2.2021,120.1901408
317,"['low', 32, 2, True]",TRUE,32,black,45,right,up,low,black_low_45_up,white_low_135_up,2,right,0.4630744,1,120,3,3.2.2021,120.1901408
318,"['low', 2, 2, True]",TRUE,2,black,135,left,up,low,black_low_135_up,white_low_45_up,2,left,0.2353291,1,120,3,3.2.2021,120.1901408
319,"['low', 32, 2, True]",TRUE,32,white,135,right,down,low,white_low_135_down,black_low_45_down,2,right,0.3025284,1,120,3,3.2.2021,120.1901408
320,"['low', 3, 2, True]",TRUE,3,black,135,left,up,low,black_low_135_up,white_low_45_up,2,right,0.1351979,0,120,3,3.2.2021,120.1901408
321,"['low', 64, 2, True]",TRUE,64,black,45,right,up,low,black_low_45_up,white_low_135_up,2,right,0.2475358,1,120,3,3.2.2021,120.1901408
322,"['low', 4, 2, True]",TRUE,4,black,45,right,down,low,black_low_45_down,white_low_135_down,2,right,0.1783019,1,120,3,3.2.2021,120.1901408
323,"['low', 1, 2, True]",TRUE,1,black,45,right,up,low,black_low_45_up,white_low_135_up,2,left,0.4563177,0,120,3,3.2.2021,120.1901408
324,"['high', 4, 2, True]",TRUE,4,black,135,left,up,high,black_high_135_up,white_high_45_up,2,right,0.7785781,0,120,3,3.2.2021,120.1901408
325,"['high', 4, 2, True]",TRUE,4,white,45,left,up,high,white_high_45_up,black_high_135_up,2,right,0.0691415,0,120,3,3.2.2021,120.1901408
326,"['low', 2, 2, True]",TRUE,2,black,135,left,down,low,black_low_135_down,white_low_45_down,2,left,0.3171693,1,120,3,3.2.2021,120.1901408
327,"['low', 3, 2, True]",TRUE,3,white,135,right,up,low,white_low_135_up,black_low_45_up,2,right,0.0621271,1,120,3,3.2.2021,120.1901408
328,"['high', 64, 2, True]",TRUE,64,white,135,right,down,high,white_high_135_down,black_high_45_down,2,right,0.1235318,1,120,3,3.2.2021,120.1901408
329,"['low', 1, 2, True]",TRUE,1,white,135,right,down,low,white_low_135_down,black_low_45_down,2,right,0.261402,1,120,3,3.2.2021,120.1901408
330,"['high', 2, 2, True]",TRUE,2,black,45,right,down,high,black_high_45_down,white_high_135_down,2,left,0.1279983,0,120,3,3.2.2021,120.1901408
331,"['low', 32, 2, True]",TRUE,32,black,135,left,up,low,black_low_135_up,white_low_45_up,2,left,0.4246409,1,120,3,3.2.2021,120.1901408
332,"['high', 16, 2, True]",TRUE,16,black,135,left,up,high,black_high_135_up,white_high_45_up,2,left,0.0814111,1,120,3,3.2.2021,120.1901408
333,"['high', 1, 2, False]",FALSE,1,white,135,right,up,high,white_high_135_up,black_high_45_up,2,right,0.868461,1,120,3,3.2.2021,120.1901408
334,"['low', 16, 2, True]",TRUE,16,white,135,right,up,low,white_low_135_up,black_low_45_up,2,right,0.3585416,1,120,3,3.2.2021,120.1901408
335,"['high', 8, 2, True]",TRUE,8,black,135,left,down,high,black_high_135_down,white_high_45_down,2,left,5.9782559,1,120,3,3.2.2021,120.1901408
336,"['low', 16, 2, True]",TRUE,16,black,135,left,up,low,black_low_135_up,white_low_45_up,2,left,0.4132666,1,120,3,3.2.2021,120.1901408
337,"['high', 4, 2, True]",TRUE,4,white,45,left,up,high,white_high_45_up,black_high_135_up,2,right,0.3838603,0,120,3,3.2.2021,120.1901408
338,"['low', 32, 2, True]",TRUE,32,black,135,left,down,low,black_low_135_down,white_low_45_down,2,left,0.5835734,1,120,3,3.2.2021,120.1901408
339,"['low', 3, 2, True]",TRUE,3,white,135,right,up,low,white_low_135_up,black_low_45_up,2,right,0.1306561,1,120,3,3.2.2021,120.1901408
340,"['low', 2, 2, True]",TRUE,2,black,135,left,up,low,black_low_135_up,white_low_45_up,2,left,0.1163719,1,120,3,3.2.2021,120.1901408
341,"['high', 64, 2, True]",TRUE,64,black,135,left,down,high,black_high_135_down,white_high_45_down,2,left,0.4101316,1,120,3,3.2.2021,120.1901408
342,"['high', 1, 2, False]",FALSE,1,white,45,left,down,high,white_high_45_down,black_high_135_down,2,left,0.4762635,1,120,3,3.2.2021,120.1901408
343,"['low', 32, 2, True]",TRUE,32,black,45,right,up,low,black_low_45_up,white_low_135_up,2,right,0.3173434,1,120,3,3.2.2021,120.1901408
344,"['low', 1, 2, False]",FALSE,1,white,135,right,down,low,white_low_135_down,black_low_45_down,2,right,0.2186104,1,120,3,3.2.2021,120.1901408
345,"['high', 3, 2, True]",TRUE,3,black,135,left,up,high,black_high_135_up,white_high_45_up,2,right,0.0339606,0,120,3,3.2.2021,120.1901408
346,"['low', 1, 2, True]",TRUE,1,black,45,right,down,low,black_low_45_down,white_low_135_down,2,left,0.2026956,0,120,3,3.2.2021,120.1901408
347,"['high', 1, 2, True]",TRUE,1,black,45,right,down,high,black_high_45_down,white_high_135_down,2,left,0.2172622,0,120,3,3.2.2021,120.1901408
348,"['high', 1, 2, True]",TRUE,1,black,45,right,up,high,black_high_45_up,white_high_135_up,2,right,0.2334724,1,120,3,3.2.2021,120.1901408
349,"['low', 4, 2, True]",TRUE,4,black,45,right,down,low,black_low_45_down,white_low_135_down,2,right,0.0811264,1,120,3,3.2.2021,120.1901408
350,"['low', 64, 2, True]",TRUE,64,white,45,left,up,low,white_low_45_up,black_low_135_up,2,left,0.4149073,1,120,3,3.2.2021,120.1901408
351,"['low', 1, 2, True]",TRUE,1,white,135,right,down,low,white_low_135_down,black_low_45_down,2,right,0.269867,1,120,3,3.2.2021,120.1901408
352,"['high', 32, 2, True]",TRUE,32,white,45,left,down,high,white_high_45_down,black_high_135_down,2,left,0.2036358,1,120,3,3.2.2021,120.1901408
353,"['low', 1, 2, False]",FALSE,1,black,135,left,down,low,black_low_135_down,white_low_45_down,2,left,0.4061556,1,120,3,3.2.2021,120.1901408
354,"['high', 1, 2, False]",FALSE,1,black,45,right,up,high,black_high_45_up,white_high_135_up,2,right,0.5419431,1,120,3,3.2.2021,120.1901408
355,"['high', 32, 2, True]",TRUE,32,black,45,right,up,high,black_high_45_up,white_high_135_up,2,right,0.4256109,1,120,3,3.2.2021,120.1901408
356,"['high', 64, 2, True]",TRUE,64,black,135,left,down,high,black_high_135_down,white_high_45_down,2,left,0.193576,1,120,3,3.2.2021,120.1901408
357,"['high', 8, 2, True]",TRUE,8,white,45,left,up,high,white_high_45_up,black_high_135_up,2,left,0.1397082,1,120,3,3.2.2021,120.1901408
358,"['low', 2, 2, True]",TRUE,2,white,45,left,down,low,white_low_45_down,black_low_135_down,2,left,0.1854679,1,120,3,3.2.2021,120.1901408
359,"['high', 8, 2, True]",TRUE,8,white,45,left,up,high,white_high_45_up,black_high_135_up,2,left,0.0835927,1,120,3,3.2.2021,120.1901408
360,"['low', 16, 2, True]",TRUE,16,black,45,right,down,low,black_low_45_down,white_low_135_down,2,right,0.3437122,1,120,3,3.2.2021,120.1901408
361,"['low', 4, 2, True]",TRUE,4,black,135,left,up,low,black_low_135_up,white_low_45_up,2,left,0.1087145,1,120,3,3.2.2021,120.1901408
362,"['low', 1, 2, False]",FALSE,1,white,135,right,down,low,white_low_135_down,black_low_45_down,2,right,0.3083405,1,120,3,3.2.2021,120.1901408
363,"['low', 4, 2, True]",TRUE,4,white,135,right,up,low,white_low_135_up,black_low_45_up,2,right,0.3650167,1,120,3,3.2.2021,120.1901408
364,"['low', 2, 2, True]",TRUE,2,white,135,right,up,low,white_low_135_up,black_low_45_up,2,right,0.0749722,1,120,3,3.2.2021,120.1901408
365,"['low', 2, 2, True]",TRUE,2,black,45,right,up,low,black_low_45_up,white_low_135_up,2,right,0.4260409,1,120,3,3.2.2021,120.1901408
366,"['high', 1, 2, False]",FALSE,1,white,45,left,up,high,white_high_45_up,black_high_135_up,2,right,0.8200828,0,120,3,3.2.2021,120.1901408
367,"['low', 2, 2, True]",TRUE,2,black,135,left,up,low,black_low_135_up,white_low_45_up,2,left,0.4019676,1,120,3,3.2.2021,120.1901408
368,"['high', 4, 2, True]",TRUE,4,black,45,right,up,high,black_high_45_up,white_high_135_up,2,right,0.3413219,1,120,3,3.2.2021,120.1901408
369,"['high', 3, 2, True]",TRUE,3,black,135,left,up,high,black_high_135_up,white_high_45_up,2,left,0.1385418,1,120,3,3.2.2021,120.1901408
370,"['high', 8, 2, True]",TRUE,8,white,135,right,up,high,white_high_135_up,black_high_45_up,2,right,0.3825377,1,120,3,3.2.2021,120.1901408
371,"['high', 3, 60, False]",FALSE,3,white,45,left,down,high,white_high_45_down,black_high_135_down,60,left,0.2852098,1,120,3,3.2.2021,120.1901408
372,"['high', 1, 2, False]",FALSE,1,white,45,left,up,high,white_high_45_up,black_high_135_up,2,right,0.4448442,0,120,3,3.2.2021,120.1901408
373,"['low', 1, 2, False]",FALSE,1,white,135,right,up,low,white_low_135_up,black_low_45_up,2,right,0.3524237,1,120,3,3.2.2021,120.1901408
374,"['low', 16, 2, True]",TRUE,16,white,45,left,down,low,white_low_45_down,black_low_135_down,2,left,0.1527863,1,120,3,3.2.2021,120.1901408
375,"['high', 8, 2, True]",TRUE,8,black,135,left,up,high,black_high_135_up,white_high_45_up,2,left,0.0801391,1,120,3,3.2.2021,120.1901408
376,"['high', 1, 2, True]",TRUE,1,black,135,left,up,high,black_high_135_up,white_high_45_up,2,left,0.1979861,1,120,3,3.2.2021,120.1901408
377,"['low', 16, 2, True]",TRUE,16,black,45,right,down,low,black_low_45_down,white_low_135_down,2,right,0.1305831,1,120,3,3.2.2021,120.1901408
378,"['high', 2, 2, True]",TRUE,2,black,135,left,down,high,black_high_135_down,white_high_45_down,2,left,0.3091154,1,120,3,3.2.2021,120.1901408
379,"['high', 1, 2, True]",TRUE,1,white,135,right,up,high,white_high_135_up,black_high_45_up,2,right,0.1738268,1,120,3,3.2.2021,120.1901408
380,"['low', 4, 2, True]",TRUE,4,black,135,left,down,low,black_low_135_down,white_low_45_down,2,left,0.0747086,1,120,3,3.2.2021,120.1901408
381,"['low', 1, 2, True]",TRUE,1,black,135,left,down,low,black_low_135_down,white_low_45_down,2,right,0.1024604,0,120,3,3.2.2021,120.1901408
382,"['low', 8, 2, True]",TRUE,8,white,45,left,down,low,white_low_45_down,black_low_135_down,2,left,0.4208288,1,120,3,3.2.2021,120.1901408
383,"['high', 3, 2, True]",TRUE,3,white,45,left,down,high,white_high_45_down,black_high_135_down,2,left,0.2417938,1,120,3,3.2.2021,120.1901408
384,"['high', 16, 2, True]",TRUE,16,white,135,right,down,high,white_high_135_down,black_high_45_down,2,right,0.1233351,1,120,3,3.2.2021,120.1901408
385,"['high', 4, 2, True]",TRUE,4,white,135,right,up,high,white_high_135_up,black_high_45_up,2,right,0.2943263,1,120,3,3.2.2021,120.1901408
386,"['low', 3, 2, True]",TRUE,3,black,45,right,down,low,black_low_45_down,white_low_135_down,2,left,0.2215124,0,120,3,3.2.2021,120.1901408
387,"['low', 3, 2, True]",TRUE,3,black,45,right,up,low,black_low_45_up,white_low_135_up,2,right,0.1738168,1,120,3,3.2.2021,120.1901408
388,"['high', 4, 2, True]",TRUE,4,black,45,right,up,high,black_high_45_up,white_high_135_up,2,left,0.1034332,0,120,3,3.2.2021,120.1901408
389,"['low', 2, 2, True]",TRUE,2,black,135,left,down,low,black_low_135_down,white_low_45_down,2,right,0.0965562,0,120,3,3.2.2021,120.1901408
390,"['low', 16, 2, True]",TRUE,16,black,45,right,down,low,black_low_45_down,white_low_135_down,2,right,0.3265286,1,120,3,3.2.2021,120.1901408
391,"['low', 4, 2, True]",TRUE,4,white,135,right,down,low,white_low_135_down,black_low_45_down,2,right,0.2016563,1,120,3,3.2.2021,120.1901408
392,"['low', 1, 2, True]",TRUE,1,black,45,right,down,low,black_low_45_down,white_low_135_down,2,right,0.0551524,1,120,3,3.2.2021,120.1901408
393,"['high', 8, 2, True]",TRUE,8,black,45,right,down,high,black_high_45_down,white_high_135_down,2,right,0.1255241,1,120,3,3.2.2021,120.1901408
394,"['low', 32, 2, True]",TRUE,32,black,135,left,up,low,black_low_135_up,white_low_45_up,2,left,0.1366009,1,120,3,3.2.2021,120.1901408
395,"['low', 1, 2, True]",TRUE,1,black,45,right,down,low,black_low_45_down,white_low_135_down,2,right,0.3488186,1,120,3,3.2.2021,120.1901408
396,"['low', 1, 2, True]",TRUE,1,white,135,right,up,low,white_low_135_up,black_low_45_up,2,right,0.034854,1,120,3,3.2.2021,120.1901408
397,"['high', 3, 2, True]",TRUE,3,black,135,left,up,high,black_high_135_up,white_high_45_up,2,right,0.2127895,0,120,3,3.2.2021,120.1901408
398,"['low', 32, 2, True]",TRUE,32,white,135,right,down,low,white_low_135_down,black_low_45_down,2,right,0.1635681,1,120,3,3.2.2021,120.1901408
399,"['high', 2, 2, True]",TRUE,2,white,45,left,down,high,white_high_45_down,black_high_135_down,2,right,0.1791793,0,120,3,3.2.2021,120.1901408
400,"['low', 4, 2, True]",TRUE,4,black,135,left,up,low,black_low_135_up,white_low_45_up,2,left,1.1285923,1,120,3,3.2.2021,120.1901408
401,"['low', 32, 2, True]",TRUE,32,black,135,left,down,low,black_low_135_down,white_low_45_down,2,left,0.2359209,1,120,3,3.2.2021,120.1901408
402,"['low', 1, 2, True]",TRUE,1,white,45,left,up,low,white_low_45_up,black_low_135_up,2,right,0.3302474,0,120,3,3.2.2021,120.1901408
403,"['high', 32, 2, True]",TRUE,32,white,135,right,down,high,white_high_135_down,black_high_45_down,2,right,0.0509877,1,120,3,3.2.2021,120.1901408
404,"['low', 1, 2, True]",TRUE,1,black,45,right,up,low,black_low_45_up,white_low_135_up,2,left,0.0677376,0,120,3,3.2.2021,120.1901408
405,"['low', 16, 2, True]",TRUE,16,white,135,right,up,low,white_low_135_up,black_low_45_up,2,right,0.0597678,1,120,3,3.2.2021,120.1901408
406,"['high', 32, 2, True]",TRUE,32,white,45,left,down,high,white_high_45_down,black_high_135_down,2,left,0.0082658,1,120,3,3.2.2021,120.1901408
407,"['high', 32, 2, True]",TRUE,32,white,45,left,down,high,white_high_45_down,black_high_135_down,2,left,0.3964103,1,120,3,3.2.2021,120.1901408
408,"['low', 4, 2, True]",TRUE,4,black,45,right,down,low,black_low_45_down,white_low_135_down,2,right,0.0712948,1,120,3,3.2.2021,120.1901408
409,"['high', 1, 2, False]",FALSE,1,white,135,right,up,high,white_high_135_up,black_high_45_up,2,left,0.2494048,0,120,3,3.2.2021,120.1901408
410,"['high', 3, 2, True]",TRUE,3,black,45,right,up,high,black_high_45_up,white_high_135_up,2,left,0.4790179,0,120,3,3.2.2021,120.1901408
411,"['low', 1, 2, True]",TRUE,1,black,135,left,up,low,black_low_135_up,white_low_45_up,2,right,0.0692121,0,120,3,3.2.2021,120.1901408
412,"['low', 4, 2, True]",TRUE,4,black,135,left,down,low,black_low_135_down,white_low_45_down,2,left,0.6129168,1,120,3,3.2.2021,120.1901408
413,"['high', 3, 60, False]",FALSE,3,white,45,left,down,high,white_high_45_down,black_high_135_down,60,left,0.1967991,1,120,3,3.2.2021,120.1901408
414,"['high', 32, 2, True]",TRUE,32,black,135,left,up,high,black_high_135_up,white_high_45_up,2,left,0.1930796,1,120,3,3.2.2021,120.1901408
415,"['low', 8, 2, True]",TRUE,8,black,135,left,down,low,black_low_135_down,white_low_45_down,2,left,0.1403277,1,120,3,3.2.2021,120.1901408
416,"['low', 32, 2, True]",TRUE,32,black,45,right,down,low,black_low_45_down,white_low_135_down,2,right,0.2495914,1,120,3,3.2.2021,120.1901408
417,"['high', 8, 2, True]",TRUE,8,black,45,right,down,high,black_high_45_down,white_high_135_down,2,right,0.2352303,1,120,3,3.2.2021,120.1901408
418,"['low', 3, 2, True]",TRUE,3,white,45,left,down,low,white_low_45_down,black_low_135_down,2,right,0.3917527,0,120,3,3.2.2021,120.1901408
419,"['high', 16, 2, True]",TRUE,16,white,135,right,down,high,white_high_135_down,black_high_45_down,2,right,0.1994209,1,120,3,3.2.2021,120.1901408
420,"['high', 16, 2, True]",TRUE,16,white,135,right,down,high,white_high_135_down,black_high_45_down,2,right,0.1012113,1,120,3,3.2.2021,120.1901408
421,"['high', 3, 60, False]",FALSE,3,white,45,left,down,high,white_high_45_down,black_high_135_down,60,left,0.2251315,1,120,3,3.2.2021,120.1901408
422,"['high', 8, 2, True]",TRUE,8,white,135,right,up,high,white_high_135_up,black_high_45_up,2,right,0.0295621,1,120,3,3.2.2021,120.1901408
423,"['high', 1, 2, True]",TRUE,1,black,45,right,down,high,black_high_45_down,white_high_135_down,2,left,0.1582404,0,120,3,3.2.2021,120.1901408
424,"['low', 8, 2, True]",TRUE,8,white,135,right,up,low,white_low_135_up,black_low_45_up,2,right,0.4543202,1,120,3,3.2.2021,120.1901408
425,"['low', 8, 2, True]",TRUE,8,black,45,right,down,low,black_low_45_down,white_low_135_down,2,right,0.6028594,1,120,3,3.2.2021,120.1901408
426,"['low', 2, 2, True]",TRUE,2,black,135,left,up,low,black_low_135_up,white_low_45_up,2,right,0.7262007,0,120,3,3.2.2021,120.1901408
427,"['high', 3, 2, True]",TRUE,3,black,45,right,down,high,black_high_45_down,white_high_135_down,2,right,0.0933131,1,120,3,3.2.2021,120.1901408
428,"['high', 16, 2, True]",TRUE,16,white,45,left,up,high,white_high_45_up,black_high_135_up,2,left,0.8397008,1,120,3,3.2.2021,120.1901408
429,"['low', 2, 2, True]",TRUE,2,white,45,left,up,low,white_low_45_up,black_low_135_up,2,left,0.0904617,1,120,3,3.2.2021,120.1901408
430,"['high', 1, 2, True]",TRUE,1,black,45,right,down,high,black_high_45_down,white_high_135_down,2,right,0.0530013,1,120,3,3.2.2021,120.1901408
431,"['low', 2, 2, True]",TRUE,2,white,135,right,down,low,white_low_135_down,black_low_45_down,2,right,0.4238317,1,120,3,3.2.2021,120.1901408
432,"['low', 32, 2, True]",TRUE,32,white,45,left,down,low,white_low_45_down,black_low_135_down,2,left,2.7866464,1,120,3,3.2.2021,120.1901408
433,"['high', 64, 2, True]",TRUE,64,white,135,right,down,high,white_high_135_down,black_high_45_down,2,right,0.2290361,1,120,3,3.2.2021,120.1901408
434,"['high', 3, 2, True]",TRUE,3,white,45,left,down,high,white_high_45_down,black_high_135_down,2,left,0.5165998,1,120,3,3.2.2021,120.1901408
435,"['high', 1, 2, True]",TRUE,1,white,45,left,up,high,white_high_45_up,black_high_135_up,2,right,0.1320009,0,120,3,3.2.2021,120.1901408
436,"['high', 64, 2, True]",TRUE,64,white,135,right,down,high,white_high_135_down,black_high_45_down,2,right,0.2266695,1,120,3,3.2.2021,120.1901408
437,"['high', 1, 2, True]",TRUE,1,black,45,right,down,high,black_high_45_down,white_high_135_down,2,left,0.2040698,0,120,3,3.2.2021,120.1901408
438,"['low', 3, 2, True]",TRUE,3,black,45,right,down,low,black_low_45_down,white_low_135_down,2,right,0.0888291,1,120,3,3.2.2021,120.1901408
439,"['low', 1, 2, False]",FALSE,1,white,135,right,up,low,white_low_135_up,black_low_45_up,2,right,0.371271,1,120,3,3.2.2021,120.1901408
440,"['low', 1, 2, True]",TRUE,1,white,135,right,up,low,white_low_135_up,black_low_45_up,2,left,1.0204442,0,120,3,3.2.2021,120.1901408
441,"['high', 2, 2, True]",TRUE,2,black,135,left,up,high,black_high_135_up,white_high_45_up,2,right,0.1069784,0,120,3,3.2.2021,120.1901408
442,"['high', 32, 2, True]",TRUE,32,black,135,left,down,high,black_high_135_down,white_high_45_down,2,left,0.2928287,1,120,3,3.2.2021,120.1901408
443,"['high', 1, 2, True]",TRUE,1,white,45,left,up,high,white_high_45_up,black_high_135_up,2,left,0.3268644,1,120,3,3.2.2021,120.1901408
444,"['low', 1, 2, False]",FALSE,1,white,135,right,down,low,white_low_135_down,black_low_45_down,2,right,0.3411304,1,120,3,3.2.2021,120.1901408
445,"['high', 32, 2, True]",TRUE,32,black,45,right,up,high,black_high_45_up,white_high_135_up,2,right,0.1503979,1,120,3,3.2.2021,120.1901408
446,"['low', 1, 2, True]",TRUE,1,white,45,left,down,low,white_low_45_down,black_low_135_down,2,left,0.0918665,1,120,3,3.2.2021,120.1901408
447,"['high', 32, 2, True]",TRUE,32,black,135,left,down,high,black_high_135_down,white_high_45_down,2,left,0.1629672,1,120,3,3.2.2021,120.1901408
448,"['low', 1, 2, True]",TRUE,1,black,135,left,up,low,black_low_135_up,white_low_45_up,2,right,0.2301504,0,120,3,3.2.2021,120.1901408
449,"['low', 64, 2, True]",TRUE,64,white,135,right,down,low,white_low_135_down,black_low_45_down,2,right,0.2301321,1,120,3,3.2.2021,120.1901408
450,"['high', 3, 60, False]",FALSE,3,white,135,right,down,high,white_high_135_down,black_high_45_down,60,right,0.3303372,1,120,3,3.2.2021,120.1901408
451,"['low', 32, 2, True]",TRUE,32,white,45,left,down,low,white_low_45_down,black_low_135_down,2,left,0.2086811,1,120,3,3.2.2021,120.1901408
452,"['high', 8, 2, True]",TRUE,8,black,45,right,down,high,black_high_45_down,white_high_135_down,2,right,0.1152603,1,120,3,3.2.2021,120.1901408
453,"['high', 3, 2, True]",TRUE,3,black,45,right,up,high,black_high_45_up,white_high_135_up,2,left,0.1601766,0,120,3,3.2.2021,120.1901408
454,"['high', 3, 60, False]",FALSE,3,black,135,left,down,high,black_high_135_down,white_high_45_down,60,right,0.3366163,0,120,3,3.2.2021,120.1901408
455,"['high', 1, 2, False]",FALSE,1,black,135,left,up,high,black_high_135_up,white_high_45_up,2,right,0.9903848,0,120,3,3.2.2021,120.1901408
456,"['high', 1, 2, True]",TRUE,1,white,45,left,up,high,white_high_45_up,black_high_135_up,2,right,1.1727791,0,120,3,3.2.2021,120.1901408
457,"['low', 1, 2, False]",FALSE,1,white,135,right,up,low,white_low_135_up,black_low_45_up,2,right,0.4347649,1,120,3,3.2.2021,120.1901408
458,"['high', 16, 2, True]",TRUE,16,black,45,right,up,high,black_high_45_up,white_high_135_up,2,right,0.1744769,1,120,3,3.2.2021,120.1901408
459,"['high', 1, 2, True]",TRUE,1,white,45,left,down,high,white_high_45_down,black_high_135_down,2,left,0.1507579,1,120,3,3.2.2021,120.1901408
460,"['low', 1, 2, False]",FALSE,1,white,45,left,up,low,white_low_45_up,black_low_135_up,2,right,0.6897376,0,120,3,3.2.2021,120.1901408
461,"['low', 8, 2, True]",TRUE,8,white,45,left,down,low,white_low_45_down,black_low_135_down,2,left,0.2513406,1,120,3,3.2.2021,120.1901408
462,"['high', 1, 2, True]",TRUE,1,white,135,right,down,high,white_high_135_down,black_high_45_down,2,left,0.2275933,0,120,3,3.2.2021,120.1901408
463,"['low', 8, 2, True]",TRUE,8,white,135,right,down,low,white_low_135_down,black_low_45_down,2,right,0.2384743,1,120,3,3.2.2021,120.1901408
464,"['high', 1, 2, False]",FALSE,1,white,45,left,down,high,white_high_45_down,black_high_135_down,2,left,0.8943429,1,120,3,3.2.2021,120.1901408
465,"['high', 3, 2, True]",TRUE,3,white,135,right,up,high,white_high_135_up,black_high_45_up,2,left,0.2895725,0,120,3,3.2.2021,120.1901408
466,"['low', 64, 2, True]",TRUE,64,white,135,right,down,low,white_low_135_down,black_low_45_down,2,right,3.6735594,1,120,3,3.2.2021,120.1901408
467,"['low', 2, 2, True]",TRUE,2,black,135,left,up,low,black_low_135_up,white_low_45_up,2,right,0.3312828,0,120,3,3.2.2021,120.1901408
468,"['low', 8, 2, True]",TRUE,8,black,45,right,up,low,black_low_45_up,white_low_135_up,2,right,0.3306254,1,120,3,3.2.2021,120.1901408
469,"['high', 1, 2, False]",FALSE,1,black,135,left,up,high,black_high_135_up,white_high_45_up,2,right,0.4531802,0,120,3,3.2.2021,120.1901408
470,"['high', 16, 2, True]",TRUE,16,black,45,right,up,high,black_high_45_up,white_high_135_up,2,right,0.3511079,1,120,3,3.2.2021,120.1901408
471,"['high', 4, 2, True]",TRUE,4,black,45,right,up,high,black_high_45_up,white_high_135_up,2,right,0.018242,1,120,3,3.2.2021,120.1901408
472,"['high', 8, 2, True]",TRUE,8,white,135,right,up,high,white_high_135_up,black_high_45_up,2,right,0.1491503,1,120,3,3.2.2021,120.1901408
473,"['low', 64, 2, True]",TRUE,64,white,45,left,down,low,white_low_45_down,black_low_135_down,2,left,0.1830172,1,120,3,3.2.2021,120.1901408
474,"['low', 8, 2, True]",TRUE,8,white,45,left,down,low,white_low_45_down,black_low_135_down,2,left,0.1527428,1,120,3,3.2.2021,120.1901408
475,"['low', 3, 2, True]",TRUE,3,white,135,right,down,low,white_low_135_down,black_low_45_down,2,right,0.4037433,1,120,3,3.2.2021,120.1901408
476,"['low', 1, 2, False]",FALSE,1,black,135,left,up,low,black_low_135_up,white_low_45_up,2,left,0.3685141,1,120,3,3.2.2021,120.1901408
477,"['high', 32, 2, True]",TRUE,32,black,45,right,up,high,black_high_45_up,white_high_135_up,2,right,1.140671,1,120,3,3.2.2021,120.1901408
478,"['high', 4, 2, True]",TRUE,4,white,135,right,up,high,white_high_135_up,black_high_45_up,2,left,0.699952,0,120,3,3.2.2021,120.1901408
479,"['low', 16, 2, True]",TRUE,16,black,45,right,up,low,black_low_45_up,white_low_135_up,2,right,0.3365279,1,120,3,3.2.2021,120.1901408
480,"['high', 16, 2, True]",TRUE,16,white,45,left,up,high,white_high_45_up,black_high_135_up,2,left,0.291905,1,120,3,3.2.2021,120.1901408
481,"['high', 1, 2, False]",FALSE,1,white,45,left,up,high,white_high_45_up,black_high_135_up,2,left,0.4145398,1,120,3,3.2.2021,120.1901408
482,"['high', 64, 2, True]",TRUE,64,white,45,left,up,high,white_high_45_up,black_high_135_up,2,left,0.1112767,1,120,3,3.2.2021,120.1901408
483,"['low', 16, 2, True]",TRUE,16,white,45,left,up,low,white_low_45_up,black_low_135_up,2,left,0.3695172,1,120,3,3.2.2021,120.1901408
484,"['high', 4, 2, True]",TRUE,4,white,45,left,down,high,white_high_45_down,black_high_135_down,2,right,0.2210977,0,120,3,3.2.2021,120.1901408
485,"['high', 8, 2, True]",TRUE,8,black,45,right,up,high,black_high_45_up,white_high_135_up,2,right,0.0885615,1,120,3,3.2.2021,120.1901408
486,"['low', 2, 2, True]",TRUE,2,white,135,right,down,low,white_low_135_down,black_low_45_down,2,right,0.2663389,1,120,3,3.2.2021,120.1901408
487,"['high', 32, 2, True]",TRUE,32,black,135,left,up,high,black_high_135_up,white_high_45_up,2,left,0.1259256,1,120,3,3.2.2021,120.1901408
488,"['high', 3, 2, True]",TRUE,3,black,135,left,down,high,black_high_135_down,white_high_45_down,2,right,1.2737116,0,120,3,3.2.2021,120.1901408
489,"['high', 16, 2, True]",TRUE,16,white,135,right,up,high,white_high_135_up,black_high_45_up,2,right,0.2252712,1,120,3,3.2.2021,120.1901408
490,"['high', 3, 60, False]",FALSE,3,black,135,left,up,high,black_high_135_up,white_high_45_up,60,left,0.1569546,1,120,3,3.2.2021,120.1901408
491,"['low', 32, 2, True]",TRUE,32,black,135,left,up,low,black_low_135_up,white_low_45_up,2,left,0.082095,1,120,3,3.2.2021,120.1901408
492,"['low', 1, 2, True]",TRUE,1,white,45,left,down,low,white_low_45_down,black_low_135_down,2,left,0.5141378,1,120,3,3.2.2021,120.1901408
493,"['high', 3, 60, False]",FALSE,3,white,45,left,up,high,white_high_45_up,black_high_135_up,60,left,0.4984227,1,120,3,3.2.2021,120.1901408
494,"['low', 1, 2, True]",TRUE,1,black,135,left,down,low,black_low_135_down,white_low_45_down,2,right,0.5933983,0,120,3,3.2.2021,120.1901408
495,"['low', 4, 2, True]",TRUE,4,black,135,left,down,low,black_low_135_down,white_low_45_down,2,left,0.1392883,1,120,3,3.2.2021,120.1901408
496,"['low', 2, 2, True]",TRUE,2,white,135,right,down,low,white_low_135_down,black_low_45_down,2,right,0.8534274,1,120,3,3.2.2021,120.1901408
497,"['high', 64, 2, True]",TRUE,64,black,45,right,down,high,black_high_45_down,white_high_135_down,2,right,0.3993818,1,120,3,3.2.2021,120.1901408
498,"['low', 8, 2, True]",TRUE,8,white,135,right,down,low,white_low_135_down,black_low_45_down,2,right,0.3177079,1,120,3,3.2.2021,120.1901408
499,"['low', 1, 2, False]",FALSE,1,white,45,left,up,low,white_low_45_up,black_low_135_up,2,left,0.5680533,1,120,3,3.2.2021,120.1901408
500,"['high', 3, 60, False]",FALSE,3,black,45,right,up,high,black_high_45_up,white_high_135_up,60,right,0.4982202,1,120,3,3.2.2021,120.1901408
501,"['high', 32, 2, True]",TRUE,32,white,45,left,up,high,white_high_45_up,black_high_135_up,2,left,0.4380415,1,120,3,3.2.2021,120.1901408
502,"['low', 4, 2, True]",TRUE,4,white,45,left,down,low,white_low_45_down,black_low_135_down,2,right,0.11641,0,120,3,3.2.2021,120.1901408
503,"['low', 8, 2, True]",TRUE,8,black,135,left,down,low,black_low_135_down,white_low_45_down,2,left,0.3096062,1,120,3,3.2.2021,120.1901408
504,"['low', 1, 2, True]",TRUE,1,white,135,right,up,low,white_low_135_up,black_low_45_up,2,right,0.3504792,1,120,3,3.2.2021,120.1901408
505,"['low', 4, 2, True]",TRUE,4,white,135,right,down,low,white_low_135_down,black_low_45_down,2,right,0.184998,1,120,3,3.2.2021,120.1901408
506,"['low', 8, 2, True]",TRUE,8,black,45,right,down,low,black_low_45_down,white_low_135_down,2,right,0.2744511,1,120,3,3.2.2021,120.1901408
507,"['low', 4, 2, True]",TRUE,4,white,45,left,down,low,white_low_45_down,black_low_135_down,2,left,0.2860456,1,120,3,3.2.2021,120.1901408
508,"['low', 32, 2, True]",TRUE,32,white,45,left,down,low,white_low_45_down,black_low_135_down,2,left,0.3226334,1,120,3,3.2.2021,120.1901408
509,"['high', 1, 2, False]",FALSE,1,black,45,right,up,high,black_high_45_up,white_high_135_up,2,right,0.6219568,1,120,3,3.2.2021,120.1901408
510,"['high', 32, 2, True]",TRUE,32,black,45,right,up,high,black_high_45_up,white_high_135_up,2,right,0.4983212,1,120,3,3.2.2021,120.1901408
511,"['low', 3, 2, True]",TRUE,3,black,135,left,down,low,black_low_135_down,white_low_45_down,2,right,0.2059564,0,120,3,3.2.2021,120.1901408
512,"['high', 4, 2, True]",TRUE,4,white,45,left,up,high,white_high_45_up,black_high_135_up,2,right,0.0925803,0,120,3,3.2.2021,120.1901408
513,"['low', 16, 2, True]",TRUE,16,white,135,right,down,low,white_low_135_down,black_low_45_down,2,right,0.2618851,1,120,3,3.2.2021,120.1901408
514,"['high', 2, 2, True]",TRUE,2,white,135,right,down,high,white_high_135_down,black_high_45_down,2,left,0.9605883,0,120,3,3.2.2021,120.1901408
515,"['low', 16, 2, True]",TRUE,16,black,45,right,up,low,black_low_45_up,white_low_135_up,2,right,0.3754594,1,120,3,3.2.2021,120.1901408
516,"['low', 3, 2, True]",TRUE,3,white,135,right,up,low,white_low_135_up,black_low_45_up,2,right,0.4061068,1,120,3,3.2.2021,120.1901408
517,"['high', 2, 2, True]",TRUE,2,white,45,left,up,high,white_high_45_up,black_high_135_up,2,right,0.4043824,0,120,3,3.2.2021,120.1901408
518,"['low', 32, 2, True]",TRUE,32,white,135,right,up,low,white_low_135_up,black_low_45_up,2,right,0.6368377,1,120,3,3.2.2021,120.1901408
519,"['high', 2, 2, True]",TRUE,2,black,135,left,down,high,black_high_135_down,white_high_45_down,2,left,0.2410894,1,120,3,3.2.2021,120.1901408
520,"['low', 2, 2, True]",TRUE,2,white,45,left,up,low,white_low_45_up,black_low_135_up,2,right,0.885603,0,120,3,3.2.2021,120.1901408
521,"['low', 32, 2, True]",TRUE,32,white,45,left,down,low,white_low_45_down,black_low_135_down,2,left,0.1899779,1,120,3,3.2.2021,120.1901408
522,"['low', 16, 2, True]",TRUE,16,black,45,right,up,low,black_low_45_up,white_low_135_up,2,right,0.4209587,1,120,3,3.2.2021,120.1901408
523,"['high', 1, 2, False]",FALSE,1,black,45,right,up,high,black_high_45_up,white_high_135_up,2,left,0.8853333,0,120,3,3.2.2021,120.1901408
524,"['high', 32, 2, True]",TRUE,32,black,135,left,up,high,black_high_135_up,white_high_45_up,2,left,0.205849,1,120,3,3.2.2021,120.1901408
525,"['high', 32, 2, True]",TRUE,32,white,135,right,up,high,white_high_135_up,black_high_45_up,2,right,0.3905493,1,120,3,3.2.2021,120.1901408
526,"['high', 3, 2, True]",TRUE,3,black,135,left,up,high,black_high_135_up,white_high_45_up,2,left,0.3114782,1,120,3,3.2.2021,120.1901408
527,"['high', 3, 60, False]",FALSE,3,white,45,left,down,high,white_high_45_down,black_high_135_down,60,left,1.3281548,1,120,3,3.2.2021,120.1901408
528,"['high', 4, 2, True]",TRUE,4,black,45,right,up,high,black_high_45_up,white_high_135_up,2,left,0.5117715,0,120,3,3.2.2021,120.1901408
529,"['high', 16, 2, True]",TRUE,16,black,135,left,up,high,black_high_135_up,white_high_45_up,2,left,0.3322998,1,120,3,3.2.2021,120.1901408
530,"['high', 64, 2, True]",TRUE,64,white,135,right,up,high,white_high_135_up,black_high_45_up,2,right,0.3359057,1,120,3,3.2.2021,120.1901408
531,"['high', 4, 2, True]",TRUE,4,white,135,right,down,high,white_high_135_down,black_high_45_down,2,right,0.0182348,1,120,3,3.2.2021,120.1901408
532,"['low', 4, 2, True]",TRUE,4,black,135,left,up,low,black_low_135_up,white_low_45_up,2,left,0.3366261,1,120,3,3.2.2021,120.1901408
533,"['high', 1, 2, True]",TRUE,1,white,45,left,up,high,white_high_45_up,black_high_135_up,2,left,0.2432543,1,120,3,3.2.2021,120.1901408
534,"['low', 16, 2, True]",TRUE,16,white,45,left,up,low,white_low_45_up,black_low_135_up,2,left,0.4540537,1,120,3,3.2.2021,120.1901408
535,"['high', 64, 2, True]",TRUE,64,black,135,left,down,high,black_high_135_down,white_high_45_down,2,left,0.296266,1,120,3,3.2.2021,120.1901408
536,"['high', 4, 2, True]",TRUE,4,black,135,left,up,high,black_high_135_up,white_high_45_up,2,right,0.0747533,0,120,3,3.2.2021,120.1901408
537,"['high', 4, 2, True]",TRUE,4,white,135,right,down,high,white_high_135_down,black_high_45_down,2,right,1.8079989,1,120,3,3.2.2021,120.1901408
538,"['high', 1, 2, False]",FALSE,1,white,45,left,up,high,white_high_45_up,black_high_135_up,2,right,0.7859104,0,120,3,3.2.2021,120.1901408
539,"['low', 2, 2, True]",TRUE,2,black,45,right,down,low,black_low_45_down,white_low_135_down,2,right,0.0578127,1,120,3,3.2.2021,120.1901408
540,"['high', 3, 2, True]",TRUE,3,black,135,left,down,high,black_high_135_down,white_high_45_down,2,left,0.0558932,1,120,3,3.2.2021,120.1901408
541,"['high', 4, 2, True]",TRUE,4,white,45,left,up,high,white_high_45_up,black_high_135_up,2,left,0.2135844,1,120,3,3.2.2021,120.1901408
542,"['high', 2, 2, True]",TRUE,2,black,45,right,up,high,black_high_45_up,white_high_135_up,2,left,0.2295535,0,120,3,3.2.2021,120.1901408
543,"['high', 1, 2, True]",TRUE,1,white,45,left,up,high,white_high_45_up,black_high_135_up,2,right,0.1674929,0,120,3,3.2.2021,120.1901408
544,"['high', 8, 2, True]",TRUE,8,black,45,right,up,high,black_high_45_up,white_high_135_up,2,right,0.1495003,1,120,3,3.2.2021,120.1901408
545,"['low', 1, 2, False]",FALSE,1,black,45,right,up,low,black_low_45_up,white_low_135_up,2,right,0.421811,1,120,3,3.2.2021,120.1901408
546,"['high', 32, 2, True]",TRUE,32,white,45,left,up,high,white_high_45_up,black_high_135_up,2,left,0.2511144,1,120,3,3.2.2021,120.1901408
547,"['low', 4, 2, True]",TRUE,4,white,135,right,up,low,white_low_135_up,black_low_45_up,2,right,0.3614423,1,120,3,3.2.2021,120.1901408
548,"['high', 1, 2, True]",TRUE,1,white,135,right,up,high,white_high_135_up,black_high_45_up,2,left,0.6017959,0,120,3,3.2.2021,120.1901408
549,"['high', 3, 2, True]",TRUE,3,white,135,right,up,high,white_high_135_up,black_high_45_up,2,right,0.3085602,1,120,3,3.2.2021,120.1901408
550,"['high', 1, 2, False]",FALSE,1,black,135,left,down,high,black_high_135_down,white_high_45_down,2,right,1.1145344,0,120,3,3.2.2021,120.1901408
551,"['low', 3, 2, True]",TRUE,3,white,135,right,down,low,white_low_135_down,black_low_45_down,2,right,0.1555672,1,120,3,3.2.2021,120.1901408
552,"['high', 2, 2, True]",TRUE,2,black,45,right,up,high,black_high_45_up,white_high_135_up,2,left,0.4196846,0,120,3,3.2.2021,120.1901408
553,"['high', 1, 2, True]",TRUE,1,black,45,right,down,high,black_high_45_down,white_high_135_down,2,right,0.4741669,1,120,3,3.2.2021,120.1901408
554,"['high', 2, 2, True]",TRUE,2,black,135,left,up,high,black_high_135_up,white_high_45_up,2,right,0.1523886,0,120,3,3.2.2021,120.1901408
555,"['high', 64, 2, True]",TRUE,64,black,135,left,up,high,black_high_135_up,white_high_45_up,2,left,0.1933758,1,120,3,3.2.2021,120.1901408
556,"['low', 1, 2, True]",TRUE,1,black,135,left,up,low,black_low_135_up,white_low_45_up,2,right,0.1758046,0,120,3,3.2.2021,120.1901408
557,"['low', 3, 2, True]",TRUE,3,black,45,right,up,low,black_low_45_up,white_low_135_up,2,right,0.1130027,1,120,3,3.2.2021,120.1901408
558,"['low', 32, 2, True]",TRUE,32,white,135,right,up,low,white_low_135_up,black_low_45_up,2,right,0.3594816,1,120,3,3.2.2021,120.1901408
559,"['low', 1, 2, True]",TRUE,1,white,45,left,down,low,white_low_45_down,black_low_135_down,2,right,0.7193208,0,120,3,3.2.2021,120.1901408
560,"['high', 32, 2, True]",TRUE,32,white,135,right,up,high,white_high_135_up,black_high_45_up,2,right,0.2144967,1,120,3,3.2.2021,120.1901408
561,"['low', 3, 2, True]",TRUE,3,white,135,right,down,low,white_low_135_down,black_low_45_down,2,right,0.0342331,1,120,3,3.2.2021,120.1901408
562,"['high', 1, 2, False]",FALSE,1,white,135,right,up,high,white_high_135_up,black_high_45_up,2,right,0.3463671,1,120,3,3.2.2021,120.1901408
563,"['low', 1, 2, True]",TRUE,1,white,135,right,down,low,white_low_135_down,black_low_45_down,2,left,1.5676482,0,120,3,3.2.2021,120.1901408
564,"['high', 32, 2, True]",TRUE,32,white,45,left,down,high,white_high_45_down,black_high_135_down,2,left,0.331993,1,120,3,3.2.2021,120.1901408
565,"['high', 3, 2, True]",TRUE,3,black,135,left,up,high,black_high_135_up,white_high_45_up,2,right,0.4430565,0,120,3,3.2.2021,120.1901408
566,"['high', 4, 2, True]",TRUE,4,white,135,right,down,high,white_high_135_down,black_high_45_down,2,right,0.3200195,1,120,3,3.2.2021,120.1901408
567,"['high', 64, 2, True]",TRUE,64,white,45,left,up,high,white_high_45_up,black_high_135_up,2,left,0.4183209,1,120,3,3.2.2021,120.1901408
568,"['low', 8, 2, True]",TRUE,8,white,45,left,up,low,white_low_45_up,black_low_135_up,2,left,0.4321263,1,120,3,3.2.2021,120.1901408
569,"['high', 3, 2, True]",TRUE,3,black,45,right,up,high,black_high_45_up,white_high_135_up,2,left,0.0232107,0,120,3,3.2.2021,120.1901408
570,"['high', 16, 2, True]",TRUE,16,black,135,left,down,high,black_high_135_down,white_high_45_down,2,left,0.1803086,1,120,3,3.2.2021,120.1901408
571,"['high', 1, 2, False]",FALSE,1,white,135,right,down,high,white_high_135_down,black_high_45_down,2,left,0.2249852,0,120,3,3.2.2021,120.1901408
572,"['low', 64, 2, True]",TRUE,64,black,135,left,down,low,black_low_135_down,white_low_45_down,2,left,1.1415298,1,120,3,3.2.2021,120.1901408
573,"['low', 64, 2, True]",TRUE,64,black,135,left,down,low,black_low_135_down,white_low_45_down,2,left,0.4061708,1,120,3,3.2.2021,120.1901408
574,"['low', 16, 2, True]",TRUE,16,white,45,left,down,low,white_low_45_down,black_low_135_down,2,left,0.2988809,1,120,3,3.2.2021,120.1901408
575,"['low', 64, 2, True]",TRUE,64,black,45,right,up,low,black_low_45_up,white_low_135_up,2,right,0.4022097,1,120,3,3.2.2021,120.1901408
576,"['low', 64, 2, True]",TRUE,64,black,135,left,up,low,black_low_135_up,white_low_45_up,2,left,0.1562288,1,120,3,3.2.2021,120.1901408
577,"['low', 4, 2, True]",TRUE,4,black,45,right,down,low,black_low_45_down,white_low_135_down,2,right,0.2431436,1,120,3,3.2.2021,120.1901408
578,"['high', 3, 2, True]",TRUE,3,black,45,right,down,high,black_high_45_down,white_high_135_down,2,left,0.1657859,0,120,3,3.2.2021,120.1901408
579,"['low', 32, 2, True]",TRUE,32,white,45,left,down,low,white_low_45_down,black_low_135_down,2,left,0.8432255,1,120,3,3.2.2021,120.1901408
580,"['low', 32, 2, True]",TRUE,32,white,135,right,up,low,white_low_135_up,black_low_45_up,2,right,0.6217443,1,120,3,3.2.2021,120.1901408
581,"['low', 3, 2, True]",TRUE,3,black,45,right,down,low,black_low_45_down,white_low_135_down,2,right,0.3311042,1,120,3,3.2.2021,120.1901408
582,"['high', 3, 60, False]",FALSE,3,black,45,right,down,high,black_high_45_down,white_high_135_down,60,right,0.6588663,1,120,3,3.2.2021,120.1901408
583,"['low', 16, 2, True]",TRUE,16,white,45,left,down,low,white_low_45_down,black_low_135_down,2,left,0.563303,1,120,3,3.2.2021,120.1901408
584,"['high', 2, 2, True]",TRUE,2,white,45,left,down,high,white_high_45_down,black_high_135_down,2,right,0.6272571,0,120,3,3.2.2021,120.1901408
585,"['high', 16, 2, True]",TRUE,16,white,135,right,down,high,white_high_135_down,black_high_45_down,2,right,0.031472,1,120,3,3.2.2021,120.1901408
586,"['high', 3, 60, False]",FALSE,3,white,135,right,up,high,white_high_135_up,black_high_45_up,60,right,0.4275205,1,120,3,3.2.2021,120.1901408
587,"['high', 64, 2, True]",TRUE,64,black,135,left,up,high,black_high_135_up,white_high_45_up,2,left,0.1971536,1,120,3,3.2.2021,120.1901408
588,"['high', 3, 2, True]",TRUE,3,black,135,left,down,high,black_high_135_down,white_high_45_down,2,right,0.1116998,0,120,3,3.2.2021,120.1901408
589,"['high', 1, 2, False]",FALSE,1,white,45,left,up,high,white_high_45_up,black_high_135_up,2,left,0.4456797,1,120,3,3.2.2021,120.1901408
590,"['low', 2, 2, True]",TRUE,2,black,135,left,up,low,black_low_135_up,white_low_45_up,2,left,0.2528716,1,120,3,3.2.2021,120.1901408
591,"['high', 16, 2, True]",TRUE,16,white,135,right,down,high,white_high_135_down,black_high_45_down,2,right,0.6337798,1,120,3,3.2.2021,120.1901408
592,"['high', 64, 2, True]",TRUE,64,black,135,left,up,high,black_high_135_up,white_high_45_up,2,left,3.0823969,1,120,3,3.2.2021,120.1901408
593,"['high', 16, 2, True]",TRUE,16,black,135,left,down,high,black_high_135_down,white_high_45_down,2,left,0.417637,1,120,3,3.2.2021,120.1901408
594,"['high', 4, 2, True]",TRUE,4,black,45,right,up,high,black_high_45_up,white_high_135_up,2,right,0.7437638,1,120,3,3.2.2021,120.1901408
595,"['low', 16, 2, True]",TRUE,16,white,135,right,down,low,white_low_135_down,black_low_45_down,2,right,0.3886608,1,120,3,3.2.2021,120.1901408
596,"['low', 4, 2, True]",TRUE,4,black,45,right,up,low,black_low_45_up,white_low_135_up,2,right,0.2018037,1,120,3,3.2.2021,120.1901408
597,"['high', 2, 2, True]",TRUE,2,black,45,right,down,high,black_high_45_down,white_high_135_down,2,right,0.3205508,1,120,3,3.2.2021,120.1901408
598,"['high', 8, 2, True]",TRUE,8,white,45,left,down,high,white_high_45_down,black_high_135_down,2,left,0.3900456,1,120,3,3.2.2021,120.1901408
599,"['high', 32, 2, True]",TRUE,32,black,135,left,up,high,black_high_135_up,white_high_45_up,2,left,0.3825773,1,120,3,3.2.2021,120.1901408
600,"['high', 64, 2, True]",TRUE,64,black,45,right,down,high,black_high_45_down,white_high_135_down,2,right,0.2340516,1,120,3,3.2.2021,120.1901408
601,"['low', 3, 2, True]",TRUE,3,white,45,left,up,low,white_low_45_up,black_low_135_up,2,left,0.0343619,1,120,3,3.2.2021,120.1901408
602,"['low', 32, 2, True]",TRUE,32,white,45,left,down,low,white_low_45_down,black_low_135_down,2,left,0.1485014,1,120,3,3.2.2021,120.1901408
603,"['high', 3, 2, True]",TRUE,3,white,45,left,down,high,white_high_45_down,black_high_135_down,2,left,0.1247447,1,120,3,3.2.2021,120.1901408
604,"['high', 2, 2, True]",TRUE,2,white,45,left,up,high,white_high_45_up,black_high_135_up,2,right,0.1055375,0,120,3,3.2.2021,120.1901408
605,"['high', 3, 2, True]",TRUE,3,white,135,right,down,high,white_high_135_down,black_high_45_down,2,right,0.2069993,1,120,3,3.2.2021,120.1901408
606,"['low', 3, 2, True]",TRUE,3,black,45,right,down,low,black_low_45_down,white_low_135_down,2,right,0.0375153,1,120,3,3.2.2021,120.1901408
607,"['low', 16, 2, True]",TRUE,16,white,135,right,down,low,white_low_135_down,black_low_45_down,2,right,0.0833145,1,120,3,3.2.2021,120.1901408
608,"['high', 8, 2, True]",TRUE,8,white,45,left,up,high,white_high_45_up,black_high_135_up,2,left,0.3636955,1,120,3,3.2.2021,120.1901408
609,"['high', 1, 2, True]",TRUE,1,black,135,left,down,high,black_high_135_down,white_high_45_down,2,left,0.0971463,1,120,3,3.2.2021,120.1901408
610,"['high', 8, 2, True]",TRUE,8,white,135,right,up,high,white_high_135_up,black_high_45_up,2,right,0.2783512,1,120,3,3.2.2021,120.1901408
611,"['high', 1, 2, True]",TRUE,1,white,45,left,down,high,white_high_45_down,black_high_135_down,2,right,0.188182,0,120,3,3.2.2021,120.1901408
612,"['low', 8, 2, True]",TRUE,8,white,45,left,down,low,white_low_45_down,black_low_135_down,2,left,0.0867367,1,120,3,3.2.2021,120.1901408
613,"['high', 8, 2, True]",TRUE,8,white,135,right,down,high,white_high_135_down,black_high_45_down,2,right,0.3927697,1,120,3,3.2.2021,120.1901408
614,"['high', 1, 2, False]",FALSE,1,black,135,left,down,high,black_high_135_down,white_high_45_down,2,left,0.3728643,1,120,3,3.2.2021,120.1901408
615,"['high', 2, 2, True]",TRUE,2,black,45,right,down,high,black_high_45_down,white_high_135_down,2,right,0.0473217,1,120,3,3.2.2021,120.1901408
616,"['high', 8, 2, True]",TRUE,8,white,135,right,up,high,white_high_135_up,black_high_45_up,2,right,0.0263132,1,120,3,3.2.2021,120.1901408
617,"['high', 64, 2, True]",TRUE,64,white,135,right,up,high,white_high_135_up,black_high_45_up,2,right,0.1589035,1,120,3,3.2.2021,120.1901408
618,"['high', 4, 2, True]",TRUE,4,black,45,right,down,high,black_high_45_down,white_high_135_down,2,right,0.4095127,1,120,3,3.2.2021,120.1901408
619,"['high', 1, 2, True]",TRUE,1,black,135,left,down,high,black_high_135_down,white_high_45_down,2,right,0.9194919,0,120,3,3.2.2021,120.1901408
620,"['low', 16, 2, True]",TRUE,16,white,135,right,up,low,white_low_135_up,black_low_45_up,2,right,0.2710465,1,120,3,3.2.2021,120.1901408
621,"['low', 16, 2, True]",TRUE,16,white,45,left,up,low,white_low_45_up,black_low_135_up,2,left,0.6633375,1,120,3,3.2.2021,120.1901408
622,"['low', 1, 2, True]",TRUE,1,white,135,right,up,low,white_low_135_up,black_low_45_up,2,left,0.7865599,0,120,3,3.2.2021,120.1901408
623,"['high', 1, 2, False]",FALSE,1,black,45,right,up,high,black_high_45_up,white_high_135_up,2,right,0.7725659,1,120,3,3.2.2021,120.1901408
624,"['low', 1, 2, False]",FALSE,1,black,45,right,up,low,black_low_45_up,white_low_135_up,2,right,0.4649823,1,120,3,3.2.2021,120.1901408
625,"['high', 1, 2, False]",FALSE,1,white,135,right,down,high,white_high_135_down,black_high_45_down,2,right,0.438842,1,120,3,3.2.2021,120.1901408
626,"['low', 32, 2, True]",TRUE,32,white,45,left,up,low,white_low_45_up,black_low_135_up,2,left,0.0697749,1,120,3,3.2.2021,120.1901408
627,"['high', 3, 60, False]",FALSE,3,white,45,left,down,high,white_high_45_down,black_high_135_down,60,left,0.4265026,1,120,3,3.2.2021,120.1901408
628,"['high', 32, 2, True]",TRUE,32,white,135,right,up,high,white_high_135_up,black_high_45_up,2,right,0.1714717,1,120,3,3.2.2021,120.1901408
629,"['low', 4, 2, True]",TRUE,4,black,135,left,down,low,black_low_135_down,white_low_45_down,2,right,0.4051118,0,120,3,3.2.2021,120.1901408
630,"['high', 64, 2, True]",TRUE,64,black,45,right,up,high,black_high_45_up,white_high_135_up,2,right,0.1739145,1,120,3,3.2.2021,120.1901408
631,"['high', 1, 2, True]",TRUE,1,black,135,left,down,high,black_high_135_down,white_high_45_down,2,right,0.2953134,0,120,3,3.2.2021,120.1901408
632,"['low', 32, 2, True]",TRUE,32,white,45,left,up,low,white_low_45_up,black_low_135_up,2,left,0.2068697,1,120,3,3.2.2021,120.1901408
633,"['high', 64, 2, True]",TRUE,64,black,45,right,up,high,black_high_45_up,white_high_135_up,2,right,0.4056936,1,120,3,3.2.2021,120.1901408
634,"['low', 8, 2, True]",TRUE,8,black,45,right,up,low,black_low_45_up,white_low_135_up,2,right,0.293652,1,120,3,3.2.2021,120.1901408
635,"['high', 16, 2, True]",TRUE,16,black,135,left,down,high,black_high_135_down,white_high_45_down,2,left,0.5285819,1,120,3,3.2.2021,120.1901408
636,"['low', 32, 2, True]",TRUE,32,white,45,left,up,low,white_low_45_up,black_low_135_up,2,left,0.1612685,1,120,3,3.2.2021,120.1901408
637,"['high', 8, 2, True]",TRUE,8,white,135,right,up,high,white_high_135_up,black_high_45_up,2,right,0.6516783,1,120,3,3.2.2021,120.1901408
638,"['high', 3, 60, False]",FALSE,3,black,45,right,up,high,black_high_45_up,white_high_135_up,60,right,1.282725,1,120,3,3.2.2021,120.1901408
639,"['low', 16, 2, True]",TRUE,16,white,45,left,down,low,white_low_45_down,black_low_135_down,2,left,0.2325258,1,120,3,3.2.2021,120.1901408
640,"['high', 8, 2, True]",TRUE,8,black,45,right,up,high,black_high_45_up,white_high_135_up,2,right,0.2096871,1,120,3,3.2.2021,120.1901408
641,"['low', 1, 2, True]",TRUE,1,white,135,right,down,low,white_low_135_down,black_low_45_down,2,right,0.1982912,1,120,3,3.2.2021,120.1901408
642,"['high', 1, 2, True]",TRUE,1,black,45,right,up,high,black_high_45_up,white_high_135_up,2,right,0.062915,1,120,3,3.2.2021,120.1901408
643,"['low', 3, 2, True]",TRUE,3,white,135,right,down,low,white_low_135_down,black_low_45_down,2,right,1.0712726,1,120,3,3.2.2021,120.1901408
644,"['low', 3, 2, True]",TRUE,3,white,135,right,down,low,white_low_135_down,black_low_45_down,2,left,0.5965896,0,120,3,3.2.2021,120.1901408
645,"['high', 64, 2, True]",TRUE,64,white,45,left,down,high,white_high_45_down,black_high_135_down,2,left,0.251705,1,120,3,3.2.2021,120.1901408
646,"['high', 16, 2, True]",TRUE,16,black,45,right,down,high,black_high_45_down,white_high_135_down,2,right,0.397515,1,120,3,3.2.2021,120.1901408
647,"['low', 8, 2, True]",TRUE,8,white,135,right,down,low,white_low_135_down,black_low_45_down,2,right,1.2951497,1,120,3,3.2.2021,120.1901408
648,"['low', 3, 2, True]",TRUE,3,white,45,left,down,low,white_low_45_down,black_low_135_down,2,right,0.5567147,0,120,3,3.2.2021,120.1901408
649,"['high', 4, 2, True]",TRUE,4,black,45,right,up,high,black_high_45_up,white_high_135_up,2,right,0.153514,1,120,3,3.2.2021,120.1901408
650,"['high', 64, 2, True]",TRUE,64,black,135,left,up,high,black_high_135_up,white_high_45_up,2,left,0.2114768,1,120,3,3.2.2021,120.1901408
651,"['low', 1, 2, False]",FALSE,1,black,45,right,down,low,black_low_45_down,white_low_135_down,2,right,0.4726099,1,120,3,3.2.2021,120.1901408
652,"['low', 4, 2, True]",TRUE,4,black,135,left,up,low,black_low_135_up,white_low_45_up,2,right,0.2474232,0,120,3,3.2.2021,120.1901408
653,"['low', 16, 2, True]",TRUE,16,black,135,left,down,low,black_low_135_down,white_low_45_down,2,left,0.1828126,1,120,3,3.2.2021,120.1901408
654,"['high', 4, 2, True]",TRUE,4,white,135,right,up,high,white_high_135_up,black_high_45_up,2,right,0.4450454,1,120,3,3.2.2021,120.1901408
655,"['low', 16, 2, True]",TRUE,16,white,45,left,down,low,white_low_45_down,black_low_135_down,2,right,1.3426507,0,120,3,3.2.2021,120.1901408
656,"['high', 8, 2, True]",TRUE,8,black,45,right,down,high,black_high_45_down,white_high_135_down,2,right,0.151124,1,120,3,3.2.2021,120.1901408
657,"['low', 4, 2, True]",TRUE,4,white,135,right,up,low,white_low_135_up,black_low_45_up,2,right,0.0614048,1,120,3,3.2.2021,120.1901408
658,"['low', 4, 2, True]",TRUE,4,black,135,left,down,low,black_low_135_down,white_low_45_down,2,left,0.3649745,1,120,3,3.2.2021,120.1901408
659,"['low', 1, 2, False]",FALSE,1,black,135,left,down,low,black_low_135_down,white_low_45_down,2,left,0.4863693,1,120,3,3.2.2021,120.1901408
660,"['low', 32, 2, True]",TRUE,32,black,135,left,up,low,black_low_135_up,white_low_45_up,2,left,0.2498677,1,120,3,3.2.2021,120.1901408
661,"['low', 3, 2, True]",TRUE,3,white,135,right,up,low,white_low_135_up,black_low_45_up,2,right,0.2916366,1,120,3,3.2.2021,120.1901408
662,"['high', 32, 2, True]",TRUE,32,black,135,left,up,high,black_high_135_up,white_high_45_up,2,left,0.2938156,1,120,3,3.2.2021,120.1901408
663,"['low', 32, 2, True]",TRUE,32,white,135,right,down,low,white_low_135_down,black_low_45_down,2,right,0.6144559,1,120,3,3.2.2021,120.1901408
664,"['low', 1, 2, True]",TRUE,1,white,45,left,up,low,white_low_45_up,black_low_135_up,2,left,0.5584574,1,120,3,3.2.2021,120.1901408
665,"['high', 8, 2, True]",TRUE,8,black,45,right,up,high,black_high_45_up,white_high_135_up,2,right,0.6962413,1,120,3,3.2.2021,120.1901408
666,"['high', 4, 2, True]",TRUE,4,white,45,left,up,high,white_high_45_up,black_high_135_up,2,right,0.2812412,0,120,3,3.2.2021,120.1901408
667,"['high', 16, 2, True]",TRUE,16,white,135,right,down,high,white_high_135_down,black_high_45_down,2,right,0.1552317,1,120,3,3.2.2021,120.1901408
668,"['low', 8, 2, True]",TRUE,8,white,45,left,up,low,white_low_45_up,black_low_135_up,2,left,0.1377682,1,120,3,3.2.2021,120.1901408
669,"['low', 32, 2, True]",TRUE,32,black,135,left,down,low,black_low_135_down,white_low_45_down,2,left,0.5211285,1,120,3,3.2.2021,120.1901408
670,"['high', 1, 2, True]",TRUE,1,black,135,left,down,high,black_high_135_down,white_high_45_down,2,right,0.2656149,0,120,3,3.2.2021,120.1901408
671,"['low', 3, 2, True]",TRUE,3,black,135,left,down,low,black_low_135_down,white_low_45_down,2,left,0.190859,1,120,3,3.2.2021,120.1901408
672,"['low', 2, 2, True]",TRUE,2,white,45,left,up,low,white_low_45_up,black_low_135_up,2,right,0.0996771,0,120,3,3.2.2021,120.1901408
673,"['low', 32, 2, True]",TRUE,32,black,135,left,up,low,black_low_135_up,white_low_45_up,2,left,0.0765614,1,120,3,3.2.2021,120.1901408
674,"['low', 1, 2, False]",FALSE,1,white,45,left,down,low,white_low_45_down,black_low_135_down,2,left,0.351372,1,120,3,3.2.2021,120.1901408
675,"['high', 3, 2, True]",TRUE,3,black,45,right,up,high,black_high_45_up,white_high_135_up,2,right,0.3556832,1,120,3,3.2.2021,120.1901408
676,"['high', 2, 2, True]",TRUE,2,white,135,right,down,high,white_high_135_down,black_high_45_down,2,right,0.0860161,1,120,3,3.2.2021,120.1901408
677,"['low', 1, 2, False]",FALSE,1,white,45,left,down,low,white_low_45_down,black_low_135_down,2,left,0.6370772,1,120,3,3.2.2021,120.1901408
678,"['low', 16, 2, True]",TRUE,16,black,135,left,up,low,black_low_135_up,white_low_45_up,2,left,0.2866169,1,120,3,3.2.2021,120.1901408
679,"['low', 2, 2, True]",TRUE,2,white,135,right,down,low,white_low_135_down,black_low_45_down,2,right,0.287929,1,120,3,3.2.2021,120.1901408
680,"['low', 8, 2, True]",TRUE,8,white,135,right,down,low,white_low_135_down,black_low_45_down,2,right,0.1916505,1,120,3,3.2.2021,120.1901408
681,"['high', 32, 2, True]",TRUE,32,black,135,left,down,high,black_high_135_down,white_high_45_down,2,left,0.2344682,1,120,3,3.2.2021,120.1901408
682,"['high', 4, 2, True]",TRUE,4,black,135,left,up,high,black_high_135_up,white_high_45_up,2,left,0.3949578,1,120,3,3.2.2021,120.1901408
683,"['low', 1, 2, True]",TRUE,1,black,45,right,down,low,black_low_45_down,white_low_135_down,2,right,0.495795,1,120,3,3.2.2021,120.1901408
684,"['high', 8, 2, True]",TRUE,8,black,45,right,up,high,black_high_45_up,white_high_135_up,2,right,0.1066408,1,120,3,3.2.2021,120.1901408
685,"['low', 16, 2, True]",TRUE,16,black,135,left,down,low,black_low_135_down,white_low_45_down,2,left,0.1947457,1,120,3,3.2.2021,120.1901408
686,"['low', 3, 2, True]",TRUE,3,black,135,left,up,low,black_low_135_up,white_low_45_up,2,right,0.2020066,0,120,3,3.2.2021,120.1901408
687,"['high', 1, 2, False]",FALSE,1,white,45,left,up,high,white_high_45_up,black_high_135_up,2,left,0.4320839,1,120,3,3.2.2021,120.1901408
688,"['high', 64, 2, True]",TRUE,64,white,45,left,down,high,white_high_45_down,black_high_135_down,2,left,0.1750018,1,120,3,3.2.2021,120.1901408
689,"['low', 64, 2, True]",TRUE,64,black,45,right,up,low,black_low_45_up,white_low_135_up,2,right,0.1733362,1,120,3,3.2.2021,120.1901408
690,"['high', 8, 2, True]",TRUE,8,black,45,right,up,high,black_high_45_up,white_high_135_up,2,right,0.4590493,1,120,3,3.2.2021,120.1901408
691,"['high', 2, 2, True]",TRUE,2,black,135,left,down,high,black_high_135_down,white_high_45_down,2,left,0.2516128,1,120,3,3.2.2021,120.1901408
692,"['high', 4, 2, True]",TRUE,4,white,135,right,up,high,white_high_135_up,black_high_45_up,2,right,0.2778981,1,120,3,3.2.2021,120.1901408
693,"['high', 16, 2, True]",TRUE,16,white,45,left,up,high,white_high_45_up,black_high_135_up,2,left,0.1914926,1,120,3,3.2.2021,120.1901408
694,"['high', 3, 60, False]",FALSE,3,black,135,left,down,high,black_high_135_down,white_high_45_down,60,left,0.4583156,1,120,3,3.2.2021,120.1901408
695,"['high', 32, 2, True]",TRUE,32,black,135,left,down,high,black_high_135_down,white_high_45_down,2,left,0.1241686,1,120,3,3.2.2021,120.1901408
696,"['high', 64, 2, True]",TRUE,64,white,135,right,up,high,white_high_135_up,black_high_45_up,2,right,0.1891974,1,120,3,3.2.2021,120.1901408
697,"['high', 16, 2, True]",TRUE,16,white,135,right,down,high,white_high_135_down,black_high_45_down,2,right,0.113332,1,120,3,3.2.2021,120.1901408
698,"['low', 8, 2, True]",TRUE,8,black,45,right,down,low,black_low_45_down,white_low_135_down,2,right,0.1932152,1,120,3,3.2.2021,120.1901408
699,"['low', 64, 2, True]",TRUE,64,white,135,right,down,low,white_low_135_down,black_low_45_down,2,right,0.3560387,1,120,3,3.2.2021,120.1901408
700,"['low', 64, 2, True]",TRUE,64,black,135,left,up,low,black_low_135_up,white_low_45_up,2,left,0.1613119,1,120,3,3.2.2021,120.1901408
701,"['low', 16, 2, True]",TRUE,16,white,45,left,down,low,white_low_45_down,black_low_135_down,2,left,0.0260266,1,120,3,3.2.2021,120.1901408
702,"['low', 8, 2, True]",TRUE,8,black,135,left,down,low,black_low_135_down,white_low_45_down,2,left,0.3610916,1,120,3,3.2.2021,120.1901408
703,"['low', 64, 2, True]",TRUE,64,white,135,right,down,low,white_low_135_down,black_low_45_down,2,right,0.9673466,1,120,3,3.2.2021,120.1901408
