trial_number,trial_type,mask_present,cycle_number,first_color,first_orientation,correct_response,visual_field,spatial_frequency,first_stim,second_stim,stimulus_frame_duration,answer,rt,accuracy,frame_rate,participant,psychopyVersion,frame_rate_detected
0,"['low', 2, 2, True]",TRUE,2,black,135,left,up,low,black_low_135_up,white_low_45_up,2,left,0.3044193,1,120,7,3.2.2021,119.967225
1,"['low', 16, 2, True]",TRUE,16,white,135,right,down,low,white_low_135_down,black_low_45_down,2,right,0.2390485,1,120,7,3.2.2021,119.967225
2,"['low', 8, 2, True]",TRUE,8,white,45,left,up,low,white_low_45_up,black_low_135_up,2,left,0.1138624,1,120,7,3.2.2021,119.967225
3,"['low', 64, 2, True]",TRUE,64,black,45,right,down,low,black_low_45_down,white_low_135_down,2,right,0.040028,1,120,7,3.2.2021,119.967225
4,"['high', 16, 2, True]",TRUE,16,white,45,left,up,high,white_high_45_up,black_high_135_up,2,left,0.1548432,1,120,7,3.2.2021,119.967225
5,"['high', 32, 2, True]",TRUE,32,white,45,left,up,high,white_high_45_up,black_high_135_up,2,left,0.1864132,1,120,7,3.2.2021,119.967225
6,"['high', 1, 2, True]",TRUE,1,black,135,left,down,high,black_high_135_down,white_high_45_down,2,left,0.8611876,1,120,7,3.2.2021,119.967225
7,"['high', 16, 2, True]",TRUE,16,black,45,right,up,high,black_high_45_up,white_high_135_up,2,right,0.7778391,1,120,7,3.2.2021,119.967225
8,"['low', 64, 2, True]",TRUE,64,white,135,right,down,low,white_low_135_down,black_low_45_down,2,right,0.1424472,1,120,7,3.2.2021,119.967225
9,"['high', 4, 2, True]",TRUE,4,black,135,left,up,high,black_high_135_up,white_high_45_up,2,left,0.3076515,1,120,7,3.2.2021,119.967225
10,"['high', 3, 60, False]",FALSE,3,white,45,left,down,high,white_high_45_down,black_high_135_down,60,left,0.3413956,1,120,7,3.2.2021,119.967225
11,"['low', 1, 2, False]",FALSE,1,black,45,right,down,low,black_low_45_down,white_low_135_down,2,right,1.1876923,1,120,7,3.2.2021,119.967225
12,"['high', 16, 2, True]",TRUE,16,white,135,right,down,high,white_high_135_down,black_high_45_down,2,right,0.2669532,1,120,7,3.2.2021,119.967225
13,"['low', 1, 2, False]",FALSE,1,white,135,right,up,low,white_low_135_up,black_low_45_up,2,right,0.8436311,1,120,7,3.2.2021,119.967225
14,"['low', 3, 2, True]",TRUE,3,black,135,left,down,low,black_low_135_down,white_low_45_down,2,left,0.5607402,1,120,7,3.2.2021,119.967225
15,"['high', 2, 2, True]",TRUE,2,black,135,left,down,high,black_high_135_down,white_high_45_down,2,right,1.3064789,0,120,7,3.2.2021,119.967225
16,"['low', 2, 2, True]",TRUE,2,black,45,right,up,low,black_low_45_up,white_low_135_up,2,right,1.2353372,1,120,7,3.2.2021,119.967225
17,"['low', 2, 2, True]",TRUE,2,black,135,left,down,low,black_low_135_down,white_low_45_down,2,left,0.524904,1,120,7,3.2.2021,119.967225
18,"['low', 2, 2, True]",TRUE,2,white,45,left,down,low,white_low_45_down,black_low_135_down,2,left,0.3688264,1,120,7,3.2.2021,119.967225
19,"['low', 64, 2, True]",TRUE,64,black,45,right,down,low,black_low_45_down,white_low_135_down,2,right,0.0227399,1,120,7,3.2.2021,119.967225
20,"['low', 16, 2, True]",TRUE,16,white,135,right,down,low,white_low_135_down,black_low_45_down,2,right,1.8669359,1,120,7,3.2.2021,119.967225
21,"['low', 1, 2, False]",FALSE,1,white,45,left,down,low,white_low_45_down,black_low_135_down,2,left,0.9209716,1,120,7,3.2.2021,119.967225
22,"['high', 16, 2, True]",TRUE,16,white,135,right,down,high,white_high_135_down,black_high_45_down,2,right,0.4008105,1,120,7,3.2.2021,119.967225
23,"['high', 8, 2, True]",TRUE,8,black,45,right,down,high,black_high_45_down,white_high_135_down,2,right,0.2191524,1,120,7,3.2.2021,119.967225
24,"['high', 64, 2, True]",TRUE,64,black,135,left,up,high,black_high_135_up,white_high_45_up,2,left,0.2717441,1,120,7,3.2.2021,119.967225
25,"['high', 16, 2, True]",TRUE,16,black,135,left,up,high,black_high_135_up,white_high_45_up,2,left,0.2670426,1,120,7,3.2.2021,119.967225
26,"['low', 1, 2, False]",FALSE,1,black,135,left,up,low,black_low_135_up,white_low_45_up,2,left,0.6459495,1,120,7,3.2.2021,119.967225
27,"['high', 2, 2, True]",TRUE,2,black,45,right,up,high,black_high_45_up,white_high_135_up,2,left,0.5803291,0,120,7,3.2.2021,119.967225
28,"['low', 1, 2, False]",FALSE,1,white,45,left,up,low,white_low_45_up,black_low_135_up,2,left,1.2944528,1,120,7,3.2.2021,119.967225
29,"['low', 64, 2, True]",TRUE,64,black,135,left,down,low,black_low_135_down,white_low_45_down,2,left,0.1448621,1,120,7,3.2.2021,119.967225
30,"['high', 16, 2, True]",TRUE,16,black,135,left,up,high,black_high_135_up,white_high_45_up,2,left,0.4883141,1,120,7,3.2.2021,119.967225
31,"['low', 16, 2, True]",TRUE,16,white,135,right,up,low,white_low_135_up,black_low_45_up,2,right,0.2404979,1,120,7,3.2.2021,119.967225
32,"['low', 3, 2, True]",TRUE,3,black,135,left,up,low,black_low_135_up,white_low_45_up,2,right,0.4149141,0,120,7,3.2.2021,119.967225
33,"['high', 8, 2, True]",TRUE,8,black,135,left,up,high,black_high_135_up,white_high_45_up,2,left,0.2780824,1,120,7,3.2.2021,119.967225
34,"['low', 1, 2, True]",TRUE,1,white,135,right,down,low,white_low_135_down,black_low_45_down,2,right,0.999325,1,120,7,3.2.2021,119.967225
35,"['high', 64, 2, True]",TRUE,64,white,135,right,up,high,white_high_135_up,black_high_45_up,2,right,0.0359188,1,120,7,3.2.2021,119.967225
36,"['low', 3, 2, True]",TRUE,3,black,135,left,down,low,black_low_135_down,white_low_45_down,2,left,0.2792105,1,120,7,3.2.2021,119.967225
37,"['high', 3, 2, True]",TRUE,3,black,45,right,down,high,black_high_45_down,white_high_135_down,2,left,0.2764794,0,120,7,3.2.2021,119.967225
38,"['low', 4, 2, True]",TRUE,4,black,45,right,down,low,black_low_45_down,white_low_135_down,2,right,1.2414741,1,120,7,3.2.2021,119.967225
39,"['high', 16, 2, True]",TRUE,16,black,135,left,down,high,black_high_135_down,white_high_45_down,2,left,0.8443384,1,120,7,3.2.2021,119.967225
40,"['high', 3, 2, True]",TRUE,3,white,135,right,up,high,white_high_135_up,black_high_45_up,2,left,2.8871675,0,120,7,3.2.2021,119.967225
41,"['high', 2, 2, True]",TRUE,2,black,135,left,down,high,black_high_135_down,white_high_45_down,2,left,0.6049657,1,120,7,3.2.2021,119.967225
42,"['low', 16, 2, True]",TRUE,16,black,135,left,down,low,black_low_135_down,white_low_45_down,2,left,0.428167,1,120,7,3.2.2021,119.967225
43,"['high', 1, 2, True]",TRUE,1,black,135,left,down,high,black_high_135_down,white_high_45_down,2,right,0.6146911,0,120,7,3.2.2021,119.967225
44,"['high', 4, 2, True]",TRUE,4,white,135,right,down,high,white_high_135_down,black_high_45_down,2,left,1.1305508,0,120,7,3.2.2021,119.967225
45,"['low', 3, 2, True]",TRUE,3,white,135,right,down,low,white_low_135_down,black_low_45_down,2,right,0.4583204,1,120,7,3.2.2021,119.967225
46,"['low', 1, 2, True]",TRUE,1,black,45,right,up,low,black_low_45_up,white_low_135_up,2,left,1.7039516,0,120,7,3.2.2021,119.967225
47,"['low', 64, 2, True]",TRUE,64,black,135,left,up,low,black_low_135_up,white_low_45_up,2,left,0.1925107,1,120,7,3.2.2021,119.967225
48,"['low', 64, 2, True]",TRUE,64,white,45,left,down,low,white_low_45_down,black_low_135_down,2,left,0.0738148,1,120,7,3.2.2021,119.967225
49,"['low', 32, 2, True]",TRUE,32,black,45,right,down,low,black_low_45_down,white_low_135_down,2,right,0.5584913,1,120,7,3.2.2021,119.967225
50,"['high', 8, 2, True]",TRUE,8,white,45,left,down,high,white_high_45_down,black_high_135_down,2,left,0.2382078,1,120,7,3.2.2021,119.967225
51,"['high', 3, 2, True]",TRUE,3,black,135,left,down,high,black_high_135_down,white_high_45_down,2,left,0.728147,1,120,7,3.2.2021,119.967225
52,"['low', 16, 2, True]",TRUE,16,black,135,left,down,low,black_low_135_down,white_low_45_down,2,left,0.4103226,1,120,7,3.2.2021,119.967225
53,"['high', 1, 2, False]",FALSE,1,white,135,right,up,high,white_high_135_up,black_high_45_up,2,right,1.0113988,1,120,7,3.2.2021,119.967225
54,"['low', 1, 2, False]",FALSE,1,black,45,right,up,low,black_low_45_up,white_low_135_up,2,right,1.359203,1,120,7,3.2.2021,119.967225
55,"['low', 64, 2, True]",TRUE,64,black,45,right,up,low,black_low_45_up,white_low_135_up,2,right,0.3106866,1,120,7,3.2.2021,119.967225
56,"['high', 32, 2, True]",TRUE,32,white,135,right,up,high,white_high_135_up,black_high_45_up,2,right,0.0868152,1,120,7,3.2.2021,119.967225
57,"['low', 4, 2, True]",TRUE,4,black,45,right,down,low,black_low_45_down,white_low_135_down,2,right,0.5258161,1,120,7,3.2.2021,119.967225
58,"['high', 8, 2, True]",TRUE,8,black,135,left,down,high,black_high_135_down,white_high_45_down,2,left,0.7715439,1,120,7,3.2.2021,119.967225
59,"['high', 8, 2, True]",TRUE,8,black,135,left,down,high,black_high_135_down,white_high_45_down,2,left,0.4976958,1,120,7,3.2.2021,119.967225
60,"['high', 1, 2, False]",FALSE,1,black,45,right,up,high,black_high_45_up,white_high_135_up,2,left,1.0097294,0,120,7,3.2.2021,119.967225
61,"['low', 1, 2, True]",TRUE,1,black,45,right,down,low,black_low_45_down,white_low_135_down,2,right,0.9725597,1,120,7,3.2.2021,119.967225
62,"['low', 1, 2, False]",FALSE,1,black,45,right,down,low,black_low_45_down,white_low_135_down,2,right,1.6479282,1,120,7,3.2.2021,119.967225
63,"['high', 64, 2, True]",TRUE,64,black,45,right,up,high,black_high_45_up,white_high_135_up,2,right,0.1251172,1,120,7,3.2.2021,119.967225
64,"['low', 8, 2, True]",TRUE,8,black,135,left,up,low,black_low_135_up,white_low_45_up,2,left,0.1633426,1,120,7,3.2.2021,119.967225
65,"['high', 3, 2, True]",TRUE,3,white,45,left,up,high,white_high_45_up,black_high_135_up,2,left,0.4756989,1,120,7,3.2.2021,119.967225
66,"['high', 64, 2, True]",TRUE,64,black,135,left,down,high,black_high_135_down,white_high_45_down,2,right,0.1635588,0,120,7,3.2.2021,119.967225
67,"['low', 1, 2, True]",TRUE,1,black,45,right,down,low,black_low_45_down,white_low_135_down,2,right,0.4632203,1,120,7,3.2.2021,119.967225
68,"['low', 1, 2, True]",TRUE,1,white,45,left,up,low,white_low_45_up,black_low_135_up,2,left,0.3538211,1,120,7,3.2.2021,119.967225
69,"['high', 4, 2, True]",TRUE,4,black,45,right,down,high,black_high_45_down,white_high_135_down,2,left,0.3407102,0,120,7,3.2.2021,119.967225
70,"['low', 64, 2, True]",TRUE,64,white,45,left,up,low,white_low_45_up,black_low_135_up,2,left,0.0793517,1,120,7,3.2.2021,119.967225
71,"['high', 2, 2, True]",TRUE,2,white,45,left,up,high,white_high_45_up,black_high_135_up,2,left,0.4107075,1,120,7,3.2.2021,119.967225
72,"['low', 1, 2, True]",TRUE,1,black,45,right,down,low,black_low_45_down,white_low_135_down,2,left,0.952376,0,120,7,3.2.2021,119.967225
73,"['high', 3, 2, True]",TRUE,3,white,135,right,down,high,white_high_135_down,black_high_45_down,2,left,1.8464777,0,120,7,3.2.2021,119.967225
74,"['high', 8, 2, True]",TRUE,8,white,135,right,down,high,white_high_135_down,black_high_45_down,2,left,2.4461667,0,120,7,3.2.2021,119.967225
75,"['low', 2, 2, True]",TRUE,2,white,45,left,down,low,white_low_45_down,black_low_135_down,2,left,0.8330603,1,120,7,3.2.2021,119.967225
76,"['low', 64, 2, True]",TRUE,64,black,135,left,down,low,black_low_135_down,white_low_45_down,2,left,0.1208042,1,120,7,3.2.2021,119.967225
77,"['low', 8, 2, True]",TRUE,8,black,45,right,up,low,black_low_45_up,white_low_135_up,2,right,0.2048847,1,120,7,3.2.2021,119.967225
78,"['high', 2, 2, True]",TRUE,2,white,45,left,down,high,white_high_45_down,black_high_135_down,2,left,0.6543789,1,120,7,3.2.2021,119.967225
79,"['high', 8, 2, True]",TRUE,8,white,135,right,up,high,white_high_135_up,black_high_45_up,2,right,0.3061981,1,120,7,3.2.2021,119.967225
80,"['high', 4, 2, True]",TRUE,4,white,135,right,up,high,white_high_135_up,black_high_45_up,2,right,0.3020339,1,120,7,3.2.2021,119.967225
81,"['low', 1, 2, False]",FALSE,1,black,45,right,down,low,black_low_45_down,white_low_135_down,2,right,1.0226918,1,120,7,3.2.2021,119.967225
82,"['high', 2, 2, True]",TRUE,2,white,135,right,up,high,white_high_135_up,black_high_45_up,2,right,0.3347324,1,120,7,3.2.2021,119.967225
83,"['low', 32, 2, True]",TRUE,32,white,45,left,up,low,white_low_45_up,black_low_135_up,2,left,0.0923149,1,120,7,3.2.2021,119.967225
84,"['low', 8, 2, True]",TRUE,8,white,135,right,up,low,white_low_135_up,black_low_45_up,2,right,0.5273635,1,120,7,3.2.2021,119.967225
85,"['high', 3, 2, True]",TRUE,3,black,45,right,down,high,black_high_45_down,white_high_135_down,2,left,0.2904338,0,120,7,3.2.2021,119.967225
86,"['high', 64, 2, True]",TRUE,64,white,135,right,up,high,white_high_135_up,black_high_45_up,2,right,0.2366493,1,120,7,3.2.2021,119.967225
87,"['low', 1, 2, False]",FALSE,1,white,135,right,down,low,white_low_135_down,black_low_45_down,2,left,4.0397235,0,120,7,3.2.2021,119.967225
88,"['high', 16, 2, True]",TRUE,16,black,135,left,up,high,black_high_135_up,white_high_45_up,2,left,0.3883945,1,120,7,3.2.2021,119.967225
89,"['high', 3, 60, False]",FALSE,3,white,45,left,down,high,white_high_45_down,black_high_135_down,60,left,0.3947157,1,120,7,3.2.2021,119.967225
90,"['high', 3, 60, False]",FALSE,3,white,135,right,down,high,white_high_135_down,black_high_45_down,60,right,0.3281406,1,120,7,3.2.2021,119.967225
91,"['high', 1, 2, False]",FALSE,1,white,135,right,up,high,white_high_135_up,black_high_45_up,2,right,2.1094987,1,120,7,3.2.2021,119.967225
92,"['low', 2, 2, True]",TRUE,2,black,45,right,down,low,black_low_45_down,white_low_135_down,2,left,4.8635347,0,120,7,3.2.2021,119.967225
93,"['high', 3, 2, True]",TRUE,3,black,45,right,down,high,black_high_45_down,white_high_135_down,2,left,1.888975,0,120,7,3.2.2021,119.967225
94,"['high', 1, 2, False]",FALSE,1,black,45,right,up,high,black_high_45_up,white_high_135_up,2,right,1.5625019,1,120,7,3.2.2021,119.967225
95,"['high', 3, 2, True]",TRUE,3,white,45,left,down,high,white_high_45_down,black_high_135_down,2,left,0.7435352,1,120,7,3.2.2021,119.967225
96,"['low', 4, 2, True]",TRUE,4,white,45,left,down,low,white_low_45_down,black_low_135_down,2,left,0.8879799,1,120,7,3.2.2021,119.967225
97,"['low', 16, 2, True]",TRUE,16,white,135,right,down,low,white_low_135_down,black_low_45_down,2,right,0.3922825,1,120,7,3.2.2021,119.967225
98,"['high', 32, 2, True]",TRUE,32,black,45,right,up,high,black_high_45_up,white_high_135_up,2,right,0.3645695,1,120,7,3.2.2021,119.967225
99,"['high', 4, 2, True]",TRUE,4,white,135,right,up,high,white_high_135_up,black_high_45_up,2,right,1.1453408,1,120,7,3.2.2021,119.967225
100,"['low', 2, 2, True]",TRUE,2,white,135,right,up,low,white_low_135_up,black_low_45_up,2,right,0.6527613,1,120,7,3.2.2021,119.967225
101,"['high', 3, 2, True]",TRUE,3,black,45,right,down,high,black_high_45_down,white_high_135_down,2,left,0.3657676,0,120,7,3.2.2021,119.967225
102,"['low', 32, 2, True]",TRUE,32,black,45,right,down,low,black_low_45_down,white_low_135_down,2,right,0.0138363,1,120,7,3.2.2021,119.967225
103,"['low', 8, 2, True]",TRUE,8,black,45,right,up,low,black_low_45_up,white_low_135_up,2,right,0.2361365,1,120,7,3.2.2021,119.967225
104,"['low', 4, 2, True]",TRUE,4,black,45,right,down,low,black_low_45_down,white_low_135_down,2,right,0.2828208,1,120,7,3.2.2021,119.967225
105,"['high', 1, 2, True]",TRUE,1,white,45,left,down,high,white_high_45_down,black_high_135_down,2,right,0.6087837,0,120,7,3.2.2021,119.967225
106,"['high', 8, 2, True]",TRUE,8,black,45,right,down,high,black_high_45_down,white_high_135_down,2,right,0.3091674,1,120,7,3.2.2021,119.967225
107,"['low', 4, 2, True]",TRUE,4,white,45,left,down,low,white_low_45_down,black_low_135_down,2,left,0.2464653,1,120,7,3.2.2021,119.967225
108,"['high', 4, 2, True]",TRUE,4,white,135,right,down,high,white_high_135_down,black_high_45_down,2,right,0.2703624,1,120,7,3.2.2021,119.967225
109,"['high', 8, 2, True]",TRUE,8,black,135,left,down,high,black_high_135_down,white_high_45_down,2,left,0.2118261,1,120,7,3.2.2021,119.967225
110,"['high', 16, 2, True]",TRUE,16,white,45,left,down,high,white_high_45_down,black_high_135_down,2,left,0.1528551,1,120,7,3.2.2021,119.967225
111,"['low', 2, 2, True]",TRUE,2,white,135,right,down,low,white_low_135_down,black_low_45_down,2,right,0.2988056,1,120,7,3.2.2021,119.967225
112,"['high', 1, 2, True]",TRUE,1,black,45,right,up,high,black_high_45_up,white_high_135_up,2,left,0.4265211,0,120,7,3.2.2021,119.967225
113,"['high', 64, 2, True]",TRUE,64,white,135,right,down,high,white_high_135_down,black_high_45_down,2,right,0.5580115,1,120,7,3.2.2021,119.967225
114,"['high', 32, 2, True]",TRUE,32,white,45,left,up,high,white_high_45_up,black_high_135_up,2,left,0.149101,1,120,7,3.2.2021,119.967225
115,"['high', 8, 2, True]",TRUE,8,white,135,right,down,high,white_high_135_down,black_high_45_down,2,right,0.1070242,1,120,7,3.2.2021,119.967225
116,"['low', 1, 2, False]",FALSE,1,white,45,left,down,low,white_low_45_down,black_low_135_down,2,left,0.7363955,1,120,7,3.2.2021,119.967225
117,"['high', 1, 2, False]",FALSE,1,white,45,left,down,high,white_high_45_down,black_high_135_down,2,left,0.6732783,1,120,7,3.2.2021,119.967225
118,"['low', 32, 2, True]",TRUE,32,white,135,right,down,low,white_low_135_down,black_low_45_down,2,right,0.5080834,1,120,7,3.2.2021,119.967225
119,"['low', 16, 2, True]",TRUE,16,black,45,right,down,low,black_low_45_down,white_low_135_down,2,right,0.1048105,1,120,7,3.2.2021,119.967225
120,"['high', 3, 2, True]",TRUE,3,white,135,right,down,high,white_high_135_down,black_high_45_down,2,right,0.1637689,1,120,7,3.2.2021,119.967225
121,"['high', 16, 2, True]",TRUE,16,white,135,right,down,high,white_high_135_down,black_high_45_down,2,right,1.4174761,1,120,7,3.2.2021,119.967225
122,"['high', 32, 2, True]",TRUE,32,black,135,left,up,high,black_high_135_up,white_high_45_up,2,left,0.3695427,1,120,7,3.2.2021,119.967225
123,"['high', 2, 2, True]",TRUE,2,white,135,right,down,high,white_high_135_down,black_high_45_down,2,right,0.3722328,1,120,7,3.2.2021,119.967225
124,"['high', 64, 2, True]",TRUE,64,black,45,right,down,high,black_high_45_down,white_high_135_down,2,right,0.1765321,1,120,7,3.2.2021,119.967225
125,"['low', 4, 2, True]",TRUE,4,white,135,right,up,low,white_low_135_up,black_low_45_up,2,right,0.7245436,1,120,7,3.2.2021,119.967225
126,"['low', 3, 2, True]",TRUE,3,black,45,right,down,low,black_low_45_down,white_low_135_down,2,right,0.3672778,1,120,7,3.2.2021,119.967225
127,"['high', 4, 2, True]",TRUE,4,black,135,left,down,high,black_high_135_down,white_high_45_down,2,left,0.2492842,1,120,7,3.2.2021,119.967225
128,"['low', 1, 2, True]",TRUE,1,black,135,left,down,low,black_low_135_down,white_low_45_down,2,right,0.3743091,0,120,7,3.2.2021,119.967225
129,"['low', 3, 2, True]",TRUE,3,white,135,right,down,low,white_low_135_down,black_low_45_down,2,right,0.174143,1,120,7,3.2.2021,119.967225
130,"['high', 3, 60, False]",FALSE,3,black,135,left,up,high,black_high_135_up,white_high_45_up,60,left,0.2648357,1,120,7,3.2.2021,119.967225
131,"['high', 2, 2, True]",TRUE,2,black,45,right,up,high,black_high_45_up,white_high_135_up,2,left,1.2958303,0,120,7,3.2.2021,119.967225
132,"['low', 1, 2, True]",TRUE,1,white,135,right,down,low,white_low_135_down,black_low_45_down,2,right,0.548907,1,120,7,3.2.2021,119.967225
133,"['low', 2, 2, True]",TRUE,2,white,45,left,down,low,white_low_45_down,black_low_135_down,2,left,0.3700092,1,120,7,3.2.2021,119.967225
134,"['high', 1, 2, False]",FALSE,1,black,45,right,up,high,black_high_45_up,white_high_135_up,2,left,0.643857,0,120,7,3.2.2021,119.967225
135,"['low', 64, 2, True]",TRUE,64,black,135,left,up,low,black_low_135_up,white_low_45_up,2,left,0.2424128,1,120,7,3.2.2021,119.967225
136,"['low', 32, 2, True]",TRUE,32,white,45,left,up,low,white_low_45_up,black_low_135_up,2,left,0.0901961,1,120,7,3.2.2021,119.967225
137,"['low', 1, 2, True]",TRUE,1,black,135,left,up,low,black_low_135_up,white_low_45_up,2,right,0.9568965,0,120,7,3.2.2021,119.967225
138,"['low', 8, 2, True]",TRUE,8,black,45,right,up,low,black_low_45_up,white_low_135_up,2,right,0.2178456,1,120,7,3.2.2021,119.967225
139,"['high', 1, 2, False]",FALSE,1,black,45,right,up,high,black_high_45_up,white_high_135_up,2,right,0.5339464,1,120,7,3.2.2021,119.967225
140,"['high', 3, 60, False]",FALSE,3,white,45,left,up,high,white_high_45_up,black_high_135_up,60,left,2.6096005,1,120,7,3.2.2021,119.967225
141,"['high', 2, 2, True]",TRUE,2,white,45,left,down,high,white_high_45_down,black_high_135_down,2,left,0.5235955,1,120,7,3.2.2021,119.967225
142,"['high', 64, 2, True]",TRUE,64,black,45,right,up,high,black_high_45_up,white_high_135_up,2,right,0.4687661,1,120,7,3.2.2021,119.967225
143,"['low', 32, 2, True]",TRUE,32,white,45,left,down,low,white_low_45_down,black_low_135_down,2,left,2.1299408,1,120,7,3.2.2021,119.967225
144,"['low', 3, 2, True]",TRUE,3,white,45,left,down,low,white_low_45_down,black_low_135_down,2,left,0.3352756,1,120,7,3.2.2021,119.967225
145,"['low', 64, 2, True]",TRUE,64,black,45,right,down,low,black_low_45_down,white_low_135_down,2,right,0.271753,1,120,7,3.2.2021,119.967225
146,"['low', 2, 2, True]",TRUE,2,white,45,left,down,low,white_low_45_down,black_low_135_down,2,left,0.1169438,1,120,7,3.2.2021,119.967225
147,"['low', 3, 2, True]",TRUE,3,black,135,left,up,low,black_low_135_up,white_low_45_up,2,right,0.1182,0,120,7,3.2.2021,119.967225
148,"['low', 1, 2, False]",FALSE,1,white,45,left,down,low,white_low_45_down,black_low_135_down,2,left,0.6889397,1,120,7,3.2.2021,119.967225
149,"['high', 2, 2, True]",TRUE,2,white,135,right,down,high,white_high_135_down,black_high_45_down,2,left,0.4083257,0,120,7,3.2.2021,119.967225
150,"['high', 2, 2, True]",TRUE,2,white,45,left,up,high,white_high_45_up,black_high_135_up,2,left,0.2895885,1,120,7,3.2.2021,119.967225
151,"['low', 3, 2, True]",TRUE,3,white,135,right,down,low,white_low_135_down,black_low_45_down,2,right,0.4407015,1,120,7,3.2.2021,119.967225
152,"['low', 32, 2, True]",TRUE,32,black,45,right,up,low,black_low_45_up,white_low_135_up,2,right,0.0357954,1,120,7,3.2.2021,119.967225
153,"['high', 3, 2, True]",TRUE,3,black,135,left,up,high,black_high_135_up,white_high_45_up,2,right,0.189516,0,120,7,3.2.2021,119.967225
154,"['high', 1, 2, False]",FALSE,1,white,135,right,down,high,white_high_135_down,black_high_45_down,2,left,0.3646638,0,120,7,3.2.2021,119.967225
155,"['high', 8, 2, True]",TRUE,8,black,45,right,down,high,black_high_45_down,white_high_135_down,2,right,0.2370133,1,120,7,3.2.2021,119.967225
156,"['high', 8, 2, True]",TRUE,8,white,45,left,down,high,white_high_45_down,black_high_135_down,2,left,0.5664016,1,120,7,3.2.2021,119.967225
157,"['low', 3, 2, True]",TRUE,3,white,135,right,up,low,white_low_135_up,black_low_45_up,2,right,0.1011309,1,120,7,3.2.2021,119.967225
158,"['high', 3, 2, True]",TRUE,3,black,135,left,down,high,black_high_135_down,white_high_45_down,2,left,0.1152467,1,120,7,3.2.2021,119.967225
159,"['high', 1, 2, True]",TRUE,1,white,45,left,down,high,white_high_45_down,black_high_135_down,2,left,0.2569081,1,120,7,3.2.2021,119.967225
160,"['low', 16, 2, True]",TRUE,16,white,135,right,up,low,white_low_135_up,black_low_45_up,2,right,0.3923844,1,120,7,3.2.2021,119.967225
161,"['high', 4, 2, True]",TRUE,4,black,45,right,up,high,black_high_45_up,white_high_135_up,2,right,0.2237387,1,120,7,3.2.2021,119.967225
162,"['low', 2, 2, True]",TRUE,2,white,135,right,down,low,white_low_135_down,black_low_45_down,2,right,0.3112131,1,120,7,3.2.2021,119.967225
163,"['low', 64, 2, True]",TRUE,64,white,45,left,down,low,white_low_45_down,black_low_135_down,2,left,0.0389659,1,120,7,3.2.2021,119.967225
164,"['high', 1, 2, False]",FALSE,1,black,135,left,down,high,black_high_135_down,white_high_45_down,2,left,0.3454411,1,120,7,3.2.2021,119.967225
165,"['low', 8, 2, True]",TRUE,8,white,45,left,up,low,white_low_45_up,black_low_135_up,2,left,0.114395,1,120,7,3.2.2021,119.967225
166,"['low', 2, 2, True]",TRUE,2,white,135,right,down,low,white_low_135_down,black_low_45_down,2,right,0.1724584,1,120,7,3.2.2021,119.967225
167,"['low', 3, 2, True]",TRUE,3,black,45,right,down,low,black_low_45_down,white_low_135_down,2,right,0.2088164,1,120,7,3.2.2021,119.967225
168,"['low', 2, 2, True]",TRUE,2,white,45,left,down,low,white_low_45_down,black_low_135_down,2,left,0.118077,1,120,7,3.2.2021,119.967225
169,"['high', 64, 2, True]",TRUE,64,black,45,right,down,high,black_high_45_down,white_high_135_down,2,right,0.2966976,1,120,7,3.2.2021,119.967225
170,"['low', 64, 2, True]",TRUE,64,black,135,left,down,low,black_low_135_down,white_low_45_down,2,left,0.0935274,1,120,7,3.2.2021,119.967225
171,"['high', 1, 2, False]",FALSE,1,white,135,right,up,high,white_high_135_up,black_high_45_up,2,right,0.7508421,1,120,7,3.2.2021,119.967225
172,"['low', 1, 2, True]",TRUE,1,white,135,right,up,low,white_low_135_up,black_low_45_up,2,right,1.3746249,1,120,7,3.2.2021,119.967225
173,"['high', 3, 60, False]",FALSE,3,black,45,right,down,high,black_high_45_down,white_high_135_down,60,right,0.3064053,1,120,7,3.2.2021,119.967225
174,"['high', 8, 2, True]",TRUE,8,white,135,right,down,high,white_high_135_down,black_high_45_down,2,right,0.2831669,1,120,7,3.2.2021,119.967225
175,"['low', 32, 2, True]",TRUE,32,white,45,left,down,low,white_low_45_down,black_low_135_down,2,left,0.4759821,1,120,7,3.2.2021,119.967225
176,"['high', 1, 2, True]",TRUE,1,white,135,right,up,high,white_high_135_up,black_high_45_up,2,left,0.7810456,0,120,7,3.2.2021,119.967225
177,"['high', 64, 2, True]",TRUE,64,white,45,left,up,high,white_high_45_up,black_high_135_up,2,left,0.3014258,1,120,7,3.2.2021,119.967225
178,"['low', 8, 2, True]",TRUE,8,white,135,right,up,low,white_low_135_up,black_low_45_up,2,right,0.2074047,1,120,7,3.2.2021,119.967225
179,"['low', 4, 2, True]",TRUE,4,white,45,left,up,low,white_low_45_up,black_low_135_up,2,left,0.3336762,1,120,7,3.2.2021,119.967225
180,"['high', 32, 2, True]",TRUE,32,black,45,right,up,high,black_high_45_up,white_high_135_up,2,right,0.1479758,1,120,7,3.2.2021,119.967225
181,"['low', 8, 2, True]",TRUE,8,black,45,right,down,low,black_low_45_down,white_low_135_down,2,right,0.2315377,1,120,7,3.2.2021,119.967225
182,"['high', 2, 2, True]",TRUE,2,black,45,right,down,high,black_high_45_down,white_high_135_down,2,right,0.7383631,1,120,7,3.2.2021,119.967225
183,"['high', 3, 2, True]",TRUE,3,black,135,left,down,high,black_high_135_down,white_high_45_down,2,right,0.4103465,0,120,7,3.2.2021,119.967225
184,"['low', 1, 2, False]",FALSE,1,black,135,left,up,low,black_low_135_up,white_low_45_up,2,left,0.7696315,1,120,7,3.2.2021,119.967225
185,"['high', 3, 60, False]",FALSE,3,black,45,right,down,high,black_high_45_down,white_high_135_down,60,right,0.3057598,1,120,7,3.2.2021,119.967225
186,"['high', 32, 2, True]",TRUE,32,black,135,left,down,high,black_high_135_down,white_high_45_down,2,left,0.0678924,1,120,7,3.2.2021,119.967225
187,"['low', 4, 2, True]",TRUE,4,white,45,left,up,low,white_low_45_up,black_low_135_up,2,left,0.2884261,1,120,7,3.2.2021,119.967225
188,"['low', 64, 2, True]",TRUE,64,black,135,left,down,low,black_low_135_down,white_low_45_down,2,left,0.4713833,1,120,7,3.2.2021,119.967225
189,"['high', 3, 60, False]",FALSE,3,white,45,left,up,high,white_high_45_up,black_high_135_up,60,left,0.3822209,1,120,7,3.2.2021,119.967225
190,"['low', 16, 2, True]",TRUE,16,black,45,right,up,low,black_low_45_up,white_low_135_up,2,right,0.1303086,1,120,7,3.2.2021,119.967225
191,"['high', 2, 2, True]",TRUE,2,white,45,left,down,high,white_high_45_down,black_high_135_down,2,left,0.3570631,1,120,7,3.2.2021,119.967225
192,"['high', 2, 2, True]",TRUE,2,white,45,left,up,high,white_high_45_up,black_high_135_up,2,left,0.2907205,1,120,7,3.2.2021,119.967225
193,"['low', 4, 2, True]",TRUE,4,black,45,right,up,low,black_low_45_up,white_low_135_up,2,right,0.1628198,1,120,7,3.2.2021,119.967225
194,"['high', 4, 2, True]",TRUE,4,black,45,right,up,high,black_high_45_up,white_high_135_up,2,right,0.1461629,1,120,7,3.2.2021,119.967225
195,"['high', 3, 2, True]",TRUE,3,white,135,right,down,high,white_high_135_down,black_high_45_down,2,left,0.5292416,0,120,7,3.2.2021,119.967225
196,"['high', 1, 2, False]",FALSE,1,white,135,right,down,high,white_high_135_down,black_high_45_down,2,left,0.5215852,0,120,7,3.2.2021,119.967225
197,"['high', 1, 2, True]",TRUE,1,black,45,right,up,high,black_high_45_up,white_high_135_up,2,left,0.4291108,0,120,7,3.2.2021,119.967225
198,"['high', 4, 2, True]",TRUE,4,black,45,right,down,high,black_high_45_down,white_high_135_down,2,left,0.6600423,0,120,7,3.2.2021,119.967225
199,"['low', 64, 2, True]",TRUE,64,black,45,right,down,low,black_low_45_down,white_low_135_down,2,right,0.3589875,1,120,7,3.2.2021,119.967225
200,"['high', 1, 2, False]",FALSE,1,black,135,left,down,high,black_high_135_down,white_high_45_down,2,left,0.7255991,1,120,7,3.2.2021,119.967225
201,"['low', 16, 2, True]",TRUE,16,white,45,left,up,low,white_low_45_up,black_low_135_up,2,left,0.0392843,1,120,7,3.2.2021,119.967225
202,"['high', 32, 2, True]",TRUE,32,black,135,left,down,high,black_high_135_down,white_high_45_down,2,left,0.0345323,1,120,7,3.2.2021,119.967225
203,"['low', 4, 2, True]",TRUE,4,black,135,left,down,low,black_low_135_down,white_low_45_down,2,left,0.3440461,1,120,7,3.2.2021,119.967225
204,"['high', 2, 2, True]",TRUE,2,white,45,left,up,high,white_high_45_up,black_high_135_up,2,left,0.1977999,1,120,7,3.2.2021,119.967225
205,"['low', 64, 2, True]",TRUE,64,white,45,left,down,low,white_low_45_down,black_low_135_down,2,left,0.4098872,1,120,7,3.2.2021,119.967225
206,"['low', 32, 2, True]",TRUE,32,white,45,left,down,low,white_low_45_down,black_low_135_down,2,left,0.3888755,1,120,7,3.2.2021,119.967225
207,"['low', 32, 2, True]",TRUE,32,black,45,right,down,low,black_low_45_down,white_low_135_down,2,right,0.4907909,1,120,7,3.2.2021,119.967225
208,"['low', 8, 2, True]",TRUE,8,black,135,left,down,low,black_low_135_down,white_low_45_down,2,left,0.0601269,1,120,7,3.2.2021,119.967225
209,"['low', 8, 2, True]",TRUE,8,black,45,right,down,low,black_low_45_down,white_low_135_down,2,right,0.019994,1,120,7,3.2.2021,119.967225
210,"['low', 3, 2, True]",TRUE,3,white,135,right,down,low,white_low_135_down,black_low_45_down,2,right,0.146911,1,120,7,3.2.2021,119.967225
211,"['high', 8, 2, True]",TRUE,8,white,45,left,up,high,white_high_45_up,black_high_135_up,2,left,0.1192647,1,120,7,3.2.2021,119.967225
212,"['high', 3, 60, False]",FALSE,3,white,135,right,down,high,white_high_135_down,black_high_45_down,60,right,0.2622759,1,120,7,3.2.2021,119.967225
213,"['high', 1, 2, True]",TRUE,1,white,135,right,down,high,white_high_135_down,black_high_45_down,2,right,1.1081425,1,120,7,3.2.2021,119.967225
214,"['low', 2, 2, True]",TRUE,2,black,45,right,up,low,black_low_45_up,white_low_135_up,2,right,2.4659724,1,120,7,3.2.2021,119.967225
215,"['high', 1, 2, False]",FALSE,1,black,135,left,down,high,black_high_135_down,white_high_45_down,2,right,2.3767124,0,120,7,3.2.2021,119.967225
216,"['high', 32, 2, True]",TRUE,32,black,45,right,up,high,black_high_45_up,white_high_135_up,2,right,0.2051877,1,120,7,3.2.2021,119.967225
217,"['high', 64, 2, True]",TRUE,64,black,45,right,down,high,black_high_45_down,white_high_135_down,2,right,0.0542627,1,120,7,3.2.2021,119.967225
218,"['low', 16, 2, True]",TRUE,16,white,135,right,down,low,white_low_135_down,black_low_45_down,2,right,0.1037705,1,120,7,3.2.2021,119.967225
219,"['high', 4, 2, True]",TRUE,4,white,135,right,up,high,white_high_135_up,black_high_45_up,2,left,2.4561262,0,120,7,3.2.2021,119.967225
220,"['low', 64, 2, True]",TRUE,64,black,135,left,up,low,black_low_135_up,white_low_45_up,2,left,0.0614177,1,120,7,3.2.2021,119.967225
221,"['low', 8, 2, True]",TRUE,8,black,135,left,down,low,black_low_135_down,white_low_45_down,2,right,0.3877326,0,120,7,3.2.2021,119.967225
222,"['low', 3, 2, True]",TRUE,3,white,135,right,down,low,white_low_135_down,black_low_45_down,2,right,0.3463614,1,120,7,3.2.2021,119.967225
223,"['low', 3, 2, True]",TRUE,3,white,135,right,down,low,white_low_135_down,black_low_45_down,2,right,0.2666149,1,120,7,3.2.2021,119.967225
224,"['high', 2, 2, True]",TRUE,2,black,135,left,up,high,black_high_135_up,white_high_45_up,2,left,0.3256702,1,120,7,3.2.2021,119.967225
225,"['low', 64, 2, True]",TRUE,64,white,135,right,down,low,white_low_135_down,black_low_45_down,2,right,0.1240565,1,120,7,3.2.2021,119.967225
226,"['high', 64, 2, True]",TRUE,64,black,135,left,up,high,black_high_135_up,white_high_45_up,2,left,0.0953083,1,120,7,3.2.2021,119.967225
227,"['high', 32, 2, True]",TRUE,32,black,45,right,up,high,black_high_45_up,white_high_135_up,2,right,0.3827423,1,120,7,3.2.2021,119.967225
228,"['high', 1, 2, True]",TRUE,1,black,45,right,up,high,black_high_45_up,white_high_135_up,2,left,0.322633,0,120,7,3.2.2021,119.967225
229,"['high', 64, 2, True]",TRUE,64,white,135,right,down,high,white_high_135_down,black_high_45_down,2,right,0.4680381,1,120,7,3.2.2021,119.967225
230,"['high', 32, 2, True]",TRUE,32,black,135,left,up,high,black_high_135_up,white_high_45_up,2,left,0.0201709,1,120,7,3.2.2021,119.967225
231,"['low', 16, 2, True]",TRUE,16,white,45,left,up,low,white_low_45_up,black_low_135_up,2,left,0.1283717,1,120,7,3.2.2021,119.967225
232,"['high', 8, 2, True]",TRUE,8,black,45,right,down,high,black_high_45_down,white_high_135_down,2,right,0.2806416,1,120,7,3.2.2021,119.967225
233,"['high', 1, 2, False]",FALSE,1,white,135,right,down,high,white_high_135_down,black_high_45_down,2,right,0.4772755,1,120,7,3.2.2021,119.967225
234,"['low', 32, 2, True]",TRUE,32,white,45,left,up,low,white_low_45_up,black_low_135_up,2,left,0.0248125,1,120,7,3.2.2021,119.967225
235,"['high', 32, 2, True]",TRUE,32,white,45,left,down,high,white_high_45_down,black_high_135_down,2,left,0.0727346,1,120,7,3.2.2021,119.967225
236,"['low', 1, 2, True]",TRUE,1,black,45,right,up,low,black_low_45_up,white_low_135_up,2,left,1.888734,0,120,7,3.2.2021,119.967225
237,"['high', 1, 2, False]",FALSE,1,white,45,left,up,high,white_high_45_up,black_high_135_up,2,left,0.5884699,1,120,7,3.2.2021,119.967225
238,"['high', 32, 2, True]",TRUE,32,white,45,left,down,high,white_high_45_down,black_high_135_down,2,left,0.058346,1,120,7,3.2.2021,119.967225
239,"['high', 1, 2, False]",FALSE,1,white,45,left,down,high,white_high_45_down,black_high_135_down,2,left,0.5714204,1,120,7,3.2.2021,119.967225
240,"['high', 2, 2, True]",TRUE,2,black,45,right,down,high,black_high_45_down,white_high_135_down,2,left,0.3467956,0,120,7,3.2.2021,119.967225
241,"['high', 16, 2, True]",TRUE,16,white,135,right,down,high,white_high_135_down,black_high_45_down,2,right,0.3738142,1,120,7,3.2.2021,119.967225
242,"['low', 64, 2, True]",TRUE,64,white,45,left,up,low,white_low_45_up,black_low_135_up,2,left,0.0603515,1,120,7,3.2.2021,119.967225
243,"['high', 3, 60, False]",FALSE,3,black,135,left,up,high,black_high_135_up,white_high_45_up,60,left,0.3240067,1,120,7,3.2.2021,119.967225
244,"['low', 3, 2, True]",TRUE,3,black,135,left,up,low,black_low_135_up,white_low_45_up,2,left,0.3006477,1,120,7,3.2.2021,119.967225
245,"['high', 1, 2, False]",FALSE,1,black,45,right,up,high,black_high_45_up,white_high_135_up,2,right,1.9017322,1,120,7,3.2.2021,119.967225
246,"['high', 2, 2, True]",TRUE,2,white,45,left,down,high,white_high_45_down,black_high_135_down,2,right,0.3479061,0,120,7,3.2.2021,119.967225
247,"['low', 3, 2, True]",TRUE,3,black,135,left,up,low,black_low_135_up,white_low_45_up,2,left,0.1466585,1,120,7,3.2.2021,119.967225
248,"['low', 8, 2, True]",TRUE,8,black,45,right,down,low,black_low_45_down,white_low_135_down,2,right,0.1808219,1,120,7,3.2.2021,119.967225
249,"['high', 1, 2, False]",FALSE,1,black,135,left,down,high,black_high_135_down,white_high_45_down,2,left,0.9527629,1,120,7,3.2.2021,119.967225
250,"['high', 4, 2, True]",TRUE,4,white,45,left,down,high,white_high_45_down,black_high_135_down,2,left,0.340163,1,120,7,3.2.2021,119.967225
251,"['high', 16, 2, True]",TRUE,16,black,45,right,down,high,black_high_45_down,white_high_135_down,2,right,0.1570634,1,120,7,3.2.2021,119.967225
252,"['high', 4, 2, True]",TRUE,4,black,45,right,down,high,black_high_45_down,white_high_135_down,2,right,0.2097129,1,120,7,3.2.2021,119.967225
253,"['low', 2, 2, True]",TRUE,2,black,45,right,down,low,black_low_45_down,white_low_135_down,2,right,0.2804596,1,120,7,3.2.2021,119.967225
254,"['low', 64, 2, True]",TRUE,64,black,135,left,down,low,black_low_135_down,white_low_45_down,2,left,0.0100676,1,120,7,3.2.2021,119.967225
255,"['low', 8, 2, True]",TRUE,8,black,135,left,up,low,black_low_135_up,white_low_45_up,2,left,0.1839131,1,120,7,3.2.2021,119.967225
256,"['high', 8, 2, True]",TRUE,8,black,135,left,down,high,black_high_135_down,white_high_45_down,2,left,0.3955082,1,120,7,3.2.2021,119.967225
257,"['low', 16, 2, True]",TRUE,16,white,45,left,down,low,white_low_45_down,black_low_135_down,2,left,0.0723736,1,120,7,3.2.2021,119.967225
258,"['low', 8, 2, True]",TRUE,8,white,45,left,up,low,white_low_45_up,black_low_135_up,2,left,0.3127787,1,120,7,3.2.2021,119.967225
259,"['high', 32, 2, True]",TRUE,32,black,45,right,up,high,black_high_45_up,white_high_135_up,2,right,0.1125769,1,120,7,3.2.2021,119.967225
260,"['high', 4, 2, True]",TRUE,4,black,135,left,up,high,black_high_135_up,white_high_45_up,2,left,0.3620475,1,120,7,3.2.2021,119.967225
261,"['high', 3, 2, True]",TRUE,3,white,45,left,down,high,white_high_45_down,black_high_135_down,2,left,0.2431892,1,120,7,3.2.2021,119.967225
262,"['high', 3, 60, False]",FALSE,3,white,135,right,up,high,white_high_135_up,black_high_45_up,60,right,0.332704,1,120,7,3.2.2021,119.967225
263,"['low', 1, 2, False]",FALSE,1,black,135,left,down,low,black_low_135_down,white_low_45_down,2,left,0.586923,1,120,7,3.2.2021,119.967225
264,"['high', 8, 2, True]",TRUE,8,black,135,left,up,high,black_high_135_up,white_high_45_up,2,left,0.2942903,1,120,7,3.2.2021,119.967225
265,"['high', 32, 2, True]",TRUE,32,white,45,left,down,high,white_high_45_down,black_high_135_down,2,right,0.1457268,0,120,7,3.2.2021,119.967225
266,"['low', 1, 2, True]",TRUE,1,black,135,left,down,low,black_low_135_down,white_low_45_down,2,left,0.9828594,1,120,7,3.2.2021,119.967225
267,"['low', 8, 2, True]",TRUE,8,black,135,left,up,low,black_low_135_up,white_low_45_up,2,left,0.2546686,1,120,7,3.2.2021,119.967225
268,"['high', 64, 2, True]",TRUE,64,white,135,right,up,high,white_high_135_up,black_high_45_up,2,right,0.4130722,1,120,7,3.2.2021,119.967225
269,"['low', 16, 2, True]",TRUE,16,white,135,right,down,low,white_low_135_down,black_low_45_down,2,right,0.0414795,1,120,7,3.2.2021,119.967225
270,"['high', 3, 2, True]",TRUE,3,white,135,right,down,high,white_high_135_down,black_high_45_down,2,right,0.375316,1,120,7,3.2.2021,119.967225
271,"['high', 3, 2, True]",TRUE,3,black,45,right,up,high,black_high_45_up,white_high_135_up,2,right,0.5566693,1,120,7,3.2.2021,119.967225
272,"['high', 16, 2, True]",TRUE,16,black,135,left,up,high,black_high_135_up,white_high_45_up,2,left,0.1558911,1,120,7,3.2.2021,119.967225
273,"['high', 3, 2, True]",TRUE,3,black,135,left,up,high,black_high_135_up,white_high_45_up,2,left,0.3418323,1,120,7,3.2.2021,119.967225
274,"['high', 1, 2, False]",FALSE,1,black,135,left,up,high,black_high_135_up,white_high_45_up,2,right,1.4095208,0,120,7,3.2.2021,119.967225
275,"['low', 3, 2, True]",TRUE,3,black,135,left,down,low,black_low_135_down,white_low_45_down,2,left,0.834432,1,120,7,3.2.2021,119.967225
276,"['high', 32, 2, True]",TRUE,32,white,135,right,up,high,white_high_135_up,black_high_45_up,2,right,0.1395596,1,120,7,3.2.2021,119.967225
277,"['high', 1, 2, True]",TRUE,1,white,135,right,down,high,white_high_135_down,black_high_45_down,2,left,0.3759953,0,120,7,3.2.2021,119.967225
278,"['high', 4, 2, True]",TRUE,4,white,45,left,up,high,white_high_45_up,black_high_135_up,2,left,1.0772303,1,120,7,3.2.2021,119.967225
279,"['high', 1, 2, True]",TRUE,1,black,45,right,down,high,black_high_45_down,white_high_135_down,2,left,0.5829666,0,120,7,3.2.2021,119.967225
280,"['low', 2, 2, True]",TRUE,2,white,135,right,up,low,white_low_135_up,black_low_45_up,2,left,1.0589191,0,120,7,3.2.2021,119.967225
281,"['high', 16, 2, True]",TRUE,16,black,135,left,down,high,black_high_135_down,white_high_45_down,2,right,0.2174187,0,120,7,3.2.2021,119.967225
282,"['low', 64, 2, True]",TRUE,64,white,45,left,up,low,white_low_45_up,black_low_135_up,2,left,0.2809218,1,120,7,3.2.2021,119.967225
283,"['low', 16, 2, True]",TRUE,16,black,45,right,down,low,black_low_45_down,white_low_135_down,2,right,0.3051712,1,120,7,3.2.2021,119.967225
284,"['high', 8, 2, True]",TRUE,8,black,135,left,up,high,black_high_135_up,white_high_45_up,2,left,0.0585225,1,120,7,3.2.2021,119.967225
285,"['low', 32, 2, True]",TRUE,32,black,45,right,down,low,black_low_45_down,white_low_135_down,2,right,0.069305,1,120,7,3.2.2021,119.967225
286,"['high', 3, 2, True]",TRUE,3,black,45,right,down,high,black_high_45_down,white_high_135_down,2,left,0.2472226,0,120,7,3.2.2021,119.967225
287,"['high', 4, 2, True]",TRUE,4,white,135,right,down,high,white_high_135_down,black_high_45_down,2,left,0.2381118,0,120,7,3.2.2021,119.967225
288,"['low', 8, 2, True]",TRUE,8,black,45,right,up,low,black_low_45_up,white_low_135_up,2,right,0.1023022,1,120,7,3.2.2021,119.967225
289,"['low', 32, 2, True]",TRUE,32,black,45,right,down,low,black_low_45_down,white_low_135_down,2,right,3.2477848,1,120,7,3.2.2021,119.967225
290,"['low', 3, 2, True]",TRUE,3,black,45,right,up,low,black_low_45_up,white_low_135_up,2,right,0.7693352,1,120,7,3.2.2021,119.967225
291,"['low', 64, 2, True]",TRUE,64,black,45,right,down,low,black_low_45_down,white_low_135_down,2,right,0.411914,1,120,7,3.2.2021,119.967225
292,"['high', 32, 2, True]",TRUE,32,black,45,right,up,high,black_high_45_up,white_high_135_up,2,right,0.1714135,1,120,7,3.2.2021,119.967225
293,"['high', 3, 60, False]",FALSE,3,black,45,right,up,high,black_high_45_up,white_high_135_up,60,right,0.3684768,1,120,7,3.2.2021,119.967225
294,"['low', 1, 2, True]",TRUE,1,white,45,left,up,low,white_low_45_up,black_low_135_up,2,left,0.4804375,1,120,7,3.2.2021,119.967225
295,"['high', 16, 2, True]",TRUE,16,white,135,right,up,high,white_high_135_up,black_high_45_up,2,right,0.2477894,1,120,7,3.2.2021,119.967225
296,"['low', 1, 2, True]",TRUE,1,white,135,right,up,low,white_low_135_up,black_low_45_up,2,right,0.8679368,1,120,7,3.2.2021,119.967225
297,"['high', 1, 2, False]",FALSE,1,black,135,left,down,high,black_high_135_down,white_high_45_down,2,left,3.1754684,1,120,7,3.2.2021,119.967225
298,"['low', 64, 2, True]",TRUE,64,white,45,left,up,low,white_low_45_up,black_low_135_up,2,left,0.1111622,1,120,7,3.2.2021,119.967225
299,"['high', 1, 2, False]",FALSE,1,white,135,right,down,high,white_high_135_down,black_high_45_down,2,left,0.7975942,0,120,7,3.2.2021,119.967225
300,"['high', 3, 2, True]",TRUE,3,black,135,left,up,high,black_high_135_up,white_high_45_up,2,left,0.4384749,1,120,7,3.2.2021,119.967225
301,"['high', 32, 2, True]",TRUE,32,black,45,right,down,high,black_high_45_down,white_high_135_down,2,right,0.1714465,1,120,7,3.2.2021,119.967225
302,"['high', 3, 2, True]",TRUE,3,white,45,left,up,high,white_high_45_up,black_high_135_up,2,left,0.4878147,1,120,7,3.2.2021,119.967225
303,"['high', 64, 2, True]",TRUE,64,white,45,left,down,high,white_high_45_down,black_high_135_down,2,right,0.2017716,0,120,7,3.2.2021,119.967225
304,"['low', 2, 2, True]",TRUE,2,white,135,right,up,low,white_low_135_up,black_low_45_up,2,right,0.5944956,1,120,7,3.2.2021,119.967225
305,"['high', 2, 2, True]",TRUE,2,black,135,left,down,high,black_high_135_down,white_high_45_down,2,right,0.5571199,0,120,7,3.2.2021,119.967225
306,"['high', 1, 2, False]",FALSE,1,black,135,left,down,high,black_high_135_down,white_high_45_down,2,right,0.6089323,0,120,7,3.2.2021,119.967225
307,"['low', 2, 2, True]",TRUE,2,black,135,left,down,low,black_low_135_down,white_low_45_down,2,right,0.3687233,0,120,7,3.2.2021,119.967225
308,"['low', 8, 2, True]",TRUE,8,black,45,right,down,low,black_low_45_down,white_low_135_down,2,left,0.3296219,0,120,7,3.2.2021,119.967225
309,"['high', 1, 2, False]",FALSE,1,white,45,left,up,high,white_high_45_up,black_high_135_up,2,left,0.8096114,1,120,7,3.2.2021,119.967225
310,"['high', 4, 2, True]",TRUE,4,black,45,right,up,high,black_high_45_up,white_high_135_up,2,left,0.2780683,0,120,7,3.2.2021,119.967225
311,"['low', 3, 2, True]",TRUE,3,white,45,left,down,low,white_low_45_down,black_low_135_down,2,right,0.4856665,0,120,7,3.2.2021,119.967225
312,"['high', 1, 2, True]",TRUE,1,black,45,right,down,high,black_high_45_down,white_high_135_down,2,left,0.4203753,0,120,7,3.2.2021,119.967225
313,"['low', 1, 2, True]",TRUE,1,black,135,left,down,low,black_low_135_down,white_low_45_down,2,right,0.3082921,0,120,7,3.2.2021,119.967225
314,"['high', 16, 2, True]",TRUE,16,black,45,right,down,high,black_high_45_down,white_high_135_down,2,left,0.4442674,0,120,7,3.2.2021,119.967225
315,"['high', 2, 2, True]",TRUE,2,white,135,right,down,high,white_high_135_down,black_high_45_down,2,left,0.2261854,0,120,7,3.2.2021,119.967225
316,"['low', 1, 2, False]",FALSE,1,black,135,left,up,low,black_low_135_up,white_low_45_up,2,right,0.5521,0,120,7,3.2.2021,119.967225
317,"['low', 32, 2, True]",TRUE,32,black,135,left,down,low,black_low_135_down,white_low_45_down,2,right,0.1554792,0,120,7,3.2.2021,119.967225
318,"['low', 64, 2, True]",TRUE,64,white,45,left,down,low,white_low_45_down,black_low_135_down,2,right,0.1215501,0,120,7,3.2.2021,119.967225
319,"['high', 8, 2, True]",TRUE,8,white,45,left,down,high,white_high_45_down,black_high_135_down,2,right,0.234995,0,120,7,3.2.2021,119.967225
320,"['low', 2, 2, True]",TRUE,2,black,135,left,down,low,black_low_135_down,white_low_45_down,2,right,0.2106173,0,120,7,3.2.2021,119.967225
321,"['high', 3, 2, True]",TRUE,3,black,45,right,up,high,black_high_45_up,white_high_135_up,2,left,0.5152342,0,120,7,3.2.2021,119.967225
322,"['low', 16, 2, True]",TRUE,16,black,135,left,up,low,black_low_135_up,white_low_45_up,2,left,0.7137201,1,120,7,3.2.2021,119.967225
323,"['high', 64, 2, True]",TRUE,64,white,45,left,up,high,white_high_45_up,black_high_135_up,2,left,0.0208921,1,120,7,3.2.2021,119.967225
324,"['high', 4, 2, True]",TRUE,4,white,45,left,up,high,white_high_45_up,black_high_135_up,2,left,0.2645292,1,120,7,3.2.2021,119.967225
325,"['low', 1, 2, False]",FALSE,1,white,45,left,down,low,white_low_45_down,black_low_135_down,2,right,2.0265277,0,120,7,3.2.2021,119.967225
326,"['low', 4, 2, True]",TRUE,4,black,45,right,down,low,black_low_45_down,white_low_135_down,2,left,1.5686039,0,120,7,3.2.2021,119.967225
327,"['high', 8, 2, True]",TRUE,8,black,45,right,down,high,black_high_45_down,white_high_135_down,2,right,0.0884185,1,120,7,3.2.2021,119.967225
328,"['low', 1, 2, False]",FALSE,1,black,45,right,down,low,black_low_45_down,white_low_135_down,2,left,0.8244404,0,120,7,3.2.2021,119.967225
329,"['low', 3, 2, True]",TRUE,3,white,135,right,up,low,white_low_135_up,black_low_45_up,2,right,0.2078622,1,120,7,3.2.2021,119.967225
330,"['low', 64, 2, True]",TRUE,64,white,135,right,down,low,white_low_135_down,black_low_45_down,2,right,0.0894519,1,120,7,3.2.2021,119.967225
331,"['high', 16, 2, True]",TRUE,16,white,135,right,down,high,white_high_135_down,black_high_45_down,2,right,0.1392352,1,120,7,3.2.2021,119.967225
332,"['high', 2, 2, True]",TRUE,2,black,45,right,up,high,black_high_45_up,white_high_135_up,2,right,0.7291765,1,120,7,3.2.2021,119.967225
333,"['low', 4, 2, True]",TRUE,4,white,45,left,up,low,white_low_45_up,black_low_135_up,2,left,0.2460294,1,120,7,3.2.2021,119.967225
334,"['low', 16, 2, True]",TRUE,16,black,135,left,down,low,black_low_135_down,white_low_45_down,2,left,0.2207295,1,120,7,3.2.2021,119.967225
335,"['high', 1, 2, True]",TRUE,1,white,45,left,up,high,white_high_45_up,black_high_135_up,2,left,0.3648321,1,120,7,3.2.2021,119.967225
336,"['low', 4, 2, True]",TRUE,4,black,45,right,down,low,black_low_45_down,white_low_135_down,2,right,0.2783289,1,120,7,3.2.2021,119.967225
337,"['low', 32, 2, True]",TRUE,32,white,45,left,up,low,white_low_45_up,black_low_135_up,2,left,0.0686441,1,120,7,3.2.2021,119.967225
338,"['low', 4, 2, True]",TRUE,4,white,45,left,up,low,white_low_45_up,black_low_135_up,2,left,0.1245435,1,120,7,3.2.2021,119.967225
339,"['low', 2, 2, True]",TRUE,2,white,45,left,up,low,white_low_45_up,black_low_135_up,2,left,0.1980979,1,120,7,3.2.2021,119.967225
340,"['high', 8, 2, True]",TRUE,8,black,135,left,up,high,black_high_135_up,white_high_45_up,2,left,0.2770114,1,120,7,3.2.2021,119.967225
341,"['high', 1, 2, False]",FALSE,1,black,135,left,down,high,black_high_135_down,white_high_45_down,2,left,0.4613741,1,120,7,3.2.2021,119.967225
342,"['low', 8, 2, True]",TRUE,8,white,135,right,up,low,white_low_135_up,black_low_45_up,2,right,0.3867946,1,120,7,3.2.2021,119.967225
343,"['low', 16, 2, True]",TRUE,16,black,45,right,up,low,black_low_45_up,white_low_135_up,2,right,2.6518723,1,120,7,3.2.2021,119.967225
344,"['high', 1, 2, True]",TRUE,1,black,45,right,up,high,black_high_45_up,white_high_135_up,2,left,0.3999649,0,120,7,3.2.2021,119.967225
345,"['high', 2, 2, True]",TRUE,2,white,135,right,up,high,white_high_135_up,black_high_45_up,2,right,0.4917912,1,120,7,3.2.2021,119.967225
346,"['high', 64, 2, True]",TRUE,64,black,135,left,down,high,black_high_135_down,white_high_45_down,2,right,0.278384,0,120,7,3.2.2021,119.967225
347,"['high', 1, 2, True]",TRUE,1,black,45,right,up,high,black_high_45_up,white_high_135_up,2,left,0.632058,0,120,7,3.2.2021,119.967225
348,"['high', 3, 60, False]",FALSE,3,black,135,left,up,high,black_high_135_up,white_high_45_up,60,left,0.5033991,1,120,7,3.2.2021,119.967225
349,"['high', 16, 2, True]",TRUE,16,black,45,right,up,high,black_high_45_up,white_high_135_up,2,right,0.2720047,1,120,7,3.2.2021,119.967225
350,"['low', 1, 2, False]",FALSE,1,white,45,left,down,low,white_low_45_down,black_low_135_down,2,left,1.8430513,1,120,7,3.2.2021,119.967225
351,"['low', 32, 2, True]",TRUE,32,black,45,right,up,low,black_low_45_up,white_low_135_up,2,right,0.6123686,1,120,7,3.2.2021,119.967225
352,"['low', 2, 2, True]",TRUE,2,white,135,right,up,low,white_low_135_up,black_low_45_up,2,right,0.5663682,1,120,7,3.2.2021,119.967225
353,"['high', 1, 2, False]",FALSE,1,white,135,right,down,high,white_high_135_down,black_high_45_down,2,right,0.7887744,1,120,7,3.2.2021,119.967225
354,"['high', 4, 2, True]",TRUE,4,black,45,right,up,high,black_high_45_up,white_high_135_up,2,right,4.1238373,1,120,7,3.2.2021,119.967225
355,"['low', 3, 2, True]",TRUE,3,white,45,left,up,low,white_low_45_up,black_low_135_up,2,left,0.3775259,1,120,7,3.2.2021,119.967225
356,"['high', 1, 2, True]",TRUE,1,black,135,left,up,high,black_high_135_up,white_high_45_up,2,left,0.6445518,1,120,7,3.2.2021,119.967225
357,"['low', 8, 2, True]",TRUE,8,black,45,right,down,low,black_low_45_down,white_low_135_down,2,right,0.2173556,1,120,7,3.2.2021,119.967225
358,"['low', 1, 2, True]",TRUE,1,white,135,right,down,low,white_low_135_down,black_low_45_down,2,right,0.3672799,1,120,7,3.2.2021,119.967225
359,"['low', 3, 2, True]",TRUE,3,black,45,right,up,low,black_low_45_up,white_low_135_up,2,right,0.4455597,1,120,7,3.2.2021,119.967225
360,"['high', 3, 2, True]",TRUE,3,white,135,right,up,high,white_high_135_up,black_high_45_up,2,right,0.2847948,1,120,7,3.2.2021,119.967225
361,"['low', 3, 2, True]",TRUE,3,black,135,left,down,low,black_low_135_down,white_low_45_down,2,left,0.510862,1,120,7,3.2.2021,119.967225
362,"['low', 1, 2, False]",FALSE,1,white,45,left,down,low,white_low_45_down,black_low_135_down,2,left,0.7151383,1,120,7,3.2.2021,119.967225
363,"['high', 64, 2, True]",TRUE,64,black,135,left,down,high,black_high_135_down,white_high_45_down,2,left,0.7499215,1,120,7,3.2.2021,119.967225
364,"['low', 1, 2, True]",TRUE,1,white,135,right,up,low,white_low_135_up,black_low_45_up,2,right,0.9040035,1,120,7,3.2.2021,119.967225
365,"['low', 2, 2, True]",TRUE,2,black,45,right,down,low,black_low_45_down,white_low_135_down,2,right,0.8224639,1,120,7,3.2.2021,119.967225
366,"['high', 1, 2, True]",TRUE,1,white,45,left,up,high,white_high_45_up,black_high_135_up,2,left,0.5944489,1,120,7,3.2.2021,119.967225
367,"['high', 64, 2, True]",TRUE,64,black,45,right,up,high,black_high_45_up,white_high_135_up,2,right,0.1014573,1,120,7,3.2.2021,119.967225
368,"['high', 8, 2, True]",TRUE,8,black,135,left,up,high,black_high_135_up,white_high_45_up,2,left,0.2386734,1,120,7,3.2.2021,119.967225
369,"['high', 1, 2, False]",FALSE,1,white,135,right,up,high,white_high_135_up,black_high_45_up,2,right,0.5992211,1,120,7,3.2.2021,119.967225
370,"['low', 4, 2, True]",TRUE,4,white,135,right,down,low,white_low_135_down,black_low_45_down,2,left,2.4910028,0,120,7,3.2.2021,119.967225
371,"['low', 1, 2, False]",FALSE,1,black,45,right,up,low,black_low_45_up,white_low_135_up,2,right,0.561155,1,120,7,3.2.2021,119.967225
372,"['high', 32, 2, True]",TRUE,32,white,45,left,up,high,white_high_45_up,black_high_135_up,2,left,0.2582425,1,120,7,3.2.2021,119.967225
373,"['low', 1, 2, False]",FALSE,1,white,45,left,up,low,white_low_45_up,black_low_135_up,2,right,0.9095858,0,120,7,3.2.2021,119.967225
374,"['low', 32, 2, True]",TRUE,32,black,45,right,up,low,black_low_45_up,white_low_135_up,2,right,0.1254642,1,120,7,3.2.2021,119.967225
375,"['high', 32, 2, True]",TRUE,32,black,45,right,down,high,black_high_45_down,white_high_135_down,2,right,0.0651961,1,120,7,3.2.2021,119.967225
376,"['low', 32, 2, True]",TRUE,32,white,135,right,down,low,white_low_135_down,black_low_45_down,2,right,0.1379864,1,120,7,3.2.2021,119.967225
377,"['low', 16, 2, True]",TRUE,16,black,135,left,down,low,black_low_135_down,white_low_45_down,2,left,0.0391938,1,120,7,3.2.2021,119.967225
378,"['high', 2, 2, True]",TRUE,2,white,45,left,down,high,white_high_45_down,black_high_135_down,2,left,0.2942725,1,120,7,3.2.2021,119.967225
379,"['low', 4, 2, True]",TRUE,4,white,135,right,up,low,white_low_135_up,black_low_45_up,2,right,0.3057702,1,120,7,3.2.2021,119.967225
380,"['low', 1, 2, True]",TRUE,1,white,135,right,up,low,white_low_135_up,black_low_45_up,2,right,1.0365728,1,120,7,3.2.2021,119.967225
381,"['high', 3, 2, True]",TRUE,3,white,135,right,up,high,white_high_135_up,black_high_45_up,2,right,0.5606078,1,120,7,3.2.2021,119.967225
382,"['low', 8, 2, True]",TRUE,8,white,45,left,down,low,white_low_45_down,black_low_135_down,2,left,0.5148556,1,120,7,3.2.2021,119.967225
383,"['high', 64, 2, True]",TRUE,64,white,45,left,down,high,white_high_45_down,black_high_135_down,2,left,0.1544912,1,120,7,3.2.2021,119.967225
384,"['high', 64, 2, True]",TRUE,64,white,135,right,up,high,white_high_135_up,black_high_45_up,2,right,0.0101843,1,120,7,3.2.2021,119.967225
385,"['low', 4, 2, True]",TRUE,4,white,135,right,up,low,white_low_135_up,black_low_45_up,2,right,0.2759232,1,120,7,3.2.2021,119.967225
386,"['low', 2, 2, True]",TRUE,2,black,135,left,down,low,black_low_135_down,white_low_45_down,2,left,0.3934102,1,120,7,3.2.2021,119.967225
387,"['high', 32, 2, True]",TRUE,32,white,135,right,down,high,white_high_135_down,black_high_45_down,2,right,0.1121388,1,120,7,3.2.2021,119.967225
388,"['high', 16, 2, True]",TRUE,16,black,135,left,down,high,black_high_135_down,white_high_45_down,2,left,0.0986888,1,120,7,3.2.2021,119.967225
389,"['low', 16, 2, True]",TRUE,16,black,135,left,down,low,black_low_135_down,white_low_45_down,2,left,0.1358651,1,120,7,3.2.2021,119.967225
390,"['high', 32, 2, True]",TRUE,32,white,45,left,down,high,white_high_45_down,black_high_135_down,2,left,0.1502215,1,120,7,3.2.2021,119.967225
391,"['high', 64, 2, True]",TRUE,64,white,135,right,up,high,white_high_135_up,black_high_45_up,2,right,0.4334563,1,120,7,3.2.2021,119.967225
392,"['low', 4, 2, True]",TRUE,4,black,45,right,down,low,black_low_45_down,white_low_135_down,2,right,0.3056073,1,120,7,3.2.2021,119.967225
393,"['low', 64, 2, True]",TRUE,64,white,135,right,down,low,white_low_135_down,black_low_45_down,2,right,0.2782316,1,120,7,3.2.2021,119.967225
394,"['high', 3, 2, True]",TRUE,3,white,135,right,up,high,white_high_135_up,black_high_45_up,2,right,0.5444675,1,120,7,3.2.2021,119.967225
395,"['low', 1, 2, True]",TRUE,1,black,135,left,up,low,black_low_135_up,white_low_45_up,2,right,0.4789696,0,120,7,3.2.2021,119.967225
396,"['low', 3, 2, True]",TRUE,3,black,45,right,down,low,black_low_45_down,white_low_135_down,2,right,0.3071208,1,120,7,3.2.2021,119.967225
397,"['low', 4, 2, True]",TRUE,4,black,135,left,down,low,black_low_135_down,white_low_45_down,2,left,0.2577127,1,120,7,3.2.2021,119.967225
398,"['high', 3, 2, True]",TRUE,3,black,135,left,down,high,black_high_135_down,white_high_45_down,2,left,0.8515721,1,120,7,3.2.2021,119.967225
399,"['low', 1, 2, True]",TRUE,1,black,135,left,down,low,black_low_135_down,white_low_45_down,2,left,0.8187895,1,120,7,3.2.2021,119.967225
400,"['low', 8, 2, True]",TRUE,8,black,135,left,up,low,black_low_135_up,white_low_45_up,2,left,0.4274084,1,120,7,3.2.2021,119.967225
401,"['low', 32, 2, True]",TRUE,32,black,45,right,up,low,black_low_45_up,white_low_135_up,2,right,0.1245407,1,120,7,3.2.2021,119.967225
402,"['high', 1, 2, True]",TRUE,1,black,135,left,down,high,black_high_135_down,white_high_45_down,2,left,0.6325962,1,120,7,3.2.2021,119.967225
403,"['high', 1, 2, False]",FALSE,1,black,45,right,up,high,black_high_45_up,white_high_135_up,2,right,0.8446906,1,120,7,3.2.2021,119.967225
404,"['high', 3, 2, True]",TRUE,3,black,135,left,up,high,black_high_135_up,white_high_45_up,2,right,0.1680158,0,120,7,3.2.2021,119.967225
405,"['low', 8, 2, True]",TRUE,8,black,45,right,up,low,black_low_45_up,white_low_135_up,2,right,0.0417664,1,120,7,3.2.2021,119.967225
406,"['low', 64, 2, True]",TRUE,64,black,135,left,down,low,black_low_135_down,white_low_45_down,2,left,0.2181265,1,120,7,3.2.2021,119.967225
407,"['low', 2, 2, True]",TRUE,2,white,135,right,down,low,white_low_135_down,black_low_45_down,2,right,0.2600506,1,120,7,3.2.2021,119.967225
408,"['high', 16, 2, True]",TRUE,16,white,45,left,up,high,white_high_45_up,black_high_135_up,2,left,0.1125609,1,120,7,3.2.2021,119.967225
409,"['high', 3, 60, False]",FALSE,3,white,45,left,down,high,white_high_45_down,black_high_135_down,60,left,0.3137275,1,120,7,3.2.2021,119.967225
410,"['high', 3, 60, False]",FALSE,3,white,45,left,up,high,white_high_45_up,black_high_135_up,60,left,0.3573703,1,120,7,3.2.2021,119.967225
411,"['high', 4, 2, True]",TRUE,4,white,135,right,down,high,white_high_135_down,black_high_45_down,2,left,0.8745427,0,120,7,3.2.2021,119.967225
412,"['low', 1, 2, False]",FALSE,1,white,135,right,up,low,white_low_135_up,black_low_45_up,2,right,0.5441898,1,120,7,3.2.2021,119.967225
413,"['high', 2, 2, True]",TRUE,2,white,135,right,up,high,white_high_135_up,black_high_45_up,2,right,0.2616913,1,120,7,3.2.2021,119.967225
414,"['low', 32, 2, True]",TRUE,32,white,45,left,down,low,white_low_45_down,black_low_135_down,2,left,0.673786,1,120,7,3.2.2021,119.967225
415,"['high', 3, 2, True]",TRUE,3,black,135,left,up,high,black_high_135_up,white_high_45_up,2,left,0.2435053,1,120,7,3.2.2021,119.967225
416,"['high', 1, 2, True]",TRUE,1,black,135,left,down,high,black_high_135_down,white_high_45_down,2,left,0.3531834,1,120,7,3.2.2021,119.967225
417,"['low', 4, 2, True]",TRUE,4,white,45,left,down,low,white_low_45_down,black_low_135_down,2,left,0.3293741,1,120,7,3.2.2021,119.967225
418,"['high', 4, 2, True]",TRUE,4,white,45,left,down,high,white_high_45_down,black_high_135_down,2,left,0.2258884,1,120,7,3.2.2021,119.967225
419,"['high', 16, 2, True]",TRUE,16,white,45,left,up,high,white_high_45_up,black_high_135_up,2,left,0.0819561,1,120,7,3.2.2021,119.967225
420,"['low', 8, 2, True]",TRUE,8,white,135,right,up,low,white_low_135_up,black_low_45_up,2,right,0.133856,1,120,7,3.2.2021,119.967225
421,"['low', 16, 2, True]",TRUE,16,white,135,right,up,low,white_low_135_up,black_low_45_up,2,right,0.1106777,1,120,7,3.2.2021,119.967225
422,"['high', 16, 2, True]",TRUE,16,black,45,right,down,high,black_high_45_down,white_high_135_down,2,left,0.1256521,0,120,7,3.2.2021,119.967225
423,"['high', 2, 2, True]",TRUE,2,white,45,left,up,high,white_high_45_up,black_high_135_up,2,left,0.5345391,1,120,7,3.2.2021,119.967225
424,"['low', 1, 2, False]",FALSE,1,white,45,left,down,low,white_low_45_down,black_low_135_down,2,left,0.529467,1,120,7,3.2.2021,119.967225
425,"['high', 3, 2, True]",TRUE,3,white,45,left,down,high,white_high_45_down,black_high_135_down,2,left,0.3732709,1,120,7,3.2.2021,119.967225
426,"['low', 64, 2, True]",TRUE,64,black,45,right,down,low,black_low_45_down,white_low_135_down,2,right,0.2127605,1,120,7,3.2.2021,119.967225
427,"['low', 4, 2, True]",TRUE,4,white,135,right,up,low,white_low_135_up,black_low_45_up,2,right,0.2582796,1,120,7,3.2.2021,119.967225
428,"['low', 2, 2, True]",TRUE,2,black,135,left,down,low,black_low_135_down,white_low_45_down,2,left,0.3053873,1,120,7,3.2.2021,119.967225
429,"['low', 32, 2, True]",TRUE,32,black,135,left,down,low,black_low_135_down,white_low_45_down,2,left,0.0906876,1,120,7,3.2.2021,119.967225
430,"['high', 4, 2, True]",TRUE,4,white,45,left,down,high,white_high_45_down,black_high_135_down,2,left,0.2160672,1,120,7,3.2.2021,119.967225
431,"['low', 1, 2, True]",TRUE,1,black,45,right,up,low,black_low_45_up,white_low_135_up,2,left,0.3677077,0,120,7,3.2.2021,119.967225
432,"['low', 3, 2, True]",TRUE,3,white,45,left,down,low,white_low_45_down,black_low_135_down,2,left,0.1900937,1,120,7,3.2.2021,119.967225
433,"['low', 1, 2, True]",TRUE,1,white,135,right,down,low,white_low_135_down,black_low_45_down,2,right,0.2503443,1,120,7,3.2.2021,119.967225
434,"['low', 1, 2, False]",FALSE,1,white,45,left,up,low,white_low_45_up,black_low_135_up,2,left,0.5243904,1,120,7,3.2.2021,119.967225
435,"['high', 3, 60, False]",FALSE,3,white,135,right,up,high,white_high_135_up,black_high_45_up,60,right,0.3777902,1,120,7,3.2.2021,119.967225
436,"['high', 32, 2, True]",TRUE,32,black,45,right,up,high,black_high_45_up,white_high_135_up,2,right,0.0571139,1,120,7,3.2.2021,119.967225
437,"['high', 8, 2, True]",TRUE,8,black,45,right,up,high,black_high_45_up,white_high_135_up,2,right,0.1486868,1,120,7,3.2.2021,119.967225
438,"['low', 1, 2, False]",FALSE,1,white,45,left,down,low,white_low_45_down,black_low_135_down,2,left,0.9042768,1,120,7,3.2.2021,119.967225
439,"['high', 8, 2, True]",TRUE,8,black,45,right,down,high,black_high_45_down,white_high_135_down,2,right,1.1592485,1,120,7,3.2.2021,119.967225
440,"['low', 8, 2, True]",TRUE,8,black,135,left,down,low,black_low_135_down,white_low_45_down,2,left,1.4202562,1,120,7,3.2.2021,119.967225
441,"['high', 16, 2, True]",TRUE,16,white,135,right,down,high,white_high_135_down,black_high_45_down,2,right,0.316314,1,120,7,3.2.2021,119.967225
442,"['high', 3, 2, True]",TRUE,3,white,45,left,down,high,white_high_45_down,black_high_135_down,2,left,0.8177316,1,120,7,3.2.2021,119.967225
443,"['high', 2, 2, True]",TRUE,2,black,45,right,up,high,black_high_45_up,white_high_135_up,2,right,0.9820637,1,120,7,3.2.2021,119.967225
444,"['high', 2, 2, True]",TRUE,2,white,135,right,up,high,white_high_135_up,black_high_45_up,2,right,0.2998524,1,120,7,3.2.2021,119.967225
445,"['high', 1, 2, False]",FALSE,1,white,45,left,up,high,white_high_45_up,black_high_135_up,2,left,0.6238057,1,120,7,3.2.2021,119.967225
446,"['low', 64, 2, True]",TRUE,64,white,45,left,down,low,white_low_45_down,black_low_135_down,2,left,0.2327937,1,120,7,3.2.2021,119.967225
447,"['high', 16, 2, True]",TRUE,16,black,135,left,up,high,black_high_135_up,white_high_45_up,2,left,0.6125332,1,120,7,3.2.2021,119.967225
448,"['high', 1, 2, False]",FALSE,1,black,135,left,down,high,black_high_135_down,white_high_45_down,2,left,0.5838613,1,120,7,3.2.2021,119.967225
449,"['high', 2, 2, True]",TRUE,2,white,135,right,down,high,white_high_135_down,black_high_45_down,2,left,0.4119809,0,120,7,3.2.2021,119.967225
450,"['low', 4, 2, True]",TRUE,4,black,45,right,down,low,black_low_45_down,white_low_135_down,2,right,0.4085245,1,120,7,3.2.2021,119.967225
451,"['high', 4, 2, True]",TRUE,4,white,135,right,down,high,white_high_135_down,black_high_45_down,2,left,0.6471658,0,120,7,3.2.2021,119.967225
452,"['low', 1, 2, False]",FALSE,1,black,45,right,down,low,black_low_45_down,white_low_135_down,2,right,0.5549221,1,120,7,3.2.2021,119.967225
453,"['high', 1, 2, False]",FALSE,1,black,45,right,up,high,black_high_45_up,white_high_135_up,2,right,0.5773259,1,120,7,3.2.2021,119.967225
454,"['low', 32, 2, True]",TRUE,32,white,135,right,up,low,white_low_135_up,black_low_45_up,2,right,0.1699776,1,120,7,3.2.2021,119.967225
455,"['low', 2, 2, True]",TRUE,2,white,135,right,up,low,white_low_135_up,black_low_45_up,2,right,0.3574866,1,120,7,3.2.2021,119.967225
456,"['low', 4, 2, True]",TRUE,4,white,45,left,down,low,white_low_45_down,black_low_135_down,2,left,0.6295285,1,120,7,3.2.2021,119.967225
457,"['low', 64, 2, True]",TRUE,64,black,45,right,up,low,black_low_45_up,white_low_135_up,2,right,0.0783525,1,120,7,3.2.2021,119.967225
458,"['high', 16, 2, True]",TRUE,16,black,135,left,down,high,black_high_135_down,white_high_45_down,2,left,0.4116211,1,120,7,3.2.2021,119.967225
459,"['high', 8, 2, True]",TRUE,8,black,135,left,down,high,black_high_135_down,white_high_45_down,2,left,0.5768145,1,120,7,3.2.2021,119.967225
460,"['low', 16, 2, True]",TRUE,16,white,135,right,down,low,white_low_135_down,black_low_45_down,2,right,0.2025459,1,120,7,3.2.2021,119.967225
461,"['high', 8, 2, True]",TRUE,8,white,45,left,up,high,white_high_45_up,black_high_135_up,2,left,0.2626278,1,120,7,3.2.2021,119.967225
462,"['high', 16, 2, True]",TRUE,16,white,45,left,up,high,white_high_45_up,black_high_135_up,2,left,0.1445326,1,120,7,3.2.2021,119.967225
463,"['low', 1, 2, True]",TRUE,1,black,135,left,down,low,black_low_135_down,white_low_45_down,2,left,0.5516712,1,120,7,3.2.2021,119.967225
464,"['low', 16, 2, True]",TRUE,16,white,135,right,up,low,white_low_135_up,black_low_45_up,2,right,0.4517728,1,120,7,3.2.2021,119.967225
465,"['high', 3, 2, True]",TRUE,3,white,135,right,down,high,white_high_135_down,black_high_45_down,2,right,0.9771695,1,120,7,3.2.2021,119.967225
466,"['high', 64, 2, True]",TRUE,64,black,135,left,up,high,black_high_135_up,white_high_45_up,2,left,0.1495668,1,120,7,3.2.2021,119.967225
467,"['low', 8, 2, True]",TRUE,8,white,135,right,up,low,white_low_135_up,black_low_45_up,2,right,0.1705565,1,120,7,3.2.2021,119.967225
468,"['high', 16, 2, True]",TRUE,16,white,135,right,up,high,white_high_135_up,black_high_45_up,2,right,0.1281907,1,120,7,3.2.2021,119.967225
469,"['high', 64, 2, True]",TRUE,64,white,45,left,down,high,white_high_45_down,black_high_135_down,2,left,0.1725724,1,120,7,3.2.2021,119.967225
470,"['high', 1, 2, True]",TRUE,1,black,135,left,up,high,black_high_135_up,white_high_45_up,2,left,0.49268,1,120,7,3.2.2021,119.967225
471,"['high', 2, 2, True]",TRUE,2,black,135,left,up,high,black_high_135_up,white_high_45_up,2,right,0.5479324,0,120,7,3.2.2021,119.967225
472,"['low', 8, 2, True]",TRUE,8,white,45,left,down,low,white_low_45_down,black_low_135_down,2,left,0.2804068,1,120,7,3.2.2021,119.967225
473,"['high', 32, 2, True]",TRUE,32,white,45,left,down,high,white_high_45_down,black_high_135_down,2,left,0.5080984,1,120,7,3.2.2021,119.967225
474,"['high', 1, 2, True]",TRUE,1,black,135,left,up,high,black_high_135_up,white_high_45_up,2,left,0.4067649,1,120,7,3.2.2021,119.967225
475,"['low', 1, 2, True]",TRUE,1,white,45,left,up,low,white_low_45_up,black_low_135_up,2,left,0.2811677,1,120,7,3.2.2021,119.967225
476,"['high', 64, 2, True]",TRUE,64,white,135,right,down,high,white_high_135_down,black_high_45_down,2,right,0.1053143,1,120,7,3.2.2021,119.967225
477,"['low', 64, 2, True]",TRUE,64,black,135,left,up,low,black_low_135_up,white_low_45_up,2,left,0.8157937,1,120,7,3.2.2021,119.967225
478,"['high', 64, 2, True]",TRUE,64,white,45,left,up,high,white_high_45_up,black_high_135_up,2,left,0.4558678,1,120,7,3.2.2021,119.967225
479,"['high', 32, 2, True]",TRUE,32,black,45,right,up,high,black_high_45_up,white_high_135_up,2,right,0.085975,1,120,7,3.2.2021,119.967225
480,"['low', 2, 2, True]",TRUE,2,white,135,right,up,low,white_low_135_up,black_low_45_up,2,right,0.3111102,1,120,7,3.2.2021,119.967225
481,"['high', 1, 2, True]",TRUE,1,black,45,right,down,high,black_high_45_down,white_high_135_down,2,right,0.3709627,1,120,7,3.2.2021,119.967225
482,"['high', 3, 2, True]",TRUE,3,black,135,left,down,high,black_high_135_down,white_high_45_down,2,left,0.3281553,1,120,7,3.2.2021,119.967225
483,"['low', 32, 2, True]",TRUE,32,white,45,left,up,low,white_low_45_up,black_low_135_up,2,left,0.067837,1,120,7,3.2.2021,119.967225
484,"['low', 4, 2, True]",TRUE,4,white,45,left,down,low,white_low_45_down,black_low_135_down,2,left,1.4624434,1,120,7,3.2.2021,119.967225
485,"['low', 32, 2, True]",TRUE,32,black,135,left,down,low,black_low_135_down,white_low_45_down,2,left,0.2234112,1,120,7,3.2.2021,119.967225
486,"['high', 4, 2, True]",TRUE,4,black,45,right,up,high,black_high_45_up,white_high_135_up,2,right,0.2302215,1,120,7,3.2.2021,119.967225
487,"['high', 64, 2, True]",TRUE,64,black,45,right,up,high,black_high_45_up,white_high_135_up,2,right,0.4379476,1,120,7,3.2.2021,119.967225
488,"['low', 8, 2, True]",TRUE,8,white,135,right,down,low,white_low_135_down,black_low_45_down,2,right,0.1706621,1,120,7,3.2.2021,119.967225
489,"['high', 4, 2, True]",TRUE,4,white,135,right,up,high,white_high_135_up,black_high_45_up,2,right,0.230791,1,120,7,3.2.2021,119.967225
490,"['low', 16, 2, True]",TRUE,16,black,135,left,down,low,black_low_135_down,white_low_45_down,2,left,0.2027663,1,120,7,3.2.2021,119.967225
491,"['high', 2, 2, True]",TRUE,2,black,45,right,down,high,black_high_45_down,white_high_135_down,2,right,0.4852074,1,120,7,3.2.2021,119.967225
492,"['high', 3, 2, True]",TRUE,3,black,45,right,up,high,black_high_45_up,white_high_135_up,2,right,0.1675794,1,120,7,3.2.2021,119.967225
493,"['high', 64, 2, True]",TRUE,64,black,45,right,down,high,black_high_45_down,white_high_135_down,2,right,0.496597,1,120,7,3.2.2021,119.967225
494,"['low', 4, 2, True]",TRUE,4,white,135,right,up,low,white_low_135_up,black_low_45_up,2,right,0.525006,1,120,7,3.2.2021,119.967225
495,"['high', 1, 2, False]",FALSE,1,white,45,left,down,high,white_high_45_down,black_high_135_down,2,left,0.5519766,1,120,7,3.2.2021,119.967225
496,"['low', 2, 2, True]",TRUE,2,white,45,left,down,low,white_low_45_down,black_low_135_down,2,left,0.297699,1,120,7,3.2.2021,119.967225
497,"['high', 16, 2, True]",TRUE,16,white,135,right,down,high,white_high_135_down,black_high_45_down,2,right,0.1529405,1,120,7,3.2.2021,119.967225
498,"['low', 16, 2, True]",TRUE,16,black,45,right,down,low,black_low_45_down,white_low_135_down,2,right,0.5446131,1,120,7,3.2.2021,119.967225
499,"['high', 8, 2, True]",TRUE,8,white,135,right,down,high,white_high_135_down,black_high_45_down,2,right,0.1320017,1,120,7,3.2.2021,119.967225
500,"['low', 3, 2, True]",TRUE,3,black,45,right,up,low,black_low_45_up,white_low_135_up,2,right,0.2324261,1,120,7,3.2.2021,119.967225
501,"['high', 16, 2, True]",TRUE,16,white,45,left,down,high,white_high_45_down,black_high_135_down,2,left,0.4250231,1,120,7,3.2.2021,119.967225
502,"['low', 4, 2, True]",TRUE,4,black,135,left,up,low,black_low_135_up,white_low_45_up,2,left,0.3509386,1,120,7,3.2.2021,119.967225
503,"['low', 1, 2, True]",TRUE,1,white,45,left,down,low,white_low_45_down,black_low_135_down,2,left,0.3864278,1,120,7,3.2.2021,119.967225
504,"['low', 64, 2, True]",TRUE,64,white,135,right,down,low,white_low_135_down,black_low_45_down,2,right,0.0419648,1,120,7,3.2.2021,119.967225
505,"['low', 16, 2, True]",TRUE,16,black,45,right,up,low,black_low_45_up,white_low_135_up,2,right,0.1540693,1,120,7,3.2.2021,119.967225
506,"['high', 4, 2, True]",TRUE,4,black,45,right,down,high,black_high_45_down,white_high_135_down,2,right,0.4921643,1,120,7,3.2.2021,119.967225
507,"['high', 3, 2, True]",TRUE,3,black,135,left,up,high,black_high_135_up,white_high_45_up,2,right,0.3312873,0,120,7,3.2.2021,119.967225
508,"['high', 4, 2, True]",TRUE,4,white,135,right,up,high,white_high_135_up,black_high_45_up,2,right,0.3482368,1,120,7,3.2.2021,119.967225
509,"['low', 8, 2, True]",TRUE,8,white,135,right,up,low,white_low_135_up,black_low_45_up,2,right,0.2604632,1,120,7,3.2.2021,119.967225
510,"['high', 16, 2, True]",TRUE,16,black,45,right,down,high,black_high_45_down,white_high_135_down,2,right,0.1614096,1,120,7,3.2.2021,119.967225
511,"['low', 4, 2, True]",TRUE,4,white,45,left,down,low,white_low_45_down,black_low_135_down,2,left,0.222906,1,120,7,3.2.2021,119.967225
512,"['low', 8, 2, True]",TRUE,8,white,135,right,up,low,white_low_135_up,black_low_45_up,2,right,0.0544648,1,120,7,3.2.2021,119.967225
513,"['high', 2, 2, True]",TRUE,2,white,135,right,down,high,white_high_135_down,black_high_45_down,2,right,0.5160415,1,120,7,3.2.2021,119.967225
514,"['low', 1, 2, False]",FALSE,1,black,45,right,up,low,black_low_45_up,white_low_135_up,2,right,0.5868789,1,120,7,3.2.2021,119.967225
515,"['low', 32, 2, True]",TRUE,32,white,45,left,down,low,white_low_45_down,black_low_135_down,2,left,0.0316407,1,120,7,3.2.2021,119.967225
516,"['low', 64, 2, True]",TRUE,64,black,45,right,down,low,black_low_45_down,white_low_135_down,2,right,1.0475615,1,120,7,3.2.2021,119.967225
517,"['low', 1, 2, False]",FALSE,1,white,45,left,up,low,white_low_45_up,black_low_135_up,2,left,0.5310789,1,120,7,3.2.2021,119.967225
518,"['low', 8, 2, True]",TRUE,8,black,45,right,up,low,black_low_45_up,white_low_135_up,2,right,0.2344065,1,120,7,3.2.2021,119.967225
519,"['high', 8, 2, True]",TRUE,8,white,135,right,down,high,white_high_135_down,black_high_45_down,2,right,2.101929,1,120,7,3.2.2021,119.967225
520,"['high', 64, 2, True]",TRUE,64,white,135,right,up,high,white_high_135_up,black_high_45_up,2,right,0.2307122,1,120,7,3.2.2021,119.967225
521,"['high', 64, 2, True]",TRUE,64,black,45,right,down,high,black_high_45_down,white_high_135_down,2,right,0.1050036,1,120,7,3.2.2021,119.967225
522,"['low', 64, 2, True]",TRUE,64,black,45,right,up,low,black_low_45_up,white_low_135_up,2,right,0.1145781,1,120,7,3.2.2021,119.967225
523,"['low', 32, 2, True]",TRUE,32,white,45,left,down,low,white_low_45_down,black_low_135_down,2,left,0.4069033,1,120,7,3.2.2021,119.967225
524,"['high', 4, 2, True]",TRUE,4,black,45,right,down,high,black_high_45_down,white_high_135_down,2,left,0.3947905,0,120,7,3.2.2021,119.967225
525,"['low', 64, 2, True]",TRUE,64,white,135,right,up,low,white_low_135_up,black_low_45_up,2,right,0.0202678,1,120,7,3.2.2021,119.967225
526,"['high', 64, 2, True]",TRUE,64,white,45,left,up,high,white_high_45_up,black_high_135_up,2,left,0.359082,1,120,7,3.2.2021,119.967225
527,"['low', 3, 2, True]",TRUE,3,black,45,right,down,low,black_low_45_down,white_low_135_down,2,right,1.5700989,1,120,7,3.2.2021,119.967225
528,"['high', 2, 2, True]",TRUE,2,white,45,left,up,high,white_high_45_up,black_high_135_up,2,left,0.7272913,1,120,7,3.2.2021,119.967225
529,"['low', 16, 2, True]",TRUE,16,black,135,left,down,low,black_low_135_down,white_low_45_down,2,left,0.2212666,1,120,7,3.2.2021,119.967225
530,"['low', 3, 2, True]",TRUE,3,black,135,left,down,low,black_low_135_down,white_low_45_down,2,left,0.2558172,1,120,7,3.2.2021,119.967225
531,"['high', 8, 2, True]",TRUE,8,white,45,left,down,high,white_high_45_down,black_high_135_down,2,left,0.103208,1,120,7,3.2.2021,119.967225
532,"['high', 64, 2, True]",TRUE,64,black,135,left,up,high,black_high_135_up,white_high_45_up,2,left,0.2337299,1,120,7,3.2.2021,119.967225
533,"['low', 1, 2, True]",TRUE,1,white,45,left,up,low,white_low_45_up,black_low_135_up,2,left,0.5570143,1,120,7,3.2.2021,119.967225
534,"['low', 3, 2, True]",TRUE,3,black,45,right,up,low,black_low_45_up,white_low_135_up,2,right,0.2531341,1,120,7,3.2.2021,119.967225
535,"['low', 3, 2, True]",TRUE,3,black,135,left,up,low,black_low_135_up,white_low_45_up,2,left,0.3313849,1,120,7,3.2.2021,119.967225
536,"['low', 4, 2, True]",TRUE,4,black,135,left,up,low,black_low_135_up,white_low_45_up,2,left,0.2952877,1,120,7,3.2.2021,119.967225
537,"['low', 2, 2, True]",TRUE,2,white,135,right,up,low,white_low_135_up,black_low_45_up,2,left,0.4994683,0,120,7,3.2.2021,119.967225
538,"['high', 16, 2, True]",TRUE,16,white,135,right,up,high,white_high_135_up,black_high_45_up,2,right,0.221791,1,120,7,3.2.2021,119.967225
539,"['high', 1, 2, True]",TRUE,1,black,45,right,up,high,black_high_45_up,white_high_135_up,2,left,0.2787622,0,120,7,3.2.2021,119.967225
540,"['high', 16, 2, True]",TRUE,16,white,45,left,up,high,white_high_45_up,black_high_135_up,2,left,0.2321259,1,120,7,3.2.2021,119.967225
541,"['high', 4, 2, True]",TRUE,4,white,45,left,up,high,white_high_45_up,black_high_135_up,2,left,0.2772403,1,120,7,3.2.2021,119.967225
542,"['high', 3, 2, True]",TRUE,3,black,135,left,up,high,black_high_135_up,white_high_45_up,2,left,0.2412541,1,120,7,3.2.2021,119.967225
543,"['low', 1, 2, True]",TRUE,1,black,135,left,down,low,black_low_135_down,white_low_45_down,2,right,0.4432064,0,120,7,3.2.2021,119.967225
544,"['low', 1, 2, True]",TRUE,1,white,45,left,down,low,white_low_45_down,black_low_135_down,2,left,0.5502828,1,120,7,3.2.2021,119.967225
545,"['high', 32, 2, True]",TRUE,32,white,135,right,up,high,white_high_135_up,black_high_45_up,2,right,0.1894107,1,120,7,3.2.2021,119.967225
546,"['high', 1, 2, True]",TRUE,1,white,135,right,down,high,white_high_135_down,black_high_45_down,2,left,0.3831603,0,120,7,3.2.2021,119.967225
547,"['high', 8, 2, True]",TRUE,8,black,45,right,down,high,black_high_45_down,white_high_135_down,2,right,0.5916372,1,120,7,3.2.2021,119.967225
548,"['high', 4, 2, True]",TRUE,4,black,45,right,down,high,black_high_45_down,white_high_135_down,2,right,0.5029808,1,120,7,3.2.2021,119.967225
549,"['low', 1, 2, False]",FALSE,1,black,135,left,up,low,black_low_135_up,white_low_45_up,2,left,0.7832945,1,120,7,3.2.2021,119.967225
550,"['high', 3, 60, False]",FALSE,3,white,45,left,down,high,white_high_45_down,black_high_135_down,60,left,0.6177361,1,120,7,3.2.2021,119.967225
551,"['low', 4, 2, True]",TRUE,4,black,135,left,down,low,black_low_135_down,white_low_45_down,2,left,0.1839769,1,120,7,3.2.2021,119.967225
552,"['high', 3, 2, True]",TRUE,3,black,135,left,down,high,black_high_135_down,white_high_45_down,2,left,0.2542735,1,120,7,3.2.2021,119.967225
553,"['low', 1, 2, False]",FALSE,1,white,135,right,up,low,white_low_135_up,black_low_45_up,2,right,0.5333433,1,120,7,3.2.2021,119.967225
554,"['low', 1, 2, True]",TRUE,1,black,45,right,down,low,black_low_45_down,white_low_135_down,2,left,0.2441898,0,120,7,3.2.2021,119.967225
555,"['low', 3, 2, True]",TRUE,3,white,135,right,down,low,white_low_135_down,black_low_45_down,2,right,0.2248002,1,120,7,3.2.2021,119.967225
556,"['low', 3, 2, True]",TRUE,3,black,45,right,down,low,black_low_45_down,white_low_135_down,2,right,0.2077035,1,120,7,3.2.2021,119.967225
557,"['high', 1, 2, True]",TRUE,1,white,45,left,down,high,white_high_45_down,black_high_135_down,2,left,0.2661966,1,120,7,3.2.2021,119.967225
558,"['low', 16, 2, True]",TRUE,16,black,135,left,down,low,black_low_135_down,white_low_45_down,2,left,0.0462221,1,120,7,3.2.2021,119.967225
559,"['low', 32, 2, True]",TRUE,32,black,135,left,down,low,black_low_135_down,white_low_45_down,2,left,0.1327407,1,120,7,3.2.2021,119.967225
560,"['high', 16, 2, True]",TRUE,16,black,45,right,up,high,black_high_45_up,white_high_135_up,2,right,0.4892425,1,120,7,3.2.2021,119.967225
561,"['high', 3, 2, True]",TRUE,3,black,45,right,up,high,black_high_45_up,white_high_135_up,2,right,0.4325407,1,120,7,3.2.2021,119.967225
562,"['high', 64, 2, True]",TRUE,64,white,135,right,up,high,white_high_135_up,black_high_45_up,2,right,0.3440181,1,120,7,3.2.2021,119.967225
563,"['high', 1, 2, False]",FALSE,1,white,45,left,down,high,white_high_45_down,black_high_135_down,2,left,0.756305,1,120,7,3.2.2021,119.967225
564,"['low', 4, 2, True]",TRUE,4,white,135,right,down,low,white_low_135_down,black_low_45_down,2,right,0.3482659,1,120,7,3.2.2021,119.967225
565,"['low', 4, 2, True]",TRUE,4,white,135,right,up,low,white_low_135_up,black_low_45_up,2,right,0.4627933,1,120,7,3.2.2021,119.967225
566,"['high', 64, 2, True]",TRUE,64,white,135,right,up,high,white_high_135_up,black_high_45_up,2,right,0.2886941,1,120,7,3.2.2021,119.967225
567,"['low', 8, 2, True]",TRUE,8,black,135,left,down,low,black_low_135_down,white_low_45_down,2,right,0.2551338,0,120,7,3.2.2021,119.967225
568,"['low', 16, 2, True]",TRUE,16,black,45,right,up,low,black_low_45_up,white_low_135_up,2,right,0.1664479,1,120,7,3.2.2021,119.967225
569,"['high', 1, 2, False]",FALSE,1,black,45,right,down,high,black_high_45_down,white_high_135_down,2,left,0.8858454,0,120,7,3.2.2021,119.967225
570,"['high', 16, 2, True]",TRUE,16,white,45,left,up,high,white_high_45_up,black_high_135_up,2,left,0.1424146,1,120,7,3.2.2021,119.967225
571,"['low', 1, 2, True]",TRUE,1,white,135,right,up,low,white_low_135_up,black_low_45_up,2,right,0.8278938,1,120,7,3.2.2021,119.967225
572,"['high', 2, 2, True]",TRUE,2,white,135,right,up,high,white_high_135_up,black_high_45_up,2,left,0.3891478,0,120,7,3.2.2021,119.967225
573,"['high', 2, 2, True]",TRUE,2,black,45,right,up,high,black_high_45_up,white_high_135_up,2,left,0.3384261,0,120,7,3.2.2021,119.967225
574,"['low', 16, 2, True]",TRUE,16,black,45,right,up,low,black_low_45_up,white_low_135_up,2,right,0.1972271,1,120,7,3.2.2021,119.967225
575,"['high', 1, 2, True]",TRUE,1,white,45,left,up,high,white_high_45_up,black_high_135_up,2,left,0.3207597,1,120,7,3.2.2021,119.967225
576,"['high', 3, 60, False]",FALSE,3,white,135,right,up,high,white_high_135_up,black_high_45_up,60,right,0.3436468,1,120,7,3.2.2021,119.967225
577,"['high', 1, 2, True]",TRUE,1,white,135,right,up,high,white_high_135_up,black_high_45_up,2,left,0.5189486,0,120,7,3.2.2021,119.967225
578,"['high', 3, 60, False]",FALSE,3,black,135,left,up,high,black_high_135_up,white_high_45_up,60,right,1.1235698,0,120,7,3.2.2021,119.967225
579,"['high', 2, 2, True]",TRUE,2,white,45,left,up,high,white_high_45_up,black_high_135_up,2,left,0.4601187,1,120,7,3.2.2021,119.967225
580,"['low', 4, 2, True]",TRUE,4,black,135,left,down,low,black_low_135_down,white_low_45_down,2,right,0.9744146,0,120,7,3.2.2021,119.967225
581,"['low', 2, 2, True]",TRUE,2,white,135,right,up,low,white_low_135_up,black_low_45_up,2,left,0.8647945,0,120,7,3.2.2021,119.967225
582,"['low', 64, 2, True]",TRUE,64,black,135,left,up,low,black_low_135_up,white_low_45_up,2,left,0.3479122,1,120,7,3.2.2021,119.967225
583,"['high', 1, 2, True]",TRUE,1,white,135,right,down,high,white_high_135_down,black_high_45_down,2,left,0.2679967,0,120,7,3.2.2021,119.967225
584,"['low', 8, 2, True]",TRUE,8,black,45,right,down,low,black_low_45_down,white_low_135_down,2,right,0.2939478,1,120,7,3.2.2021,119.967225
585,"['low', 3, 2, True]",TRUE,3,black,135,left,down,low,black_low_135_down,white_low_45_down,2,left,0.2320593,1,120,7,3.2.2021,119.967225
586,"['high', 3, 2, True]",TRUE,3,white,135,right,down,high,white_high_135_down,black_high_45_down,2,left,0.3076781,0,120,7,3.2.2021,119.967225
587,"['high', 32, 2, True]",TRUE,32,black,45,right,up,high,black_high_45_up,white_high_135_up,2,right,0.0244799,1,120,7,3.2.2021,119.967225
588,"['low', 2, 2, True]",TRUE,2,white,45,left,up,low,white_low_45_up,black_low_135_up,2,left,0.2762037,1,120,7,3.2.2021,119.967225
589,"['high', 2, 2, True]",TRUE,2,white,45,left,down,high,white_high_45_down,black_high_135_down,2,left,0.217809,1,120,7,3.2.2021,119.967225
590,"['high', 4, 2, True]",TRUE,4,white,135,right,down,high,white_high_135_down,black_high_45_down,2,left,0.3059753,0,120,7,3.2.2021,119.967225
591,"['high', 16, 2, True]",TRUE,16,white,135,right,down,high,white_high_135_down,black_high_45_down,2,right,0.2246119,1,120,7,3.2.2021,119.967225
592,"['low', 1, 2, True]",TRUE,1,black,45,right,down,low,black_low_45_down,white_low_135_down,2,right,0.3348213,1,120,7,3.2.2021,119.967225
593,"['low', 32, 2, True]",TRUE,32,black,45,right,up,low,black_low_45_up,white_low_135_up,2,right,0.3494827,1,120,7,3.2.2021,119.967225
594,"['high', 3, 60, False]",FALSE,3,white,135,right,down,high,white_high_135_down,black_high_45_down,60,right,0.5258951,1,120,7,3.2.2021,119.967225
595,"['low', 4, 2, True]",TRUE,4,black,45,right,up,low,black_low_45_up,white_low_135_up,2,right,0.3572871,1,120,7,3.2.2021,119.967225
596,"['high', 4, 2, True]",TRUE,4,white,135,right,down,high,white_high_135_down,black_high_45_down,2,right,0.2100801,1,120,7,3.2.2021,119.967225
597,"['low', 1, 2, False]",FALSE,1,black,135,left,up,low,black_low_135_up,white_low_45_up,2,right,0.5716473,0,120,7,3.2.2021,119.967225
598,"['low', 8, 2, True]",TRUE,8,black,45,right,up,low,black_low_45_up,white_low_135_up,2,right,0.3882681,1,120,7,3.2.2021,119.967225
599,"['high', 3, 60, False]",FALSE,3,white,135,right,up,high,white_high_135_up,black_high_45_up,60,right,0.438114,1,120,7,3.2.2021,119.967225
600,"['low', 3, 2, True]",TRUE,3,white,135,right,down,low,white_low_135_down,black_low_45_down,2,right,0.9744787,1,120,7,3.2.2021,119.967225
601,"['high', 4, 2, True]",TRUE,4,white,45,left,up,high,white_high_45_up,black_high_135_up,2,right,1.8433694,0,120,7,3.2.2021,119.967225
602,"['high', 2, 2, True]",TRUE,2,white,135,right,up,high,white_high_135_up,black_high_45_up,2,left,0.5925194,0,120,7,3.2.2021,119.967225
603,"['low', 32, 2, True]",TRUE,32,black,135,left,up,low,black_low_135_up,white_low_45_up,2,left,0.1746879,1,120,7,3.2.2021,119.967225
604,"['high', 8, 2, True]",TRUE,8,black,135,left,down,high,black_high_135_down,white_high_45_down,2,left,0.196536,1,120,7,3.2.2021,119.967225
605,"['high', 1, 2, False]",FALSE,1,black,135,left,up,high,black_high_135_up,white_high_45_up,2,right,0.4348214,0,120,7,3.2.2021,119.967225
606,"['low', 8, 2, True]",TRUE,8,black,45,right,up,low,black_low_45_up,white_low_135_up,2,right,0.0858612,1,120,7,3.2.2021,119.967225
607,"['low', 32, 2, True]",TRUE,32,black,45,right,up,low,black_low_45_up,white_low_135_up,2,right,0.051552,1,120,7,3.2.2021,119.967225
608,"['low', 2, 2, True]",TRUE,2,black,45,right,down,low,black_low_45_down,white_low_135_down,2,left,0.3585325,0,120,7,3.2.2021,119.967225
609,"['high', 64, 2, True]",TRUE,64,black,135,left,up,high,black_high_135_up,white_high_45_up,2,left,0.3945119,1,120,7,3.2.2021,119.967225
610,"['high', 16, 2, True]",TRUE,16,white,45,left,up,high,white_high_45_up,black_high_135_up,2,left,0.3370661,1,120,7,3.2.2021,119.967225
611,"['high', 1, 2, True]",TRUE,1,black,135,left,down,high,black_high_135_down,white_high_45_down,2,left,0.136245,1,120,7,3.2.2021,119.967225
612,"['low', 4, 2, True]",TRUE,4,white,135,right,up,low,white_low_135_up,black_low_45_up,2,right,0.1510681,1,120,7,3.2.2021,119.967225
613,"['low', 3, 2, True]",TRUE,3,black,45,right,down,low,black_low_45_down,white_low_135_down,2,right,0.1765224,1,120,7,3.2.2021,119.967225
614,"['high', 3, 2, True]",TRUE,3,black,135,left,up,high,black_high_135_up,white_high_45_up,2,right,0.0627084,0,120,7,3.2.2021,119.967225
615,"['low', 1, 2, False]",FALSE,1,white,45,left,up,low,white_low_45_up,black_low_135_up,2,left,0.5048307,1,120,7,3.2.2021,119.967225
616,"['low', 64, 2, True]",TRUE,64,white,135,right,up,low,white_low_135_up,black_low_45_up,2,right,0.0967193,1,120,7,3.2.2021,119.967225
617,"['low', 1, 2, True]",TRUE,1,black,45,right,up,low,black_low_45_up,white_low_135_up,2,right,0.282707,1,120,7,3.2.2021,119.967225
618,"['high', 64, 2, True]",TRUE,64,black,45,right,up,high,black_high_45_up,white_high_135_up,2,right,0.1650721,1,120,7,3.2.2021,119.967225
619,"['high', 4, 2, True]",TRUE,4,black,135,left,up,high,black_high_135_up,white_high_45_up,2,right,0.3249409,0,120,7,3.2.2021,119.967225
620,"['high', 1, 2, False]",FALSE,1,black,135,left,down,high,black_high_135_down,white_high_45_down,2,right,0.7569419,0,120,7,3.2.2021,119.967225
621,"['high', 1, 2, True]",TRUE,1,white,135,right,up,high,white_high_135_up,black_high_45_up,2,right,0.2930235,1,120,7,3.2.2021,119.967225
622,"['low', 1, 2, True]",TRUE,1,black,135,left,up,low,black_low_135_up,white_low_45_up,2,left,0.1474291,1,120,7,3.2.2021,119.967225
623,"['low', 1, 2, True]",TRUE,1,black,45,right,up,low,black_low_45_up,white_low_135_up,2,left,0.1498568,0,120,7,3.2.2021,119.967225
624,"['low', 4, 2, True]",TRUE,4,white,135,right,down,low,white_low_135_down,black_low_45_down,2,right,0.2219675,1,120,7,3.2.2021,119.967225
625,"['low', 32, 2, True]",TRUE,32,white,45,left,down,low,white_low_45_down,black_low_135_down,2,left,0.4460293,1,120,7,3.2.2021,119.967225
626,"['high', 8, 2, True]",TRUE,8,black,45,right,up,high,black_high_45_up,white_high_135_up,2,right,0.0583859,1,120,7,3.2.2021,119.967225
627,"['high', 1, 2, True]",TRUE,1,black,135,left,up,high,black_high_135_up,white_high_45_up,2,left,0.1875684,1,120,7,3.2.2021,119.967225
628,"['high', 64, 2, True]",TRUE,64,black,135,left,up,high,black_high_135_up,white_high_45_up,2,left,0.1027122,1,120,7,3.2.2021,119.967225
629,"['high', 32, 2, True]",TRUE,32,white,45,left,down,high,white_high_45_down,black_high_135_down,2,right,0.0612836,0,120,7,3.2.2021,119.967225
630,"['high', 4, 2, True]",TRUE,4,white,45,left,down,high,white_high_45_down,black_high_135_down,2,right,0.0811774,0,120,7,3.2.2021,119.967225
631,"['high', 3, 60, False]",FALSE,3,black,45,right,up,high,black_high_45_up,white_high_135_up,60,right,1.2607534,1,120,7,3.2.2021,119.967225
632,"['high', 2, 2, True]",TRUE,2,white,45,left,down,high,white_high_45_down,black_high_135_down,2,left,0.3246459,1,120,7,3.2.2021,119.967225
633,"['high', 2, 2, True]",TRUE,2,black,135,left,down,high,black_high_135_down,white_high_45_down,2,left,0.1558145,1,120,7,3.2.2021,119.967225
634,"['low', 3, 2, True]",TRUE,3,white,135,right,down,low,white_low_135_down,black_low_45_down,2,right,0.1735627,1,120,7,3.2.2021,119.967225
635,"['low', 8, 2, True]",TRUE,8,white,45,left,down,low,white_low_45_down,black_low_135_down,2,left,0.0774469,1,120,7,3.2.2021,119.967225
636,"['low', 64, 2, True]",TRUE,64,black,135,left,down,low,black_low_135_down,white_low_45_down,2,left,0.2667662,1,120,7,3.2.2021,119.967225
637,"['high', 2, 2, True]",TRUE,2,black,135,left,down,high,black_high_135_down,white_high_45_down,2,left,0.1878428,1,120,7,3.2.2021,119.967225
638,"['low', 32, 2, True]",TRUE,32,white,45,left,down,low,white_low_45_down,black_low_135_down,2,left,0.0252684,1,120,7,3.2.2021,119.967225
639,"['high', 2, 2, True]",TRUE,2,black,45,right,down,high,black_high_45_down,white_high_135_down,2,left,0.1887924,0,120,7,3.2.2021,119.967225
640,"['high', 16, 2, True]",TRUE,16,black,135,left,down,high,black_high_135_down,white_high_45_down,2,left,0.3690347,1,120,7,3.2.2021,119.967225
641,"['high', 1, 2, False]",FALSE,1,black,135,left,up,high,black_high_135_up,white_high_45_up,2,left,0.4675311,1,120,7,3.2.2021,119.967225
642,"['high', 1, 2, False]",FALSE,1,white,135,right,down,high,white_high_135_down,black_high_45_down,2,right,0.8596952,1,120,7,3.2.2021,119.967225
643,"['high', 1, 2, True]",TRUE,1,black,45,right,down,high,black_high_45_down,white_high_135_down,2,right,0.2435675,1,120,7,3.2.2021,119.967225
644,"['high', 1, 2, True]",TRUE,1,black,135,left,down,high,black_high_135_down,white_high_45_down,2,right,0.0903595,0,120,7,3.2.2021,119.967225
645,"['high', 32, 2, True]",TRUE,32,white,45,left,up,high,white_high_45_up,black_high_135_up,2,left,0.0430149,1,120,7,3.2.2021,119.967225
646,"['high', 1, 2, True]",TRUE,1,black,135,left,down,high,black_high_135_down,white_high_45_down,2,left,0.2955612,1,120,7,3.2.2021,119.967225
647,"['low', 8, 2, True]",TRUE,8,black,45,right,up,low,black_low_45_up,white_low_135_up,2,right,0.2307222,1,120,7,3.2.2021,119.967225
648,"['low', 3, 2, True]",TRUE,3,black,45,right,down,low,black_low_45_down,white_low_135_down,2,right,0.3695163,1,120,7,3.2.2021,119.967225
649,"['high', 64, 2, True]",TRUE,64,black,135,left,down,high,black_high_135_down,white_high_45_down,2,left,0.3421983,1,120,7,3.2.2021,119.967225
650,"['high', 32, 2, True]",TRUE,32,white,45,left,up,high,white_high_45_up,black_high_135_up,2,left,0.0487881,1,120,7,3.2.2021,119.967225
651,"['low', 1, 2, False]",FALSE,1,black,135,left,up,low,black_low_135_up,white_low_45_up,2,left,0.5075537,1,120,7,3.2.2021,119.967225
652,"['high', 1, 2, True]",TRUE,1,black,135,left,down,high,black_high_135_down,white_high_45_down,2,left,0.2988376,1,120,7,3.2.2021,119.967225
653,"['high', 32, 2, True]",TRUE,32,black,45,right,down,high,black_high_45_down,white_high_135_down,2,right,0.0250976,1,120,7,3.2.2021,119.967225
654,"['low', 32, 2, True]",TRUE,32,white,135,right,up,low,white_low_135_up,black_low_45_up,2,right,0.440785,1,120,7,3.2.2021,119.967225
655,"['low', 32, 2, True]",TRUE,32,white,45,left,down,low,white_low_45_down,black_low_135_down,2,left,0.0308207,1,120,7,3.2.2021,119.967225
656,"['low', 8, 2, True]",TRUE,8,black,135,left,up,low,black_low_135_up,white_low_45_up,2,left,0.2540849,1,120,7,3.2.2021,119.967225
657,"['high', 2, 2, True]",TRUE,2,white,135,right,down,high,white_high_135_down,black_high_45_down,2,left,0.3719196,0,120,7,3.2.2021,119.967225
658,"['low', 4, 2, True]",TRUE,4,black,135,left,up,low,black_low_135_up,white_low_45_up,2,left,0.3484823,1,120,7,3.2.2021,119.967225
659,"['high', 32, 2, True]",TRUE,32,black,135,left,down,high,black_high_135_down,white_high_45_down,2,left,0.4865819,1,120,7,3.2.2021,119.967225
660,"['high', 8, 2, True]",TRUE,8,black,45,right,up,high,black_high_45_up,white_high_135_up,2,right,0.1301047,1,120,7,3.2.2021,119.967225
661,"['high', 3, 60, False]",FALSE,3,black,135,left,up,high,black_high_135_up,white_high_45_up,60,left,0.31398,1,120,7,3.2.2021,119.967225
662,"['low', 1, 2, True]",TRUE,1,white,135,right,down,low,white_low_135_down,black_low_45_down,2,right,0.2937351,1,120,7,3.2.2021,119.967225
663,"['low', 32, 2, True]",TRUE,32,black,45,right,up,low,black_low_45_up,white_low_135_up,2,right,0.0351328,1,120,7,3.2.2021,119.967225
664,"['low', 4, 2, True]",TRUE,4,black,45,right,up,low,black_low_45_up,white_low_135_up,2,right,0.1391644,1,120,7,3.2.2021,119.967225
665,"['high', 8, 2, True]",TRUE,8,black,45,right,up,high,black_high_45_up,white_high_135_up,2,right,0.324186,1,120,7,3.2.2021,119.967225
666,"['low', 1, 2, False]",FALSE,1,black,135,left,down,low,black_low_135_down,white_low_45_down,2,left,0.7041957,1,120,7,3.2.2021,119.967225
667,"['low', 16, 2, True]",TRUE,16,white,135,right,down,low,white_low_135_down,black_low_45_down,2,right,0.25694,1,120,7,3.2.2021,119.967225
668,"['high', 4, 2, True]",TRUE,4,black,135,left,up,high,black_high_135_up,white_high_45_up,2,right,0.3426608,0,120,7,3.2.2021,119.967225
669,"['low', 3, 2, True]",TRUE,3,black,135,left,up,low,black_low_135_up,white_low_45_up,2,left,0.1287643,1,120,7,3.2.2021,119.967225
670,"['high', 16, 2, True]",TRUE,16,black,135,left,up,high,black_high_135_up,white_high_45_up,2,left,0.1100598,1,120,7,3.2.2021,119.967225
671,"['low', 8, 2, True]",TRUE,8,black,45,right,up,low,black_low_45_up,white_low_135_up,2,right,1.2031518,1,120,7,3.2.2021,119.967225
672,"['high', 8, 2, True]",TRUE,8,black,135,left,up,high,black_high_135_up,white_high_45_up,2,left,0.0599824,1,120,7,3.2.2021,119.967225
673,"['low', 2, 2, True]",TRUE,2,white,135,right,up,low,white_low_135_up,black_low_45_up,2,right,0.2745879,1,120,7,3.2.2021,119.967225
674,"['high', 2, 2, True]",TRUE,2,black,45,right,down,high,black_high_45_down,white_high_135_down,2,left,0.1826001,0,120,7,3.2.2021,119.967225
675,"['high', 4, 2, True]",TRUE,4,white,45,left,down,high,white_high_45_down,black_high_135_down,2,left,0.3898547,1,120,7,3.2.2021,119.967225
676,"['high', 16, 2, True]",TRUE,16,white,135,right,down,high,white_high_135_down,black_high_45_down,2,right,0.2876404,1,120,7,3.2.2021,119.967225
677,"['high', 16, 2, True]",TRUE,16,black,45,right,up,high,black_high_45_up,white_high_135_up,2,right,0.2756835,1,120,7,3.2.2021,119.967225
678,"['low', 1, 2, True]",TRUE,1,black,135,left,up,low,black_low_135_up,white_low_45_up,2,right,0.4392641,0,120,7,3.2.2021,119.967225
679,"['high', 8, 2, True]",TRUE,8,black,45,right,down,high,black_high_45_down,white_high_135_down,2,right,0.1466956,1,120,7,3.2.2021,119.967225
680,"['high', 1, 2, True]",TRUE,1,white,45,left,up,high,white_high_45_up,black_high_135_up,2,left,0.2403471,1,120,7,3.2.2021,119.967225
681,"['low', 1, 2, False]",FALSE,1,black,45,right,down,low,black_low_45_down,white_low_135_down,2,right,0.3294053,1,120,7,3.2.2021,119.967225
682,"['high', 3, 60, False]",FALSE,3,black,45,right,up,high,black_high_45_up,white_high_135_up,60,right,0.679626,1,120,7,3.2.2021,119.967225
683,"['low', 16, 2, True]",TRUE,16,black,135,left,down,low,black_low_135_down,white_low_45_down,2,left,0.1670858,1,120,7,3.2.2021,119.967225
684,"['high', 32, 2, True]",TRUE,32,black,45,right,up,high,black_high_45_up,white_high_135_up,2,right,0.046635,1,120,7,3.2.2021,119.967225
685,"['high', 2, 2, True]",TRUE,2,white,135,right,up,high,white_high_135_up,black_high_45_up,2,right,0.3879826,1,120,7,3.2.2021,119.967225
686,"['high', 8, 2, True]",TRUE,8,black,135,left,down,high,black_high_135_down,white_high_45_down,2,left,0.4452791,1,120,7,3.2.2021,119.967225
687,"['low', 8, 2, True]",TRUE,8,white,45,left,up,low,white_low_45_up,black_low_135_up,2,left,0.2120973,1,120,7,3.2.2021,119.967225
688,"['low', 4, 2, True]",TRUE,4,black,45,right,up,low,black_low_45_up,white_low_135_up,2,right,0.2199282,1,120,7,3.2.2021,119.967225
689,"['high', 8, 2, True]",TRUE,8,white,135,right,up,high,white_high_135_up,black_high_45_up,2,right,0.5122562,1,120,7,3.2.2021,119.967225
690,"['low', 2, 2, True]",TRUE,2,black,135,left,up,low,black_low_135_up,white_low_45_up,2,left,0.2501344,1,120,7,3.2.2021,119.967225
691,"['low', 1, 2, False]",FALSE,1,white,135,right,up,low,white_low_135_up,black_low_45_up,2,right,0.5260454,1,120,7,3.2.2021,119.967225
692,"['high', 64, 2, True]",TRUE,64,black,135,left,down,high,black_high_135_down,white_high_45_down,2,left,0.167524,1,120,7,3.2.2021,119.967225
693,"['low', 2, 2, True]",TRUE,2,white,135,right,down,low,white_low_135_down,black_low_45_down,2,right,0.179834,1,120,7,3.2.2021,119.967225
694,"['high', 3, 60, False]",FALSE,3,white,45,left,down,high,white_high_45_down,black_high_135_down,60,left,0.2696654,1,120,7,3.2.2021,119.967225
695,"['low', 2, 2, True]",TRUE,2,white,135,right,down,low,white_low_135_down,black_low_45_down,2,right,0.4210105,1,120,7,3.2.2021,119.967225
696,"['low', 64, 2, True]",TRUE,64,black,135,left,down,low,black_low_135_down,white_low_45_down,2,left,0.137695,1,120,7,3.2.2021,119.967225
697,"['low', 64, 2, True]",TRUE,64,white,135,right,down,low,white_low_135_down,black_low_45_down,2,right,0.1453976,1,120,7,3.2.2021,119.967225
698,"['high', 3, 2, True]",TRUE,3,black,45,right,up,high,black_high_45_up,white_high_135_up,2,left,0.254248,0,120,7,3.2.2021,119.967225
699,"['high', 1, 2, True]",TRUE,1,black,135,left,up,high,black_high_135_up,white_high_45_up,2,left,0.2599815,1,120,7,3.2.2021,119.967225
700,"['high', 3, 60, False]",FALSE,3,black,45,right,up,high,black_high_45_up,white_high_135_up,60,right,0.4604647,1,120,7,3.2.2021,119.967225
701,"['low', 3, 2, True]",TRUE,3,white,45,left,up,low,white_low_45_up,black_low_135_up,2,left,0.2502283,1,120,7,3.2.2021,119.967225
702,"['low', 1, 2, False]",FALSE,1,white,135,right,up,low,white_low_135_up,black_low_45_up,2,right,0.5544902,1,120,7,3.2.2021,119.967225
703,"['high', 1, 2, True]",TRUE,1,white,135,right,down,high,white_high_135_down,black_high_45_down,2,left,0.2815952,0,120,7,3.2.2021,119.967225
704,"['low', 32, 2, True]",TRUE,32,black,45,right,up,low,black_low_45_up,white_low_135_up,2,right,0.1435991,1,120,7,3.2.2021,119.967225
705,"['high', 3, 2, True]",TRUE,3,black,135,left,down,high,black_high_135_down,white_high_45_down,2,left,0.2103146,1,120,7,3.2.2021,119.967225
706,"['low', 4, 2, True]",TRUE,4,white,135,right,down,low,white_low_135_down,black_low_45_down,2,right,0.1470219,1,120,7,3.2.2021,119.967225
707,"['high', 8, 2, True]",TRUE,8,white,135,right,down,high,white_high_135_down,black_high_45_down,2,right,0.2583532,1,120,7,3.2.2021,119.967225
708,"['low', 16, 2, True]",TRUE,16,black,45,right,up,low,black_low_45_up,white_low_135_up,2,right,0.1376534,1,120,7,3.2.2021,119.967225
709,"['low', 8, 2, True]",TRUE,8,white,45,left,down,low,white_low_45_down,black_low_135_down,2,left,0.0525677,1,120,7,3.2.2021,119.967225
