trial_number,trial_type,cycle_number,first_color,first_orientation,correct_response,visual_field,spatial_frequency,first_stim,second_stim,stimulus_frame_duration,fixation,answer,rt,accuracy,staircase_dv,staircase_trial_num,staircase_previous_correct,staircase_reversal,staircase_reversal_num,staircase_phase,staircase_step_size,staircase_powers_law,staircase_siam,staircase_over,staircase_name,staircase_conv_p,staircase_step_hit,staircase_step_miss,threshold_low1,threshold_low2,threshold_low3,threshold_low4,threshold_low6,threshold_high1,threshold_high2,threshold_high3,threshold_high4,threshold_high6,frame_rate,participant,psychopyVersion,frame_rate_detected
0,"['high', 4]",4,black,135,left,up,high,black_high_135_up,white_high_45_up,8,1.70448597,right,0.2753437,0,8,0,None,FALSE,0,0,1,1,TRUE,FALSE,high_4,0.75,-1,3,,,,,,,,,,,165,10,3.2.2021,164.9713115
1,"['low', 3]",3,black,45,right,up,low,black_low_45_up,white_low_135_up,3,1.693410224,left,0.1261491,0,3,0,None,FALSE,0,0,1,1,TRUE,FALSE,low_3,0.75,-1,3,,,,,,,,,,,165,10,3.2.2021,164.9713115
2,"['high', 6]",6,black,135,left,up,high,black_high_135_up,white_high_45_up,8,1.331059232,left,0.8220786,1,8,0,None,FALSE,0,0,1,1,TRUE,FALSE,high_6,0.75,-1,3,,,,,,,,,,,165,10,3.2.2021,164.9713115
3,"['low', 1]",1,white,135,right,down,low,white_low_135_down,black_low_45_down,8,1.311820731,right,0.2375407,1,8,0,None,FALSE,0,0,1,1,TRUE,FALSE,low_1,0.75,-1,3,,,,,,,,,,,165,10,3.2.2021,164.9713115
4,"['high', 3]",3,black,135,left,up,high,black_high_135_up,white_high_45_up,8,1.282429027,left,0.7299678,1,8,0,None,FALSE,0,0,1,1,TRUE,FALSE,high_3,0.75,-1,3,,,,,,,,,,,165,10,3.2.2021,164.9713115
5,"['low', 2]",2,black,45,right,down,low,black_low_45_down,white_low_135_down,3,1.329789362,right,0.3532358,1,3,0,None,FALSE,0,0,1,1,TRUE,FALSE,low_2,0.75,-1,3,,,,,,,,,,,165,10,3.2.2021,164.9713115
6,"['high', 3]",3,white,45,left,down,high,white_high_45_down,black_high_135_down,7,1.200648072,left,0.4113649,1,7,1,1,FALSE,0,0,1,1,TRUE,FALSE,high_3,0.75,-1,3,,,,,,,,,,,165,10,3.2.2021,164.9713115
7,"['high', 4]",4,black,45,right,down,high,black_high_45_down,white_high_135_down,11,1.420227134,right,0.3220554,1,11,1,0,FALSE,0,0,1,1,TRUE,FALSE,high_4,0.75,-1,3,,,,,,,,,,,165,10,3.2.2021,164.9713115
8,"['low', 6]",6,black,135,left,up,low,black_low_135_up,white_low_45_up,3,1.594543711,right,0.3033966,0,3,0,None,FALSE,0,0,1,1,TRUE,FALSE,low_6,0.75,-1,3,,,,,,,,,,,165,10,3.2.2021,164.9713115
9,"['high', 4]",4,white,45,left,down,high,white_high_45_down,black_high_135_down,10,1.050148865,left,0.0982264,1,10,2,1,TRUE,1,0,1,1,TRUE,FALSE,high_4,0.75,-1,3,,,,,,,,,,,165,10,3.2.2021,164.9713115
10,"['low', 2]",2,white,45,left,down,low,white_low_45_down,black_low_135_down,2,1.919144331,left,0.2551909,1,2,1,1,FALSE,0,0,1,1,TRUE,FALSE,low_2,0.75,-1,3,,,,,,,,,,,165,10,3.2.2021,164.9713115
11,"['low', 3]",3,black,45,right,down,low,black_low_45_down,white_low_135_down,6,1.714398662,left,0.1432248,0,6,1,0,FALSE,0,0,1,1,TRUE,FALSE,low_3,0.75,-1,3,,,,,,,,,,,165,10,3.2.2021,164.9713115
12,"['low', 2]",2,white,45,left,up,low,white_low_45_up,black_low_135_up,1,1.323703003,right,0.24735,0,1,2,1,FALSE,0,0,1,1,TRUE,FALSE,low_2,0.75,-1,3,,,,,,,,,,,165,10,3.2.2021,164.9713115
13,"['low', 1]",1,black,45,right,down,low,black_low_45_down,white_low_135_down,7,1.176042497,left,0.2157083,0,7,1,1,FALSE,0,0,1,1,TRUE,FALSE,low_1,0.75,-1,3,,,,,,,,,,,165,10,3.2.2021,164.9713115
14,"['high', 2]",2,white,135,right,up,high,white_high_135_up,black_high_45_up,8,1.726889972,left,0.1115071,0,8,0,None,FALSE,0,0,1,1,TRUE,FALSE,high_2,0.75,-1,3,,,,,,,,,,,165,10,3.2.2021,164.9713115
15,"['high', 1]",1,black,45,right,up,high,black_high_45_up,white_high_135_up,12,1.481926901,left,0.2367606,0,12,0,None,FALSE,0,0,1,1,TRUE,FALSE,high_1,0.75,-1,3,,,,,,,,,,,165,10,3.2.2021,164.9713115
16,"['high', 4]",4,black,135,left,down,high,black_high_135_down,white_high_45_down,9,1.685653818,right,0.4448521,0,9,3,1,FALSE,1,0,1,1,TRUE,FALSE,high_4,0.75,-1,3,,,,,,,,,,,165,10,3.2.2021,164.9713115
17,"['high', 3]",3,white,135,right,up,high,white_high_135_up,black_high_45_up,6,1.739137375,right,0.1724119,1,6,2,1,FALSE,0,0,1,1,TRUE,FALSE,high_3,0.75,-1,3,,,,,,,,,,,165,10,3.2.2021,164.9713115
18,"['high', 1]",1,black,45,right,up,high,black_high_45_up,white_high_135_up,15,1.101515834,right,0.246557,1,15,1,0,FALSE,0,0,1,1,TRUE,FALSE,high_1,0.75,-1,3,,,,,,,,,,,165,10,3.2.2021,164.9713115
19,"['high', 4]",4,black,45,right,down,high,black_high_45_down,white_high_135_down,12,1.637602309,right,0.2219512,1,12,4,0,TRUE,2,0,1,1,TRUE,FALSE,high_4,0.75,-1,3,,,,,,,,,,,165,10,3.2.2021,164.9713115
20,"['low', 1]",1,white,135,right,down,low,white_low_135_down,black_low_45_down,10,1.087204466,right,0.6851968,1,10,2,0,TRUE,1,0,1,1,TRUE,FALSE,low_1,0.75,-1,3,,,,,,,,,,,165,10,3.2.2021,164.9713115
21,"['high', 4]",4,black,135,left,down,high,black_high_135_down,white_high_45_down,11,1.409846005,left,0.9037302,1,11,5,1,TRUE,3,0,1,1,TRUE,FALSE,high_4,0.75,-1,3,,,,,,,,,,,165,10,3.2.2021,164.9713115
22,"['high', 2]",2,black,45,right,down,high,black_high_45_down,white_high_135_down,11,1.856086724,right,0.3439527,1,11,1,0,FALSE,0,0,1,1,TRUE,FALSE,high_2,0.75,-1,3,,,,,,,,,,,165,10,3.2.2021,164.9713115
23,"['high', 2]",2,white,45,left,up,high,white_high_45_up,black_high_135_up,10,1.365409357,left,0.2124129,1,10,2,1,TRUE,1,0,1,1,TRUE,FALSE,high_2,0.75,-1,3,,,,,,,,,,,165,10,3.2.2021,164.9713115
24,"['low', 3]",3,black,45,right,down,low,black_low_45_down,white_low_135_down,9,1.210774565,left,0.2355363,0,9,2,0,FALSE,0,0,1,1,TRUE,FALSE,low_3,0.75,-1,3,,,,,,,,,,,165,10,3.2.2021,164.9713115
25,"['high', 6]",6,white,45,left,down,high,white_high_45_down,black_high_135_down,7,1.125067232,left,0.177757,1,7,1,1,FALSE,0,0,1,1,TRUE,FALSE,high_6,0.75,-1,3,,,,,,,,,,,165,10,3.2.2021,164.9713115
26,"['high', 6]",6,black,45,right,down,high,black_high_45_down,white_high_135_down,6,1.064183062,right,0.8479849,1,6,2,1,FALSE,0,0,1,1,TRUE,FALSE,high_6,0.75,-1,3,,,,,,,,,,,165,10,3.2.2021,164.9713115
27,"['high', 6]",6,black,135,left,up,high,black_high_135_up,white_high_45_up,5,1.163621086,left,0.2568729,1,5,3,1,FALSE,0,0,1,1,TRUE,FALSE,high_6,0.75,-1,3,,,,,,,,,,,165,10,3.2.2021,164.9713115
28,"['low', 4]",4,black,135,left,up,low,black_low_135_up,white_low_45_up,3,1.422140147,left,0.5163784,1,3,0,None,FALSE,0,0,1,1,TRUE,FALSE,low_4,0.75,-1,3,,,,,,,,,,,165,10,3.2.2021,164.9713115
29,"['low', 1]",1,black,45,right,down,low,black_low_45_down,white_low_135_down,9,1.823152258,left,0.33331,0,9,3,1,TRUE,2,0,1,1,TRUE,FALSE,low_1,0.75,-1,3,,,,,,,,,,,165,10,3.2.2021,164.9713115
30,"['low', 1]",1,black,135,left,down,low,black_low_135_down,white_low_45_down,12,1.636058241,left,0.3955012,1,12,4,0,TRUE,3,0,1,1,TRUE,FALSE,low_1,0.75,-1,3,,,,,,,,,,,165,10,3.2.2021,164.9713115
31,"['low', 6]",6,white,135,right,down,low,white_low_135_down,black_low_45_down,6,1.578233897,right,0.0108099,1,6,1,0,FALSE,0,0,1,1,TRUE,FALSE,low_6,0.75,-1,3,,,,,,,,,,,165,10,3.2.2021,164.9713115
32,"['high', 6]",6,black,45,right,down,high,black_high_45_down,white_high_135_down,4,1.43404704,right,0.4626095,1,4,4,1,FALSE,0,0,1,1,TRUE,FALSE,high_6,0.75,-1,3,,,,,,,,,,,165,10,3.2.2021,164.9713115
33,"['high', 3]",3,white,135,right,up,high,white_high_135_up,black_high_45_up,5,1.848427164,right,0.3371613,1,5,3,1,FALSE,0,0,1,1,TRUE,FALSE,high_3,0.75,-1,3,,,,,,,,,,,165,10,3.2.2021,164.9713115
34,"['high', 1]",1,black,45,right,up,high,black_high_45_up,white_high_135_up,14,1.852796713,right,0.455444,1,14,2,1,TRUE,1,0,1,1,TRUE,FALSE,high_1,0.75,-1,3,,,,,,,,,,,165,10,3.2.2021,164.9713115
35,"['low', 6]",6,white,135,right,down,low,white_low_135_down,black_low_45_down,5,1.883937242,right,0.3085297,1,5,2,1,TRUE,1,0,1,1,TRUE,FALSE,low_6,0.75,-1,3,,,,,,,,,,,165,10,3.2.2021,164.9713115
36,"['high', 4]",4,white,135,right,down,high,white_high_135_down,black_high_45_down,10,1.02951269,right,0.2183192,1,10,6,1,FALSE,3,0,1,1,TRUE,FALSE,high_4,0.75,-1,3,,,,,,,,,,,165,10,3.2.2021,164.9713115
37,"['high', 2]",2,black,45,right,up,high,black_high_45_up,white_high_135_up,9,1.88883397,right,0.3124245,1,9,3,1,FALSE,1,0,1,1,TRUE,FALSE,high_2,0.75,-1,3,,,,,,,,,,,165,10,3.2.2021,164.9713115
38,"['high', 6]",6,black,45,right,up,high,black_high_45_up,white_high_135_up,3,1.106151896,right,0.3155136,1,3,5,1,FALSE,0,0,1,1,TRUE,FALSE,high_6,0.75,-1,3,,,,,,,,,,,165,10,3.2.2021,164.9713115
39,"['high', 6]",6,black,45,right,up,high,black_high_45_up,white_high_135_up,2,1.746207984,right,0.3542881,1,2,6,1,FALSE,0,0,1,1,TRUE,FALSE,high_6,0.75,-1,3,,,,,,,,,,,165,10,3.2.2021,164.9713115
40,"['low', 1]",1,white,135,right,up,low,white_low_135_up,black_low_45_up,11,1.993551758,right,0.290657,1,11,5,1,TRUE,4,0,1,1,TRUE,FALSE,low_1,0.75,-1,3,,,,,,,,,,,165,10,3.2.2021,164.9713115
41,"['low', 2]",2,white,135,right,up,low,white_low_135_up,black_low_45_up,4,1.586864748,right,0.3577343,1,4,3,0,TRUE,1,0,1,1,TRUE,FALSE,low_2,0.75,-1,3,,,,,,,,,,,165,10,3.2.2021,164.9713115
42,"['low', 3]",3,white,135,right,up,low,white_low_135_up,black_low_45_up,12,1.224041607,right,0.18463,1,12,3,0,FALSE,0,0,1,1,TRUE,FALSE,low_3,0.75,-1,3,,,,,,,,,,,165,10,3.2.2021,164.9713115
43,"['high', 2]",2,white,135,right,down,high,white_high_135_down,black_high_45_down,8,1.488158543,left,0.3682599,0,8,4,1,FALSE,1,0,1,1,TRUE,FALSE,high_2,0.75,-1,3,,,,,,,,,,,165,10,3.2.2021,164.9713115
44,"['high', 2]",2,black,135,left,up,high,black_high_135_up,white_high_45_up,11,1.102276921,right,0.250655,0,11,5,0,TRUE,2,0,1,1,TRUE,FALSE,high_2,0.75,-1,3,,,,,,,,,,,165,10,3.2.2021,164.9713115
45,"['high', 2]",2,white,45,left,down,high,white_high_45_down,black_high_135_down,14,1.963405291,left,0.1612378,1,14,6,0,FALSE,2,0,1,1,TRUE,FALSE,high_2,0.75,-1,3,,,,,,,,,,,165,10,3.2.2021,164.9713115
46,"['high', 3]",3,white,45,left,down,high,white_high_45_down,black_high_135_down,4,1.137134274,left,0.4163802,1,4,4,1,FALSE,0,0,1,1,TRUE,FALSE,high_3,0.75,-1,3,,,,,,,,,,,165,10,3.2.2021,164.9713115
47,"['high', 6]",6,black,135,left,up,high,black_high_135_up,white_high_45_up,1,1.337282766,right,0.2925153,0,1,7,1,FALSE,0,0,1,1,TRUE,FALSE,high_6,0.75,-1,3,,,,,,,,,,,165,10,3.2.2021,164.9713115
48,"['high', 1]",1,black,45,right,down,high,black_high_45_down,white_high_135_down,13,1.371447761,right,0.1749747,1,13,3,1,FALSE,1,0,1,1,TRUE,FALSE,high_1,0.75,-1,3,,,,,,,,,,,165,10,3.2.2021,164.9713115
49,"['high', 3]",3,black,45,right,down,high,black_high_45_down,white_high_135_down,3,1.395512642,right,0.3125721,1,3,5,1,FALSE,0,0,1,1,TRUE,FALSE,high_3,0.75,-1,3,,,,,,,,,,,165,10,3.2.2021,164.9713115
50,"['high', 2]",2,black,45,right,down,high,black_high_45_down,white_high_135_down,13,1.692546637,right,0.238278,1,13,7,1,TRUE,3,0,1,1,TRUE,FALSE,high_2,0.75,-1,3,,,,,,,,,,,165,10,3.2.2021,164.9713115
51,"['high', 1]",1,white,45,left,down,high,white_high_45_down,black_high_135_down,12,1.205733734,left,0.0837864,1,12,4,1,FALSE,1,0,1,1,TRUE,FALSE,high_1,0.75,-1,3,,,,,,,,,,,165,10,3.2.2021,164.9713115
52,"['low', 2]",2,white,135,right,down,low,white_low_135_down,black_low_45_down,3,1.981543074,right,0.4323601,1,3,4,1,TRUE,2,0,1,1,TRUE,FALSE,low_2,0.75,-1,3,,,,,,,,,,,165,10,3.2.2021,164.9713115
53,"['high', 4]",4,black,45,right,down,high,black_high_45_down,white_high_135_down,9,1.897887987,right,0.2929091,1,9,7,1,FALSE,3,0,1,1,TRUE,FALSE,high_4,0.75,-1,3,,,,,,,,,,,165,10,3.2.2021,164.9713115
54,"['low', 6]",6,black,45,right,up,low,black_low_45_up,white_low_135_up,4,1.060479079,right,0.314531,1,4,3,1,FALSE,1,0,1,1,TRUE,FALSE,low_6,0.75,-1,3,,,,,,,,,,,165,10,3.2.2021,164.9713115
55,"['low', 4]",4,black,135,left,up,low,black_low_135_up,white_low_45_up,2,1.206196918,right,0.3789026,0,2,1,1,FALSE,0,0,1,1,TRUE,FALSE,low_4,0.75,-1,3,,,,,,,,,,,165,10,3.2.2021,164.9713115
56,"['low', 2]",2,white,135,right,down,low,white_low_135_down,black_low_45_down,2,1.868515621,right,0.316585,1,2,5,1,FALSE,2,0,1,1,TRUE,FALSE,low_2,0.75,-1,3,,,,,,,,,,,165,10,3.2.2021,164.9713115
57,"['high', 3]",3,black,45,right,down,high,black_high_45_down,white_high_135_down,2,1.264184046,left,0.1687749,0,2,6,1,FALSE,0,0,1,1,TRUE,FALSE,high_3,0.75,-1,3,,,,,,,,,,,165,10,3.2.2021,164.9713115
58,"['low', 2]",2,white,45,left,down,low,white_low_45_down,black_low_135_down,1,1.554435651,left,0.272185,1,1,6,1,FALSE,2,0,1,1,TRUE,FALSE,low_2,0.75,-1,3,,,,,,,,,,,165,10,3.2.2021,164.9713115
59,"['low', 6]",6,black,45,right,up,low,black_low_45_up,white_low_135_up,3,1.467819646,right,0.6377249,1,3,4,1,FALSE,1,0,1,1,TRUE,FALSE,low_6,0.75,-1,3,,,,,,,,,,,165,10,3.2.2021,164.9713115
60,"['low', 3]",3,white,135,right,down,low,white_low_135_down,black_low_45_down,11,1.923777313,right,0.2812744,1,11,4,1,TRUE,1,0,1,1,TRUE,FALSE,low_3,0.75,-1,3,,,,,,,,,,,165,10,3.2.2021,164.9713115
61,"['low', 6]",6,black,135,left,down,low,black_low_135_down,white_low_45_down,2,1.345950578,left,0.2566995,1,2,5,1,FALSE,1,0,1,1,TRUE,FALSE,low_6,0.75,-1,3,,,,,,,,,,,165,10,3.2.2021,164.9713115
62,"['low', 6]",6,white,45,left,up,low,white_low_45_up,black_low_135_up,1,1.709825835,right,0.2387302,0,1,6,1,FALSE,1,0,1,1,TRUE,FALSE,low_6,0.75,-1,3,,,,,,,,,,,165,10,3.2.2021,164.9713115
63,"['low', 4]",4,white,135,right,up,low,white_low_135_up,black_low_45_up,5,1.4253486,right,1.0986679,1,5,2,0,TRUE,1,0,1,1,TRUE,FALSE,low_4,0.75,-1,3,,,,,,,,,,,165,10,3.2.2021,164.9713115
64,"['low', 2]",2,black,45,right,up,low,black_low_45_up,white_low_135_up,1,1.889217544,right,0.2120295,1,1,7,1,FALSE,2,0,1,1,TRUE,FALSE,low_2,0.75,-1,3,,,,,,,,,,,165,10,3.2.2021,164.9713115
65,"['high', 2]",2,white,45,left,up,high,white_high_45_up,black_high_135_up,12,1.390972098,right,0.3066359,0,12,8,1,FALSE,3,0,1,1,TRUE,FALSE,high_2,0.75,-1,3,,,,,,,,,,,165,10,3.2.2021,164.9713115
66,"['low', 4]",4,white,45,left,up,low,white_low_45_up,black_low_135_up,4,1.393552785,left,0.1076698,1,4,3,1,TRUE,2,0,1,1,TRUE,FALSE,low_4,0.75,-1,3,,,,,,,,,,,165,10,3.2.2021,164.9713115
67,"['high', 3]",3,black,135,left,down,high,black_high_135_down,white_high_45_down,5,1.19564346,left,0.2293416,1,5,7,0,TRUE,1,0,1,1,TRUE,FALSE,high_3,0.75,-1,3,,,,,,,,,,,165,10,3.2.2021,164.9713115
68,"['low', 1]",1,black,45,right,down,low,black_low_45_down,white_low_135_down,10,1.688095717,left,0.0069895,0,10,6,1,FALSE,4,0,1,1,TRUE,FALSE,low_1,0.75,-1,3,,,,,,,,,,,165,10,3.2.2021,164.9713115
69,"['low', 2]",2,black,45,right,down,low,black_low_45_down,white_low_135_down,1,1.40626349,left,0.3829091,0,1,8,1,FALSE,2,0,1,1,TRUE,FALSE,low_2,0.75,-1,3,,,,,,,,,,,165,10,3.2.2021,164.9713115
70,"['low', 2]",2,black,45,right,up,low,black_low_45_up,white_low_135_up,4,1.677923066,right,0.0807776,1,4,9,0,TRUE,3,0,1,1,TRUE,FALSE,low_2,0.75,-1,3,,,,,,,,,,,165,10,3.2.2021,164.9713115
71,"['low', 6]",6,black,135,left,down,low,black_low_135_down,white_low_45_down,4,1.351147637,left,0.5365188,1,4,7,0,TRUE,2,0,1,1,TRUE,FALSE,low_6,0.75,-1,3,,,,,,,,,,,165,10,3.2.2021,164.9713115
72,"['high', 3]",3,black,135,left,up,high,black_high_135_up,white_high_45_up,4,1.823049001,right,0.3227911,0,4,8,1,TRUE,2,0,1,1,TRUE,FALSE,high_3,0.75,-1,3,,,,,,,,,,,165,10,3.2.2021,164.9713115
73,"['low', 3]",3,white,135,right,down,low,white_low_135_down,black_low_45_down,10,1.699861176,right,0.9216358,1,10,5,1,FALSE,1,0,1,1,TRUE,FALSE,low_3,0.75,-1,3,,,,,,,,,,,165,10,3.2.2021,164.9713115
74,"['high', 1]",1,white,45,left,up,high,white_high_45_up,black_high_135_up,11,1.297351389,left,0.3642463,1,11,5,1,FALSE,1,0,1,1,TRUE,FALSE,high_1,0.75,-1,3,,,,,,,,,,,165,10,3.2.2021,164.9713115
75,"['low', 2]",2,black,135,left,up,low,black_low_135_up,white_low_45_up,3,1.397054541,right,0.6655291,0,3,10,1,TRUE,4,0,1,1,TRUE,FALSE,low_2,0.75,-1,3,,,,,,,,,,,165,10,3.2.2021,164.9713115
76,"['low', 2]",2,black,135,left,up,low,black_low_135_up,white_low_45_up,6,1.539903439,left,0.3765981,1,6,11,0,TRUE,5,1,1,1,TRUE,FALSE,low_2,0.75,-1,3,,,,,,,,,,,165,10,3.2.2021,164.9713115
77,"['high', 6]",6,white,45,left,down,high,white_high_45_down,black_high_135_down,4,1.318285702,left,0.3383539,1,4,8,0,TRUE,1,0,1,1,TRUE,FALSE,high_6,0.75,-1,3,,,,,,,,,,,165,10,3.2.2021,164.9713115
78,"['high', 1]",1,white,45,left,down,high,white_high_45_down,black_high_135_down,10,1.564516806,left,0.3937311,1,10,6,1,FALSE,1,0,1,1,TRUE,FALSE,high_1,0.75,-1,3,,,,,,,,,,,165,10,3.2.2021,164.9713115
79,"['low', 3]",3,black,45,right,down,low,black_low_45_down,white_low_135_down,9,1.696184427,left,0.3060612,0,9,6,1,FALSE,1,0,1,1,TRUE,FALSE,low_3,0.75,-1,3,,,,,,,,,,,165,10,3.2.2021,164.9713115
80,"['low', 1]",1,black,45,right,down,low,black_low_45_down,white_low_135_down,13,1.991852781,left,0.3229288,0,13,7,0,TRUE,5,1,1,1,TRUE,FALSE,low_1,0.75,-1,3,,,,,,,,,,,165,10,3.2.2021,164.9713115
81,"['high', 2]",2,black,45,right,up,high,black_high_45_up,white_high_135_up,15,1.233911897,left,0.2625007,0,15,9,0,TRUE,4,0,1,1,TRUE,FALSE,high_2,0.75,-1,3,,,,,,,,,,,165,10,3.2.2021,164.9713115
82,"['high', 2]",2,black,45,right,up,high,black_high_45_up,white_high_135_up,18,1.932224721,right,0.4609345,1,18,10,0,FALSE,4,0,1,1,TRUE,FALSE,high_2,0.75,-1,3,,,,,,,,,,,165,10,3.2.2021,164.9713115
83,"['high', 4]",4,black,135,left,down,high,black_high_135_down,white_high_45_down,8,1.225066627,left,0.2650609,1,8,8,1,FALSE,3,0,1,1,TRUE,FALSE,high_4,0.75,-1,3,,,,,,,,,,,165,10,3.2.2021,164.9713115
84,"['low', 3]",3,white,45,left,down,low,white_low_45_down,black_low_135_down,12,1.236493084,left,0.6015938,1,12,7,0,TRUE,2,0,1,1,TRUE,FALSE,low_3,0.75,-1,3,,,,,,,,,,,165,10,3.2.2021,164.9713115
85,"['high', 4]",4,black,135,left,down,high,black_high_135_down,white_high_45_down,7,1.872493063,left,0.2570242,1,7,9,1,FALSE,3,0,1,1,TRUE,FALSE,high_4,0.75,-1,3,,,,,,,,,,,165,10,3.2.2021,164.9713115
86,"['low', 4]",4,white,45,left,down,low,white_low_45_down,black_low_135_down,3,1.469725995,left,0.2254027,1,3,4,1,FALSE,2,0,1,1,TRUE,FALSE,low_4,0.75,-1,3,,,,,,,,,,,165,10,3.2.2021,164.9713115
87,"['low', 4]",4,white,135,right,down,low,white_low_135_down,black_low_45_down,2,1.063830529,left,0.1926655,0,2,5,1,FALSE,2,0,1,1,TRUE,FALSE,low_4,0.75,-1,3,,,,,,,,,,,165,10,3.2.2021,164.9713115
88,"['high', 4]",4,black,45,right,down,high,black_high_45_down,white_high_135_down,6,1.075118214,right,0.2270461,1,6,10,1,FALSE,3,0,1,1,TRUE,FALSE,high_4,0.75,-1,3,,,,,,,,,,,165,10,3.2.2021,164.9713115
89,"['low', 2]",2,black,45,right,up,low,black_low_45_up,white_low_135_up,5,1.774545582,left,0.2715354,0,5,12,1,TRUE,6,1,1,1,TRUE,FALSE,low_2,0.75,-1,3,,,,,,,,,,,165,10,3.2.2021,164.9713115
90,"['low', 3]",3,black,45,right,down,low,black_low_45_down,white_low_135_down,11,1.674409254,right,0.2376502,1,11,8,1,TRUE,3,0,1,1,TRUE,FALSE,low_3,0.75,-1,3,,,,,,,,,,,165,10,3.2.2021,164.9713115
91,"['low', 4]",4,white,45,left,up,low,white_low_45_up,black_low_135_up,5,1.619241968,left,0.1887154,1,5,6,0,TRUE,3,0,1,1,TRUE,FALSE,low_4,0.75,-1,3,,,,,,,,,,,165,10,3.2.2021,164.9713115
92,"['low', 6]",6,black,135,left,up,low,black_low_135_up,white_low_45_up,3,1.388406592,left,0.0778885,1,3,8,1,TRUE,3,0,1,1,TRUE,FALSE,low_6,0.75,-1,3,,,,,,,,,,,165,10,3.2.2021,164.9713115
93,"['high', 1]",1,black,45,right,down,high,black_high_45_down,white_high_135_down,9,1.058278196,left,0.2722109,0,9,7,1,FALSE,1,0,1,1,TRUE,FALSE,high_1,0.75,-1,3,,,,,,,,,,,165,10,3.2.2021,164.9713115
94,"['low', 2]",2,white,45,left,up,low,white_low_45_up,black_low_135_up,8,1.209867232,left,0.1821204,1,8,13,0,TRUE,7,1,1,1,TRUE,FALSE,low_2,0.75,-1,3,,,,,,,,,,,165,10,3.2.2021,164.9713115
95,"['low', 4]",4,black,135,left,up,low,black_low_135_up,white_low_45_up,4,1.952989252,left,0.371767,1,4,7,1,TRUE,4,0,1,1,TRUE,FALSE,low_4,0.75,-1,3,,,,,,,,,,,165,10,3.2.2021,164.9713115
96,"['high', 4]",4,black,45,right,down,high,black_high_45_down,white_high_135_down,5,1.860314103,left,0.2696654,0,5,11,1,FALSE,3,0,1,1,TRUE,FALSE,high_4,0.75,-1,3,,,,,,,,,,,165,10,3.2.2021,164.9713115
97,"['low', 1]",1,black,45,right,up,low,black_low_45_up,white_low_135_up,16,1.10341548,left,0.2743163,0,16,8,0,FALSE,5,1,1,1,TRUE,FALSE,low_1,0.75,-1,3,,,,,,,,,,,165,10,3.2.2021,164.9713115
98,"['low', 4]",4,white,135,right,down,low,white_low_135_down,black_low_45_down,3,1.654870532,left,0.2597284,0,3,8,1,FALSE,4,0,1,1,TRUE,FALSE,low_4,0.75,-1,3,,,,,,,,,,,165,10,3.2.2021,164.9713115
99,"['low', 6]",6,white,45,left,up,low,white_low_45_up,black_low_135_up,2,1.510872696,left,0.4516403,1,2,9,1,FALSE,3,0,1,1,TRUE,FALSE,low_6,0.75,-1,3,,,,,,,,,,,165,10,3.2.2021,164.9713115
100,"['low', 2]",2,black,135,left,up,low,black_low_135_up,white_low_45_up,7,1.37953725,left,0.2424655,1,7,14,1,TRUE,8,1,1,1,TRUE,FALSE,low_2,0.75,-1,3,,,,,,,,,,,165,10,3.2.2021,164.9713115
101,"['low', 3]",3,white,45,left,up,low,white_low_45_up,black_low_135_up,10,1.569446967,left,0.7059017,1,10,9,1,FALSE,3,0,1,1,TRUE,FALSE,low_3,0.75,-1,3,,,,,,,,,,,165,10,3.2.2021,164.9713115
102,"['high', 1]",1,black,135,left,down,high,black_high_135_down,white_high_45_down,12,1.539998995,left,0.3471365,1,12,8,0,TRUE,2,0,1,1,TRUE,FALSE,high_1,0.75,-1,3,,,,,,,,,,,165,10,3.2.2021,164.9713115
103,"['high', 2]",2,white,135,right,down,high,white_high_135_down,black_high_45_down,17,1.522484387,right,0.2133249,1,17,11,1,TRUE,5,1,1,1,TRUE,FALSE,high_2,0.75,-1,3,,,,,,,,,,,165,10,3.2.2021,164.9713115
104,"['high', 3]",3,white,45,left,up,high,white_high_45_up,black_high_135_up,7,1.780541517,left,0.2724031,1,7,9,0,TRUE,3,0,1,1,TRUE,FALSE,high_3,0.75,-1,3,,,,,,,,,,,165,10,3.2.2021,164.9713115
105,"['low', 6]",6,black,135,left,up,low,black_low_135_up,white_low_45_up,1,1.823109441,left,0.2778775,1,1,10,1,FALSE,3,0,1,1,TRUE,FALSE,low_6,0.75,-1,3,,,,,,,,,,,165,10,3.2.2021,164.9713115
106,"['low', 3]",3,white,45,left,up,low,white_low_45_up,black_low_135_up,9,1.476154185,left,0.19068,1,9,10,1,FALSE,3,0,1,1,TRUE,FALSE,low_3,0.75,-1,3,,,,,,,,,,,165,10,3.2.2021,164.9713115
107,"['low', 6]",6,black,135,left,down,low,black_low_135_down,white_low_45_down,1,1.858830237,left,0.3404981,1,1,11,1,FALSE,3,0,1,1,TRUE,FALSE,low_6,0.75,-1,3,,,,,,,,,,,165,10,3.2.2021,164.9713115
108,"['low', 4]",4,black,45,right,up,low,black_low_45_up,white_low_135_up,6,1.391441871,right,0.2756097,1,6,9,0,TRUE,5,1,1,1,TRUE,FALSE,low_4,0.75,-1,3,,,,,,,,,,,165,10,3.2.2021,164.9713115
109,"['high', 6]",6,black,45,right,down,high,black_high_45_down,white_high_135_down,3,1.162464155,right,0.3134988,1,3,9,1,TRUE,2,0,1,1,TRUE,FALSE,high_6,0.75,-1,3,,,,,,,,,,,165,10,3.2.2021,164.9713115
110,"['low', 6]",6,white,45,left,down,low,white_low_45_down,black_low_135_down,1,1.636993623,left,0.3066546,1,1,12,1,FALSE,3,0,1,1,TRUE,FALSE,low_6,0.75,-1,3,,,,,,,,,,,165,10,3.2.2021,164.9713115
111,"['low', 6]",6,white,45,left,down,low,white_low_45_down,black_low_135_down,1,1.505143947,left,0.3063404,1,1,13,1,FALSE,3,0,1,1,TRUE,FALSE,low_6,0.75,-1,3,,,,,,,,,,,165,10,3.2.2021,164.9713115
112,"['low', 6]",6,white,45,left,down,low,white_low_45_down,black_low_135_down,1,1.545420815,left,0.6009801,1,1,14,1,FALSE,3,0,1,1,TRUE,FALSE,low_6,0.75,-1,3,,,,,,,,,,,165,10,3.2.2021,164.9713115
113,"['high', 1]",1,black,135,left,up,high,black_high_135_up,white_high_45_up,11,1.859185556,right,0.3016711,0,11,9,1,TRUE,3,0,1,1,TRUE,FALSE,high_1,0.75,-1,3,,,,,,,,,,,165,10,3.2.2021,164.9713115
114,"['high', 4]",4,white,135,right,down,high,white_high_135_down,black_high_45_down,8,1.557983712,right,0.193284,1,8,12,0,TRUE,4,0,1,1,TRUE,FALSE,high_4,0.75,-1,3,,,,,,,,,,,165,10,3.2.2021,164.9713115
115,"['high', 3]",3,white,135,right,up,high,white_high_135_up,black_high_45_up,6,1.657660901,right,0.2188257,1,6,10,1,TRUE,4,0,1,1,TRUE,FALSE,high_3,0.75,-1,3,,,,,,,,,,,165,10,3.2.2021,164.9713115
116,"['high', 3]",3,black,45,right,up,high,black_high_45_up,white_high_135_up,5,1.682862236,right,1.2980571,1,5,11,1,FALSE,4,0,1,1,TRUE,FALSE,high_3,0.75,-1,3,,,,,,,,,,,165,10,3.2.2021,164.9713115
117,"['high', 6]",6,black,135,left,up,high,black_high_135_up,white_high_45_up,2,1.084295345,left,0.252304,1,2,10,1,FALSE,2,0,1,1,TRUE,FALSE,high_6,0.75,-1,3,,,,,,,,,,,165,10,3.2.2021,164.9713115
118,"['low', 1]",1,white,45,left,up,low,white_low_45_up,black_low_135_up,19,1.264669672,left,0.3381217,1,19,9,0,FALSE,5,1,1,1,TRUE,FALSE,low_1,0.75,-1,3,,,,,,,,,,,165,10,3.2.2021,164.9713115
119,"['high', 2]",2,white,45,left,up,high,white_high_45_up,black_high_135_up,16,1.118884278,right,0.3762898,0,16,12,1,FALSE,5,1,1,1,TRUE,FALSE,high_2,0.75,-1,3,,,,,,,,,,,165,10,3.2.2021,164.9713115
120,"['high', 1]",1,black,45,right,up,high,black_high_45_up,white_high_135_up,14,1.619003701,right,0.2773736,1,14,10,0,TRUE,4,0,1,1,TRUE,FALSE,high_1,0.75,-1,3,,,,,,,,,,,165,10,3.2.2021,164.9713115
121,"['high', 6]",6,white,135,right,up,high,white_high_135_up,black_high_45_up,1,1.219791132,right,0.5154916,1,1,11,1,FALSE,2,0,1,1,TRUE,FALSE,high_6,0.75,-1,3,,,,,,,,,,,165,10,3.2.2021,164.9713115
122,"['high', 3]",3,black,45,right,down,high,black_high_45_down,white_high_135_down,4,1.82671913,right,0.7243183,1,4,12,1,FALSE,4,0,1,1,TRUE,FALSE,high_3,0.75,-1,3,,,,,,,,,,,165,10,3.2.2021,164.9713115
123,"['low', 1]",1,white,135,right,down,low,white_low_135_down,black_low_45_down,18,1.273364896,right,0.7618066,1,18,10,1,TRUE,6,1,1,1,TRUE,FALSE,low_1,0.75,-1,3,,,,,,,,,,,165,10,3.2.2021,164.9713115
124,"['high', 3]",3,white,135,right,down,high,white_high_135_down,black_high_45_down,3,1.016012711,left,0.3132905,0,3,13,1,FALSE,4,0,1,1,TRUE,FALSE,high_3,0.75,-1,3,,,,,,,,,,,165,10,3.2.2021,164.9713115
125,"['low', 4]",4,black,45,right,up,low,black_low_45_up,white_low_135_up,5,1.491431866,right,0.1505776,1,5,10,1,TRUE,6,1,1,1,TRUE,FALSE,low_4,0.75,-1,3,,,,,,,,,,,165,10,3.2.2021,164.9713115
126,"['high', 6]",6,white,45,left,up,high,white_high_45_up,black_high_135_up,1,1.837577465,right,0.1626251,0,1,12,1,FALSE,2,0,1,1,TRUE,FALSE,high_6,0.75,-1,3,,,,,,,,,,,165,10,3.2.2021,164.9713115
127,"['high', 4]",4,white,45,left,down,high,white_high_45_down,black_high_135_down,7,1.768596007,left,0.4787414,1,7,13,1,TRUE,5,1,1,1,TRUE,FALSE,high_4,0.75,-1,3,,,,,,,,,,,165,10,3.2.2021,164.9713115
128,"['low', 2]",2,white,45,left,up,low,white_low_45_up,black_low_135_up,6,1.363471051,right,0.242342,0,6,15,1,FALSE,8,1,1,1,TRUE,FALSE,low_2,0.75,-1,3,,,,,,,,,,,165,10,3.2.2021,164.9713115
129,"['high', 4]",4,black,135,left,up,high,black_high_135_up,white_high_45_up,6,1.232175524,right,0.2949745,0,6,14,1,FALSE,5,1,1,1,TRUE,FALSE,high_4,0.75,-1,3,,,,,,,,,,,165,10,3.2.2021,164.9713115
130,"['high', 3]",3,black,45,right,up,high,black_high_45_up,white_high_135_up,6,1.395102567,right,0.2566929,1,6,14,0,TRUE,5,1,1,1,TRUE,FALSE,high_3,0.75,-1,3,,,,,,,,,,,165,10,3.2.2021,164.9713115
131,"['high', 1]",1,black,135,left,up,high,black_high_135_up,white_high_45_up,13,1.226161677,right,0.6751042,0,13,11,1,TRUE,5,1,1,1,TRUE,FALSE,high_1,0.75,-1,3,,,,,,,,,,,165,10,3.2.2021,164.9713115
132,"['low', 2]",2,black,135,left,up,low,black_low_135_up,white_low_45_up,9,1.9671759,right,0.2598112,0,9,16,0,TRUE,9,1,1,1,TRUE,FALSE,low_2,0.75,-1,3,,,,,,,,,,,165,10,3.2.2021,164.9713115
133,"['low', 3]",3,white,45,left,up,low,white_low_45_up,black_low_135_up,8,1.436578596,left,0.1727922,1,8,11,1,FALSE,3,0,1,1,TRUE,FALSE,low_3,0.75,-1,3,,,,,,,,,,,165,10,3.2.2021,164.9713115
134,"['low', 1]",1,white,135,right,up,low,white_low_135_up,black_low_45_up,17,1.569663201,right,0.4268653,1,17,11,1,FALSE,6,1,1,1,TRUE,FALSE,low_1,0.75,-1,3,,,,,,,,,,,165,10,3.2.2021,164.9713115
135,"['high', 6]",6,black,135,left,up,high,black_high_135_up,white_high_45_up,4,1.6085166,left,0.5235471,1,4,13,0,TRUE,3,0,1,1,TRUE,FALSE,high_6,0.75,-1,3,,,,,,,,,,,165,10,3.2.2021,164.9713115
136,"['low', 3]",3,black,135,left,down,low,black_low_135_down,white_low_45_down,7,1.527854317,left,0.5075724,1,7,12,1,FALSE,3,0,1,1,TRUE,FALSE,low_3,0.75,-1,3,,,,,,,,,,,165,10,3.2.2021,164.9713115
137,"['low', 3]",3,white,135,right,down,low,white_low_135_down,black_low_45_down,6,1.954356098,right,0.2548335,1,6,13,1,FALSE,3,0,1,1,TRUE,FALSE,low_3,0.75,-1,3,,,,,,,,,,,165,10,3.2.2021,164.9713115
138,"['high', 1]",1,white,45,left,up,high,white_high_45_up,black_high_135_up,16,1.618384265,left,0.2003969,1,16,12,0,TRUE,6,1,1,1,TRUE,FALSE,high_1,0.75,-1,3,,,,,,,,,,,165,10,3.2.2021,164.9713115
139,"['low', 6]",6,black,135,left,up,low,black_low_135_up,white_low_45_up,1,1.912152009,left,0.609815,1,1,15,1,FALSE,3,0,1,1,TRUE,FALSE,low_6,0.75,-1,3,,,,,,,,,,,165,10,3.2.2021,164.9713115
140,"['high', 1]",1,black,45,right,up,high,black_high_45_up,white_high_135_up,15,1.930612803,right,0.3990309,1,15,13,1,TRUE,7,1,1,1,TRUE,FALSE,high_1,0.75,-1,3,,,,,,,,,,,165,10,3.2.2021,164.9713115
141,"['low', 4]",4,black,45,right,up,low,black_low_45_up,white_low_135_up,4,1.638551705,right,0.2606732,1,4,11,1,FALSE,6,1,1,1,TRUE,FALSE,low_4,0.75,-1,3,,,,,,,,,,,165,10,3.2.2021,164.9713115
142,"['high', 6]",6,black,135,left,up,high,black_high_135_up,white_high_45_up,3,1.304240239,left,0.2923412,1,3,14,1,TRUE,4,0,1,1,TRUE,FALSE,high_6,0.75,-1,3,,,,,,,,,,,165,10,3.2.2021,164.9713115
143,"['low', 2]",2,black,45,right,down,low,black_low_45_down,white_low_135_down,12,1.373416549,right,0.4772574,1,12,17,0,FALSE,9,1,1,1,TRUE,FALSE,low_2,0.75,-1,3,,,,,,,,,,,165,10,3.2.2021,164.9713115
144,"['high', 2]",2,black,135,left,down,high,black_high_135_down,white_high_45_down,19,1.809001769,left,0.3485313,1,19,13,0,TRUE,6,1,1,1,TRUE,FALSE,high_2,0.75,-1,3,,,,,,,,,,,165,10,3.2.2021,164.9713115
145,"['high', 2]",2,black,135,left,up,high,black_high_135_up,white_high_45_up,18,1.670334895,left,0.7709546,1,18,14,1,TRUE,7,1,1,1,TRUE,FALSE,high_2,0.75,-1,3,,,,,,,,,,,165,10,3.2.2021,164.9713115
146,"['low', 6]",6,white,45,left,up,low,white_low_45_up,black_low_135_up,1,1.494328532,left,0.8220477,1,1,16,1,FALSE,3,0,1,1,TRUE,FALSE,low_6,0.75,-1,3,,,,,,,,,,,165,10,3.2.2021,164.9713115
147,"['high', 1]",1,white,135,right,up,high,white_high_135_up,black_high_45_up,14,1.726375233,right,0.3663514,1,14,14,1,FALSE,7,1,1,1,TRUE,FALSE,high_1,0.75,-1,3,,,,,,,,,,,165,10,3.2.2021,164.9713115
148,"['high', 3]",3,white,45,left,down,high,white_high_45_down,black_high_135_down,5,1.539803936,left,0.3266798,1,5,15,1,TRUE,6,1,1,1,TRUE,FALSE,high_3,0.75,-1,3,,,,,,,,,,,165,10,3.2.2021,164.9713115
149,"['low', 3]",3,white,45,left,down,low,white_low_45_down,black_low_135_down,5,1.233157995,left,0.2292205,1,5,14,1,FALSE,3,0,1,1,TRUE,FALSE,low_3,0.75,-1,3,,,,,,,,,,,165,10,3.2.2021,164.9713115
150,"['high', 3]",3,white,135,right,up,high,white_high_135_up,black_high_45_up,4,1.228833532,right,0.2819823,1,4,16,1,FALSE,6,1,1,1,TRUE,FALSE,high_3,0.75,-1,3,,,,,,,,,,,165,10,3.2.2021,164.9713115
151,"['low', 2]",2,white,45,left,down,low,white_low_45_down,black_low_135_down,11,1.437088325,left,0.549304,1,11,18,1,TRUE,10,1,1,1,TRUE,FALSE,low_2,0.75,-1,3,,,,,,,,,,,165,10,3.2.2021,164.9713115
152,"['low', 2]",2,white,45,left,down,low,white_low_45_down,black_low_135_down,10,1.017213044,left,0.3224796,1,10,19,1,FALSE,10,1,1,1,TRUE,FALSE,low_2,0.75,-1,3,,,,,,,,,,,165,10,3.2.2021,164.9713115
153,"['low', 2]",2,black,45,right,up,low,black_low_45_up,white_low_135_up,9,1.576471515,right,0.3070828,1,9,20,1,FALSE,10,1,1,1,TRUE,FALSE,low_2,0.75,-1,3,,,,,,,,,,,165,10,3.2.2021,164.9713115
154,"['low', 3]",3,black,45,right,down,low,black_low_45_down,white_low_135_down,4,1.326792646,right,0.2639484,1,4,15,1,FALSE,3,0,1,1,TRUE,FALSE,low_3,0.75,-1,3,,,,,,,,,,,165,10,3.2.2021,164.9713115
155,"['high', 3]",3,white,135,right,up,high,white_high_135_up,black_high_45_up,3,1.337705712,right,0.3793864,1,3,17,1,FALSE,6,1,1,1,TRUE,FALSE,high_3,0.75,-1,3,,,,,,,,,,,165,10,3.2.2021,164.9713115
156,"['high', 2]",2,white,45,left,down,high,white_high_45_down,black_high_135_down,17,1.993043856,left,0.1815685,1,17,15,1,FALSE,7,1,1,1,TRUE,FALSE,high_2,0.75,-1,3,,,,,,,,,,,165,10,3.2.2021,164.9713115
157,"['high', 3]",3,black,135,left,down,high,black_high_135_down,white_high_45_down,2,1.078951711,left,0.3415771,1,2,18,1,FALSE,6,1,1,1,TRUE,FALSE,high_3,0.75,-1,3,,,,,,,,,,,165,10,3.2.2021,164.9713115
158,"['low', 1]",1,black,45,right,up,low,black_low_45_up,white_low_135_up,16,1.140540496,right,0.3624952,1,16,12,1,FALSE,6,1,1,1,TRUE,FALSE,low_1,0.75,-1,3,,,,,,,,,,,165,10,3.2.2021,164.9713115
159,"['high', 3]",3,black,135,left,down,high,black_high_135_down,white_high_45_down,1,1.853932678,right,0.4261588,0,1,19,1,FALSE,6,1,1,1,TRUE,FALSE,high_3,0.75,-1,3,,,,,,,,,,,165,10,3.2.2021,164.9713115
160,"['high', 1]",1,white,135,right,up,high,white_high_135_up,black_high_45_up,13,1.077952465,right,0.30332,1,13,15,1,FALSE,7,1,1,1,TRUE,FALSE,high_1,0.75,-1,3,,,,,,,,,,,165,10,3.2.2021,164.9713115
161,"['low', 4]",4,black,45,right,down,low,black_low_45_down,white_low_135_down,3,1.689385353,right,0.2578906,1,3,12,1,FALSE,6,1,1,1,TRUE,FALSE,low_4,0.75,-1,3,,,,,,,,,,,165,10,3.2.2021,164.9713115
162,"['high', 6]",6,black,135,left,up,high,black_high_135_up,white_high_45_up,2,1.698106934,left,0.2977688,1,2,15,1,FALSE,4,0,1,1,TRUE,FALSE,high_6,0.75,-1,3,,,,,,,,,,,165,10,3.2.2021,164.9713115
163,"['low', 4]",4,white,135,right,up,low,white_low_135_up,black_low_45_up,2,1.916207292,right,0.312906,1,2,13,1,FALSE,6,1,1,1,TRUE,FALSE,low_4,0.75,-1,3,,,,,,,,,,,165,10,3.2.2021,164.9713115
164,"['low', 3]",3,white,135,right,down,low,white_low_135_down,black_low_45_down,3,1.1853692,right,0.3054956,1,3,16,1,FALSE,3,0,1,1,TRUE,FALSE,low_3,0.75,-1,3,,,,,,,,,,,165,10,3.2.2021,164.9713115
165,"['low', 4]",4,black,45,right,up,low,black_low_45_up,white_low_135_up,1,1.464718611,right,0.3264815,1,1,14,1,FALSE,6,1,1,1,TRUE,FALSE,low_4,0.75,-1,3,,,,,,,,,,,165,10,3.2.2021,164.9713115
166,"['low', 6]",6,white,45,left,down,low,white_low_45_down,black_low_135_down,1,1.261537228,left,0.3357307,1,1,17,1,FALSE,3,0,1,1,TRUE,FALSE,low_6,0.75,-1,3,,,,,,,,,,,165,10,3.2.2021,164.9713115
167,"['low', 1]",1,black,135,left,up,low,black_low_135_up,white_low_45_up,15,1.510259818,right,0.2781428,0,15,13,1,FALSE,6,1,1,1,TRUE,FALSE,low_1,0.75,-1,3,,,,,,,,,,,165,10,3.2.2021,164.9713115
168,"['low', 4]",4,black,135,left,down,low,black_low_135_down,white_low_45_down,1,1.342969575,left,0.3099625,1,1,15,1,FALSE,6,1,1,1,TRUE,FALSE,low_4,0.75,-1,3,,,,,,,,,,,165,10,3.2.2021,164.9713115
169,"['low', 4]",4,black,135,left,up,low,black_low_135_up,white_low_45_up,1,1.299849556,right,0.9148078,0,1,16,1,FALSE,6,1,1,1,TRUE,FALSE,low_4,0.75,-1,3,,,,,,,,,,,165,10,3.2.2021,164.9713115
170,"['high', 6]",6,white,135,right,up,high,white_high_135_up,black_high_45_up,1,1.686857153,left,0.3289081,0,1,16,1,FALSE,4,0,1,1,TRUE,FALSE,high_6,0.75,-1,3,,,,,,,,,,,165,10,3.2.2021,164.9713115
171,"['high', 4]",4,black,45,right,down,high,black_high_45_down,white_high_135_down,9,1.540457896,right,0.1455894,1,9,15,0,TRUE,6,1,1,1,TRUE,FALSE,high_4,0.75,-1,3,,,,,,,,,,,165,10,3.2.2021,164.9713115
172,"['high', 2]",2,black,45,right,up,high,black_high_45_up,white_high_135_up,16,1.554483103,right,0.5263009,1,16,16,1,FALSE,7,1,1,1,TRUE,FALSE,high_2,0.75,-1,3,,,,,,,,,,,165,10,3.2.2021,164.9713115
173,"['low', 6]",6,black,135,left,down,low,black_low_135_down,white_low_45_down,1,1.0017417,left,0.321291,1,1,18,1,FALSE,3,0,1,1,TRUE,FALSE,low_6,0.75,-1,3,,,,,,,,,,,165,10,3.2.2021,164.9713115
174,"['low', 6]",6,black,45,right,down,low,black_low_45_down,white_low_135_down,1,1.932028574,left,0.3144624,0,1,19,1,FALSE,3,0,1,1,TRUE,FALSE,low_6,0.75,-1,3,,,,,,,,,,,165,10,3.2.2021,164.9713115
175,"['high', 3]",3,white,135,right,up,high,white_high_135_up,black_high_45_up,4,1.621578179,right,0.2536641,1,4,20,0,TRUE,7,1,1,1,TRUE,FALSE,high_3,0.75,-1,3,,,,,,,,,,,165,10,3.2.2021,164.9713115
176,"['high', 3]",3,black,45,right,down,high,black_high_45_down,white_high_135_down,3,1.800639429,left,0.2323466,0,3,21,1,TRUE,8,1,1,1,TRUE,FALSE,high_3,0.75,-1,3,,,,,,,,,,,165,10,3.2.2021,164.9713115
177,"['high', 1]",1,black,45,right,up,high,black_high_45_up,white_high_135_up,12,1.122857148,right,0.2993541,1,12,16,1,FALSE,7,1,1,1,TRUE,FALSE,high_1,0.75,-1,3,,,,,,,,,,,165,10,3.2.2021,164.9713115
178,"['high', 3]",3,black,135,left,up,high,black_high_135_up,white_high_45_up,6,1.733187167,right,0.3042212,0,6,22,0,TRUE,9,1,1,1,TRUE,FALSE,high_3,0.75,-1,3,,,,,,,,,,,165,10,3.2.2021,164.9713115
179,"['high', 2]",2,white,135,right,down,high,white_high_135_down,black_high_45_down,15,1.687849605,right,0.1993723,1,15,17,1,FALSE,7,1,1,1,TRUE,FALSE,high_2,0.75,-1,3,,,,,,,,,,,165,10,3.2.2021,164.9713115
180,"['low', 1]",1,black,45,right,down,low,black_low_45_down,white_low_135_down,18,1.228291417,left,0.1752167,0,18,14,0,TRUE,7,1,1,1,TRUE,FALSE,low_1,0.75,-1,3,,,,,,,,,,,165,10,3.2.2021,164.9713115
181,"['low', 4]",4,black,135,left,down,low,black_low_135_down,white_low_45_down,4,1.028439791,left,0.3314794,1,4,17,0,TRUE,7,1,1,1,TRUE,FALSE,low_4,0.75,-1,3,,,,,,,,,,,165,10,3.2.2021,164.9713115
182,"['low', 1]",1,white,45,left,down,low,white_low_45_down,black_low_135_down,21,1.734721658,left,0.1727047,1,21,15,0,FALSE,7,1,1,1,TRUE,FALSE,low_1,0.75,-1,3,,,,,,,,,,,165,10,3.2.2021,164.9713115
183,"['low', 1]",1,white,135,right,down,low,white_low_135_down,black_low_45_down,20,1.956604368,right,0.2556202,1,20,16,1,TRUE,8,1,1,1,TRUE,FALSE,low_1,0.75,-1,3,,,,,,,,,,,165,10,3.2.2021,164.9713115
184,"['low', 2]",2,white,135,right,up,low,white_low_135_up,black_low_45_up,8,1.351833197,right,0.3460184,1,8,21,1,FALSE,10,1,1,1,TRUE,FALSE,low_2,0.75,-1,3,,,,,,,,,,,165,10,3.2.2021,164.9713115
185,"['low', 3]",3,black,135,left,down,low,black_low_135_down,white_low_45_down,2,1.098659556,left,0.3166502,1,2,17,1,FALSE,3,0,1,1,TRUE,FALSE,low_3,0.75,-1,3,,,,,,,,,,,165,10,3.2.2021,164.9713115
186,"['high', 2]",2,black,135,left,down,high,black_high_135_down,white_high_45_down,14,1.476058485,right,0.2973417,0,14,18,1,FALSE,7,1,1,1,TRUE,FALSE,high_2,0.75,-1,3,,,,,,,,,,,165,10,3.2.2021,164.9713115
187,"['low', 2]",2,black,135,left,down,low,black_low_135_down,white_low_45_down,7,1.071127666,left,0.2018346,1,7,22,1,FALSE,10,1,1,1,TRUE,FALSE,low_2,0.75,-1,3,,,,,,,,,,,165,10,3.2.2021,164.9713115
188,"['high', 6]",6,black,135,left,up,high,black_high_135_up,white_high_45_up,4,1.44832125,right,0.2617756,0,4,17,0,TRUE,5,1,1,1,TRUE,FALSE,high_6,0.75,-1,3,,,,,,,,,,,165,10,3.2.2021,164.9713115
189,"['low', 3]",3,white,45,left,down,low,white_low_45_down,black_low_135_down,1,1.058026944,right,0.3958415,0,1,18,1,FALSE,3,0,1,1,TRUE,FALSE,low_3,0.75,-1,3,,,,,,,,,,,165,10,3.2.2021,164.9713115
190,"['high', 2]",2,black,135,left,down,high,black_high_135_down,white_high_45_down,17,1.163650775,left,0.1945884,1,17,19,0,TRUE,8,1,1,1,TRUE,FALSE,high_2,0.75,-1,3,,,,,,,,,,,165,10,3.2.2021,164.9713115
191,"['high', 6]",6,white,45,left,up,high,white_high_45_up,black_high_135_up,7,1.976523799,left,0.0730958,1,7,18,0,FALSE,5,1,1,1,TRUE,FALSE,high_6,0.75,-1,3,,,,,,,,,,,165,10,3.2.2021,164.9713115
192,"['low', 3]",3,white,135,right,down,low,white_low_135_down,black_low_45_down,4,1.413096265,left,0.4749398,0,4,19,0,TRUE,4,0,1,1,TRUE,FALSE,low_3,0.75,-1,3,,,,,,,,,,,165,10,3.2.2021,164.9713115
193,"['low', 2]",2,black,45,right,down,low,black_low_45_down,white_low_135_down,6,1.994952701,left,0.6058192,0,6,23,1,FALSE,10,1,1,1,TRUE,FALSE,low_2,0.75,-1,3,,,,,,,,,,,165,10,3.2.2021,164.9713115
194,"['high', 3]",3,white,45,left,down,high,white_high_45_down,black_high_135_down,9,1.247311177,left,0.2929444,1,9,23,0,FALSE,9,1,1,1,TRUE,FALSE,high_3,0.75,-1,3,,,,,,,,,,,165,10,3.2.2021,164.9713115
195,"['high', 2]",2,white,45,left,up,high,white_high_45_up,black_high_135_up,16,1.633778577,left,0.3205913,1,16,20,1,TRUE,9,1,1,1,TRUE,FALSE,high_2,0.75,-1,3,,,,,,,,,,,165,10,3.2.2021,164.9713115
196,"['low', 2]",2,black,45,right,down,low,black_low_45_down,white_low_135_down,9,1.357793003,left,0.4137369,0,9,24,0,TRUE,11,1,1,1,TRUE,FALSE,low_2,0.75,-1,3,,,,,,,,,,,165,10,3.2.2021,164.9713115
197,"['low', 3]",3,white,45,left,up,low,white_low_45_up,black_low_135_up,7,1.066927434,left,0.791687,1,7,20,0,FALSE,4,0,1,1,TRUE,FALSE,low_3,0.75,-1,3,,,,,,,,,,,165,10,3.2.2021,164.9713115
198,"['high', 1]",1,black,135,left,down,high,black_high_135_down,white_high_45_down,11,1.47643574,left,0.2782491,1,11,17,1,FALSE,7,1,1,1,TRUE,FALSE,high_1,0.75,-1,3,,,,,,,,,,,165,10,3.2.2021,164.9713115
199,"['high', 3]",3,black,135,left,up,high,black_high_135_up,white_high_45_up,8,1.524207706,left,0.1445424,1,8,24,1,TRUE,10,1,1,1,TRUE,FALSE,high_3,0.75,-1,3,,,,,,,,,,,165,10,3.2.2021,164.9713115
200,"['high', 2]",2,black,45,right,down,high,black_high_45_down,white_high_135_down,15,1.333921273,left,0.0434606,0,15,21,1,FALSE,9,1,1,1,TRUE,FALSE,high_2,0.75,-1,3,,,,,,,,,,,165,10,3.2.2021,164.9713115
201,"['high', 1]",1,white,135,right,down,high,white_high_135_down,black_high_45_down,10,1.720098964,right,0.2575604,1,10,18,1,FALSE,7,1,1,1,TRUE,FALSE,high_1,0.75,-1,3,,,,,,,,,,,165,10,3.2.2021,164.9713115
202,"['low', 3]",3,white,45,left,down,low,white_low_45_down,black_low_135_down,6,1.03732192,left,0.5362308,1,6,21,1,TRUE,5,1,1,1,TRUE,FALSE,low_3,0.75,-1,3,,,,,,,,,,,165,10,3.2.2021,164.9713115
203,"['low', 1]",1,white,135,right,down,low,white_low_135_down,black_low_45_down,19,1.104070775,right,0.2304513,1,19,17,1,FALSE,8,1,1,1,TRUE,FALSE,low_1,0.75,-1,3,,,,,,,,,,,165,10,3.2.2021,164.9713115
204,"['low', 1]",1,black,45,right,up,low,black_low_45_up,white_low_135_up,18,1.291651618,left,0.2333944,0,18,18,1,FALSE,8,1,1,1,TRUE,FALSE,low_1,0.75,-1,3,,,,,,,,,,,165,10,3.2.2021,164.9713115
205,"['high', 4]",4,black,135,left,down,high,black_high_135_down,white_high_45_down,8,1.987347525,left,0.2192378,1,8,16,1,TRUE,7,1,1,1,TRUE,FALSE,high_4,0.75,-1,3,,,,,,,,,,,165,10,3.2.2021,164.9713115
206,"['high', 2]",2,black,45,right,up,high,black_high_45_up,white_high_135_up,18,1.000832673,right,0.2248905,1,18,22,0,TRUE,10,1,1,1,TRUE,FALSE,high_2,0.75,-1,3,,,,,,,,,,,165,10,3.2.2021,164.9713115
207,"['high', 2]",2,white,135,right,down,high,white_high_135_down,black_high_45_down,17,1.747433563,right,0.3574546,1,17,23,1,TRUE,11,1,1,1,TRUE,FALSE,high_2,0.75,-1,3,,,,,,,,,,,165,10,3.2.2021,164.9713115
208,"['low', 4]",4,white,45,left,down,low,white_low_45_down,black_low_135_down,3,1.264577069,left,0.3211543,1,3,18,1,TRUE,8,1,1,1,TRUE,FALSE,low_4,0.75,-1,3,,,,,,,,,,,165,10,3.2.2021,164.9713115
209,"['high', 6]",6,white,135,right,down,high,white_high_135_down,black_high_45_down,6,1.337596964,right,0.2391506,1,6,19,1,TRUE,6,1,1,1,TRUE,FALSE,high_6,0.75,-1,3,,,,,,,,,,,165,10,3.2.2021,164.9713115
210,"['low', 1]",1,white,45,left,up,low,white_low_45_up,black_low_135_up,21,1.873575275,left,0.3006663,1,21,19,0,TRUE,9,1,1,1,TRUE,FALSE,low_1,0.75,-1,3,,,,,,,,,,,165,10,3.2.2021,164.9713115
211,"['high', 3]",3,black,45,right,down,high,black_high_45_down,white_high_135_down,7,1.935068825,right,0.3110694,1,7,25,1,FALSE,10,1,1,1,TRUE,FALSE,high_3,0.75,-1,3,,,,,,,,,,,165,10,3.2.2021,164.9713115
212,"['high', 3]",3,black,135,left,down,high,black_high_135_down,white_high_45_down,6,1.661565824,left,0.2633674,1,6,26,1,FALSE,10,1,1,1,TRUE,FALSE,high_3,0.75,-1,3,,,,,,,,,,,165,10,3.2.2021,164.9713115
213,"['low', 3]",3,black,45,right,up,low,black_low_45_up,white_low_135_up,5,1.021465248,right,0.3131967,1,5,22,1,FALSE,5,1,1,1,TRUE,FALSE,low_3,0.75,-1,3,,,,,,,,,,,165,10,3.2.2021,164.9713115
214,"['low', 4]",4,black,45,right,down,low,black_low_45_down,white_low_135_down,2,1.936614214,left,1.2871725,0,2,19,1,FALSE,8,1,1,1,TRUE,FALSE,low_4,0.75,-1,3,,,,,,,,,,,165,10,3.2.2021,164.9713115
215,"['low', 1]",1,black,45,right,down,low,black_low_45_down,white_low_135_down,20,1.660733581,right,0.5482177,1,20,20,1,TRUE,10,1,1,1,TRUE,FALSE,low_1,0.75,-1,3,,,,,,,,,,,165,10,3.2.2021,164.9713115
216,"['low', 4]",4,black,45,right,down,low,black_low_45_down,white_low_135_down,5,1.902850305,right,0.1735074,1,5,20,0,TRUE,9,1,1,1,TRUE,FALSE,low_4,0.75,-1,3,,,,,,,,,,,165,10,3.2.2021,164.9713115
217,"['high', 2]",2,white,45,left,up,high,white_high_45_up,black_high_135_up,16,1.449098289,left,0.2710216,1,16,24,1,FALSE,11,1,1,1,TRUE,FALSE,high_2,0.75,-1,3,,,,,,,,,,,165,10,3.2.2021,164.9713115
218,"['high', 3]",3,white,45,left,down,high,white_high_45_down,black_high_135_down,5,1.479829595,left,0.2343538,1,5,27,1,FALSE,10,1,1,1,TRUE,FALSE,high_3,0.75,-1,3,,,,,,,,,,,165,10,3.2.2021,164.9713115
219,"['low', 3]",3,black,45,right,up,low,black_low_45_up,white_low_135_up,4,1.345000454,right,0.1951489,1,4,23,1,FALSE,5,1,1,1,TRUE,FALSE,low_3,0.75,-1,3,,,,,,,,,,,165,10,3.2.2021,164.9713115
220,"['low', 4]",4,black,135,left,up,low,black_low_135_up,white_low_45_up,4,1.136163643,left,0.1994461,1,4,21,1,TRUE,10,1,1,1,TRUE,FALSE,low_4,0.75,-1,3,,,,,,,,,,,165,10,3.2.2021,164.9713115
221,"['high', 1]",1,white,135,right,down,high,white_high_135_down,black_high_45_down,9,1.404591517,right,0.2142803,1,9,19,1,FALSE,7,1,1,1,TRUE,FALSE,high_1,0.75,-1,3,,,,,,,,,,,165,10,3.2.2021,164.9713115
222,"['high', 6]",6,black,45,right,down,high,black_high_45_down,white_high_135_down,5,1.777564355,right,0.2148527,1,5,20,1,FALSE,6,1,1,1,TRUE,FALSE,high_6,0.75,-1,3,,,,,,,,,,,165,10,3.2.2021,164.9713115
223,"['high', 3]",3,black,135,left,down,high,black_high_135_down,white_high_45_down,4,1.979478853,left,0.2831425,1,4,28,1,FALSE,10,1,1,1,TRUE,FALSE,high_3,0.75,-1,3,,,,,,,,,,,165,10,3.2.2021,164.9713115
224,"['low', 1]",1,black,45,right,down,low,black_low_45_down,white_low_135_down,19,1.453035518,right,0.3037798,1,19,21,1,FALSE,10,1,1,1,TRUE,FALSE,low_1,0.75,-1,3,,,,,,,,,,,165,10,3.2.2021,164.9713115
225,"['high', 4]",4,black,45,right,up,high,black_high_45_up,white_high_135_up,7,1.800930836,right,0.1987496,1,7,17,1,FALSE,7,1,1,1,TRUE,FALSE,high_4,0.75,-1,3,,,,,,,,,,,165,10,3.2.2021,164.9713115
226,"['low', 3]",3,white,45,left,up,low,white_low_45_up,black_low_135_up,3,1.256612801,left,0.2147898,1,3,24,1,FALSE,5,1,1,1,TRUE,FALSE,low_3,0.75,-1,3,,,,,,,,,,,165,10,3.2.2021,164.9713115
227,"['low', 2]",2,white,45,left,up,low,white_low_45_up,black_low_135_up,12,1.589877669,left,0.2959989,1,12,25,0,FALSE,11,1,1,1,TRUE,FALSE,low_2,0.75,-1,3,,,,,,,,,,,165,10,3.2.2021,164.9713115
228,"['high', 4]",4,black,135,left,down,high,black_high_135_down,white_high_45_down,6,1.122229359,left,0.2448854,1,6,18,1,FALSE,7,1,1,1,TRUE,FALSE,high_4,0.75,-1,3,,,,,,,,,,,165,10,3.2.2021,164.9713115
229,"['low', 6]",6,white,135,right,up,low,white_low_135_up,black_low_45_up,4,1.054133833,right,0.2960956,1,4,20,0,TRUE,4,0,1,1,TRUE,FALSE,low_6,0.75,-1,3,,,,,,,,,,,165,10,3.2.2021,164.9713115
230,"['high', 4]",4,black,135,left,down,high,black_high_135_down,white_high_45_down,5,1.174313239,left,0.2714998,1,5,19,1,FALSE,7,1,1,1,TRUE,FALSE,high_4,0.75,-1,3,,,,,,,,,,,165,10,3.2.2021,164.9713115
231,"['low', 4]",4,white,45,left,down,low,white_low_45_down,black_low_135_down,3,1.727611929,left,0.2710531,1,3,22,1,FALSE,10,1,1,1,TRUE,FALSE,low_4,0.75,-1,3,,,,,,,,,,,165,10,3.2.2021,164.9713115
232,"['low', 6]",6,black,135,left,up,low,black_low_135_up,white_low_45_up,3,1.842273941,left,0.1439868,1,3,21,1,TRUE,5,1,1,1,TRUE,FALSE,low_6,0.75,-1,3,,,,,,,,,,,165,10,3.2.2021,164.9713115
233,"['high', 2]",2,white,135,right,down,high,white_high_135_down,black_high_45_down,15,1.233949072,right,0.3079613,1,15,25,1,FALSE,11,1,1,1,TRUE,FALSE,high_2,0.75,-1,3,,,,,,,,,,,165,10,3.2.2021,164.9713115
234,"['low', 4]",4,white,45,left,down,low,white_low_45_down,black_low_135_down,2,1.240617702,left,0.3726854,1,2,23,1,FALSE,10,1,1,1,TRUE,FALSE,low_4,0.75,-1,3,,,,,,,,,,,165,10,3.2.2021,164.9713115
235,"['low', 4]",4,black,45,right,up,low,black_low_45_up,white_low_135_up,1,1.71039585,right,0.2778857,1,1,24,1,FALSE,10,1,1,1,TRUE,FALSE,low_4,0.75,-1,3,,,,,,,,,,,165,10,3.2.2021,164.9713115
236,"['low', 3]",3,black,45,right,down,low,black_low_45_down,white_low_135_down,2,1.252104764,right,0.2827561,1,2,25,1,FALSE,5,1,1,1,TRUE,FALSE,low_3,0.75,-1,3,,,,,,,,,,,165,10,3.2.2021,164.9713115
237,"['low', 1]",1,black,45,right,down,low,black_low_45_down,white_low_135_down,18,1.051955216,right,0.810831,1,18,22,1,FALSE,10,1,1,1,TRUE,FALSE,low_1,0.75,-1,3,,,,,,,,,,,165,10,3.2.2021,164.9713115
238,"['low', 6]",6,black,135,left,up,low,black_low_135_up,white_low_45_up,2,1.669286942,left,0.2949189,1,2,22,1,FALSE,5,1,1,1,TRUE,FALSE,low_6,0.75,-1,3,,,,,,,,,,,165,10,3.2.2021,164.9713115
239,"['low', 4]",4,black,135,left,up,low,black_low_135_up,white_low_45_up,1,1.510434068,right,0.5173044,0,1,25,1,FALSE,10,1,1,1,TRUE,FALSE,low_4,0.75,-1,3,,,,,,,,,,,165,10,3.2.2021,164.9713115
240,"['low', 6]",6,white,45,left,down,low,white_low_45_down,black_low_135_down,1,1.02972671,left,0.3228117,1,1,23,1,FALSE,5,1,1,1,TRUE,FALSE,low_6,0.75,-1,3,,,,,,,,,,,165,10,3.2.2021,164.9713115
241,"['low', 4]",4,black,45,right,down,low,black_low_45_down,white_low_135_down,4,1.978809237,right,0.3218158,1,4,26,0,TRUE,11,1,1,1,TRUE,FALSE,low_4,0.75,-1,3,,,,,,,,,,,165,10,3.2.2021,164.9713115
242,"['low', 1]",1,white,45,left,up,low,white_low_45_up,black_low_135_up,17,1.578128079,left,0.2320309,1,17,23,1,FALSE,10,1,1,1,TRUE,FALSE,low_1,0.75,-1,3,,,,,,,,,,,165,10,3.2.2021,164.9713115
243,"['high', 6]",6,white,135,right,up,high,white_high_135_up,black_high_45_up,4,1.060497634,right,0.2505268,1,4,21,1,FALSE,6,1,1,1,TRUE,FALSE,high_6,0.75,-1,3,,,,,,,,,,,165,10,3.2.2021,164.9713115
244,"['low', 3]",3,white,135,right,up,low,white_low_135_up,black_low_45_up,1,1.946455181,left,0.4293725,0,1,26,1,FALSE,5,1,1,1,TRUE,FALSE,low_3,0.75,-1,3,,,,,,,,,,,165,10,3.2.2021,164.9713115
245,"['low', 3]",3,white,45,left,down,low,white_low_45_down,black_low_135_down,4,1.437673895,left,0.2993137,1,4,27,0,TRUE,6,1,1,1,TRUE,FALSE,low_3,0.75,-1,3,,,,,,,,,,,165,10,3.2.2021,164.9713115
246,"['low', 1]",1,white,135,right,down,low,white_low_135_down,black_low_45_down,16,1.518096129,right,0.3017252,1,16,24,1,FALSE,10,1,1,1,TRUE,FALSE,low_1,0.75,-1,3,,,,,,,,,,,165,10,3.2.2021,164.9713115
247,"['low', 3]",3,black,45,right,up,low,black_low_45_up,white_low_135_up,3,1.402001764,right,0.2690565,1,3,28,1,TRUE,7,1,1,1,TRUE,FALSE,low_3,0.75,-1,3,,,,,,,,,,,165,10,3.2.2021,164.9713115
248,"['low', 3]",3,black,45,right,up,low,black_low_45_up,white_low_135_up,2,1.410248276,right,0.2421702,1,2,29,1,FALSE,7,1,1,1,TRUE,FALSE,low_3,0.75,-1,3,,,,,,,,,,,165,10,3.2.2021,164.9713115
249,"['high', 4]",4,white,45,left,up,high,white_high_45_up,black_high_135_up,4,1.497088795,left,0.4986389,1,4,20,1,FALSE,7,1,1,1,TRUE,FALSE,high_4,0.75,-1,3,,,,,,,,,,,165,10,3.2.2021,164.9713115
250,"['low', 4]",4,black,135,left,down,low,black_low_135_down,white_low_45_down,3,1.180763994,left,0.2902166,1,3,27,1,TRUE,12,1,1,1,TRUE,FALSE,low_4,0.75,-1,3,,,,,,,,,,,165,10,3.2.2021,164.9713115
251,"['high', 6]",6,black,135,left,down,high,black_high_135_down,white_high_45_down,3,1.124165675,left,0.2946554,1,3,22,1,FALSE,6,1,1,1,TRUE,FALSE,high_6,0.75,-1,3,,,,,,,,,,,165,10,3.2.2021,164.9713115
252,"['low', 4]",4,white,45,left,up,low,white_low_45_up,black_low_135_up,2,1.909666289,left,0.235088,1,2,28,1,FALSE,12,1,1,1,TRUE,FALSE,low_4,0.75,-1,3,,,,,,,,,,,165,10,3.2.2021,164.9713115
253,"['high', 6]",6,white,45,left,up,high,white_high_45_up,black_high_135_up,2,1.381185507,right,0.31107,0,2,23,1,FALSE,6,1,1,1,TRUE,FALSE,high_6,0.75,-1,3,,,,,,,,,,,165,10,3.2.2021,164.9713115
254,"['low', 6]",6,white,135,right,down,low,white_low_135_down,black_low_45_down,1,1.128192803,left,0.1993001,0,1,24,1,FALSE,5,1,1,1,TRUE,FALSE,low_6,0.75,-1,3,,,,,,,,,,,165,10,3.2.2021,164.9713115
255,"['low', 2]",2,black,45,right,down,low,black_low_45_down,white_low_135_down,11,1.245670377,left,0.7450423,0,11,26,1,TRUE,12,1,1,1,TRUE,FALSE,low_2,0.75,-1,3,,,,,,,,,,,165,10,3.2.2021,164.9713115
256,"['high', 1]",1,white,45,left,up,high,white_high_45_up,black_high_135_up,8,1.760392577,right,0.1496356,0,8,20,1,FALSE,7,1,1,1,TRUE,FALSE,high_1,0.75,-1,3,,,,,,,,,,,165,10,3.2.2021,164.9713115
257,"['low', 4]",4,black,45,right,up,low,black_low_45_up,white_low_135_up,1,1.233327437,right,0.4112805,1,1,29,1,FALSE,12,1,1,1,TRUE,FALSE,low_4,0.75,-1,3,,,,,,,,,,,165,10,3.2.2021,164.9713115
258,"['low', 6]",6,white,135,right,down,low,white_low_135_down,black_low_45_down,4,1.638841162,right,0.2969772,1,4,25,0,TRUE,6,1,1,1,TRUE,FALSE,low_6,0.75,-1,3,,,,,,,,,,,165,10,3.2.2021,164.9713115
259,"['low', 4]",4,white,45,left,down,low,white_low_45_down,black_low_135_down,1,1.521890387,left,0.2852974,1,1,30,1,FALSE,12,1,1,1,TRUE,FALSE,low_4,0.75,-1,3,,,,,,,,,,,165,10,3.2.2021,164.9713115
260,"['high', 1]",1,white,45,left,down,high,white_high_45_down,black_high_135_down,11,1.877672395,left,0.2697642,1,11,21,0,TRUE,8,1,1,1,TRUE,FALSE,high_1,0.75,-1,3,,,,,,,,,,,165,10,3.2.2021,164.9713115
261,"['high', 6]",6,white,135,right,up,high,white_high_135_up,black_high_45_up,5,1.605001368,right,0.2606006,1,5,24,0,TRUE,7,1,1,1,TRUE,FALSE,high_6,0.75,-1,3,,,,,,,,,,,165,10,3.2.2021,164.9713115
262,"['low', 6]",6,black,135,left,up,low,black_low_135_up,white_low_45_up,3,1.574067123,left,0.2251941,1,3,26,1,TRUE,7,1,1,1,TRUE,FALSE,low_6,0.75,-1,3,,,,,,,,,,,165,10,3.2.2021,164.9713115
263,"['high', 2]",2,white,135,right,up,high,white_high_135_up,black_high_45_up,14,1.271722635,right,0.3597417,1,14,26,1,FALSE,11,1,1,1,TRUE,FALSE,high_2,0.75,-1,3,,,,,,,,,,,165,10,3.2.2021,164.9713115
264,"['low', 4]",4,white,45,left,up,low,white_low_45_up,black_low_135_up,1,1.173253694,left,0.7018086,1,1,31,1,FALSE,12,1,1,1,TRUE,FALSE,low_4,0.75,-1,3,,,,,,,,,,,165,10,3.2.2021,164.9713115
265,"['high', 2]",2,white,45,left,up,high,white_high_45_up,black_high_135_up,13,1.053799992,left,0.3015304,1,13,27,1,FALSE,11,1,1,1,TRUE,FALSE,high_2,0.75,-1,3,,,,,,,,,,,165,10,3.2.2021,164.9713115
266,"['low', 3]",3,black,135,left,up,low,black_low_135_up,white_low_45_up,1,1.16582165,right,0.3191584,0,1,30,1,FALSE,7,1,1,1,TRUE,FALSE,low_3,0.75,-1,3,,,,,,,,,,,165,10,3.2.2021,164.9713115
267,"['low', 2]",2,white,135,right,down,low,white_low_135_down,black_low_45_down,14,1.481975823,right,0.3521667,1,14,27,0,TRUE,13,1,1,1,TRUE,FALSE,low_2,0.75,-1,3,,,,,,,,,,,165,10,3.2.2021,164.9713115
268,"['high', 3]",3,white,135,right,up,high,white_high_135_up,black_high_45_up,3,1.802838306,right,0.2769621,1,3,29,1,FALSE,10,1,1,1,TRUE,FALSE,high_3,0.75,-1,3,,,,,,,,,,,165,10,3.2.2021,164.9713115
269,"['low', 2]",2,black,135,left,down,low,black_low_135_down,white_low_45_down,13,1.448469548,left,0.3094296,1,13,28,1,TRUE,14,1,1,1,TRUE,FALSE,low_2,0.75,-1,3,,,,,,,,,,,165,10,3.2.2021,164.9713115
270,"['high', 6]",6,white,45,left,up,high,white_high_45_up,black_high_135_up,4,1.535842192,left,0.2237734,1,4,25,1,TRUE,8,1,1,1,TRUE,FALSE,high_6,0.75,-1,3,,,,,,,,,,,165,10,3.2.2021,164.9713115
271,"['low', 3]",3,black,45,right,up,low,black_low_45_up,white_low_135_up,4,1.023789884,right,0.2736784,1,4,31,0,TRUE,8,1,1,1,TRUE,FALSE,low_3,0.75,-1,3,,,,,,,,,,,165,10,3.2.2021,164.9713115
272,"['low', 1]",1,white,45,left,down,low,white_low_45_down,black_low_135_down,15,1.9799771,left,0.2743379,1,15,25,1,FALSE,10,1,1,1,TRUE,FALSE,low_1,0.75,-1,3,,,,,,,,,,,165,10,3.2.2021,164.9713115
273,"['low', 6]",6,black,45,right,up,low,black_low_45_up,white_low_135_up,2,1.797195236,right,0.3161784,1,2,27,1,FALSE,7,1,1,1,TRUE,FALSE,low_6,0.75,-1,3,,,,,,,,,,,165,10,3.2.2021,164.9713115
274,"['low', 4]",4,white,135,right,up,low,white_low_135_up,black_low_45_up,1,1.300231805,right,0.3685618,1,1,32,1,FALSE,12,1,1,1,TRUE,FALSE,low_4,0.75,-1,3,,,,,,,,,,,165,10,3.2.2021,164.9713115
275,"['low', 3]",3,black,135,left,up,low,black_low_135_up,white_low_45_up,3,1.647035545,left,0.066202,1,3,32,1,TRUE,9,1,1,1,TRUE,FALSE,low_3,0.75,-1,3,,,,,,,,,,,165,10,3.2.2021,164.9713115
276,"['high', 4]",4,black,45,right,down,high,black_high_45_down,white_high_135_down,3,1.883374091,left,0.1952869,0,3,21,1,FALSE,7,1,1,1,TRUE,FALSE,high_4,0.75,-1,3,,,,,,,,,,,165,10,3.2.2021,164.9713115
277,"['low', 6]",6,black,135,left,down,low,black_low_135_down,white_low_45_down,1,1.944432589,left,0.3258289,1,1,28,1,FALSE,7,1,1,1,TRUE,FALSE,low_6,0.75,-1,3,,,,,,,,,,,165,10,3.2.2021,164.9713115
278,"['high', 2]",2,white,45,left,up,high,white_high_45_up,black_high_135_up,12,1.030530121,left,0.3087403,1,12,28,1,FALSE,11,1,1,1,TRUE,FALSE,high_2,0.75,-1,3,,,,,,,,,,,165,10,3.2.2021,164.9713115
279,"['high', 1]",1,black,135,left,up,high,black_high_135_up,white_high_45_up,10,1.85949693,right,0.2591725,0,10,22,1,TRUE,9,1,1,1,TRUE,FALSE,high_1,0.75,-1,3,,,,,,,,,,,165,10,3.2.2021,164.9713115
280,"['high', 3]",3,black,45,right,up,high,black_high_45_up,white_high_135_up,2,1.548278776,left,0.2317422,0,2,30,1,FALSE,10,1,1,1,TRUE,FALSE,high_3,0.75,-1,3,,,,,,,,,,,165,10,3.2.2021,164.9713115
281,"['high', 1]",1,black,45,right,up,high,black_high_45_up,white_high_135_up,13,1.041753187,left,0.3076946,0,13,23,0,TRUE,10,1,1,1,TRUE,FALSE,high_1,0.75,-1,3,,,,,,,,,,,165,10,3.2.2021,164.9713115
282,"['low', 4]",4,white,45,left,up,low,white_low_45_up,black_low_135_up,1,1.918930927,left,0.2106526,1,1,33,1,FALSE,12,1,1,1,TRUE,FALSE,low_4,0.75,-1,3,,,,,,,,,,,165,10,3.2.2021,164.9713115
283,"['low', 1]",1,black,45,right,up,low,black_low_45_up,white_low_135_up,14,1.616053663,right,0.3316003,1,14,26,1,FALSE,10,1,1,1,TRUE,FALSE,low_1,0.75,-1,3,,,,,,,,,,,165,10,3.2.2021,164.9713115
284,"['high', 6]",6,white,135,right,down,high,white_high_135_down,black_high_45_down,3,1.022758365,right,0.3244786,1,3,26,1,FALSE,8,1,1,1,TRUE,FALSE,high_6,0.75,-1,3,,,,,,,,,,,165,10,3.2.2021,164.9713115
285,"['high', 1]",1,black,45,right,down,high,black_high_45_down,white_high_135_down,16,1.891130675,right,0.5285367,1,16,24,0,FALSE,10,1,1,1,TRUE,FALSE,high_1,0.75,-1,3,,,,,,,,,,,165,10,3.2.2021,164.9713115
286,"['high', 3]",3,white,45,left,up,high,white_high_45_up,black_high_135_up,5,1.224638864,left,0.3088873,1,5,31,0,TRUE,11,1,1,1,TRUE,FALSE,high_3,0.75,-1,3,,,,,,,,,,,165,10,3.2.2021,164.9713115
287,"['low', 3]",3,black,135,left,up,low,black_low_135_up,white_low_45_up,2,1.481027595,right,0.3829979,0,2,33,1,FALSE,9,1,1,1,TRUE,FALSE,low_3,0.75,-1,3,,,,,,,,,,,165,10,3.2.2021,164.9713115
288,"['high', 6]",6,white,45,left,up,high,white_high_45_up,black_high_135_up,2,1.963558847,left,0.2899489,1,2,27,1,FALSE,8,1,1,1,TRUE,FALSE,high_6,0.75,-1,3,,,,,,,,,,,165,10,3.2.2021,164.9713115
289,"['low', 1]",1,black,45,right,up,low,black_low_45_up,white_low_135_up,13,1.625086437,right,0.4315068,1,13,27,1,FALSE,10,1,1,1,TRUE,FALSE,low_1,0.75,-1,3,,,,,,,,,,,165,10,3.2.2021,164.9713115
290,"['high', 1]",1,black,135,left,up,high,black_high_135_up,white_high_45_up,15,1.461788108,left,0.326848,1,15,25,1,TRUE,11,1,1,1,TRUE,FALSE,high_1,0.75,-1,3,,,,,,,,,,,165,10,3.2.2021,164.9713115
291,"['high', 2]",2,black,45,right,up,high,black_high_45_up,white_high_135_up,11,1.098779136,right,0.2706031,1,11,29,1,FALSE,11,1,1,1,TRUE,FALSE,high_2,0.75,-1,3,,,,,,,,,,,165,10,3.2.2021,164.9713115
292,"['high', 4]",4,black,45,right,up,high,black_high_45_up,white_high_135_up,6,1.316782575,right,0.2350873,1,6,22,0,TRUE,8,1,1,1,TRUE,FALSE,high_4,0.75,-1,3,,,,,,,,,,,165,10,3.2.2021,164.9713115
293,"['high', 3]",3,black,45,right,down,high,black_high_45_down,white_high_135_down,4,1.595368303,left,0.2759048,0,4,32,1,TRUE,12,1,1,1,TRUE,FALSE,high_3,0.75,-1,3,,,,,,,,,,,165,10,3.2.2021,164.9713115
294,"['high', 4]",4,black,45,right,up,high,black_high_45_up,white_high_135_up,5,1.225828939,right,0.2286578,1,5,23,1,TRUE,9,1,1,1,TRUE,FALSE,high_4,0.75,-1,3,,,,,,,,,,,165,10,3.2.2021,164.9713115
295,"['low', 1]",1,black,135,left,up,low,black_low_135_up,white_low_45_up,12,1.33647688,right,0.3590422,0,12,28,1,FALSE,10,1,1,1,TRUE,FALSE,low_1,0.75,-1,3,,,,,,,,,,,165,10,3.2.2021,164.9713115
296,"['high', 4]",4,black,45,right,up,high,black_high_45_up,white_high_135_up,4,1.000807667,right,0.2864798,1,4,24,1,FALSE,9,1,1,1,TRUE,FALSE,high_4,0.75,-1,3,,,,,,,,,,,165,10,3.2.2021,164.9713115
297,"['low', 3]",3,black,135,left,down,low,black_low_135_down,white_low_45_down,5,1.002236337,left,0.3055907,1,5,34,0,TRUE,10,1,1,1,TRUE,FALSE,low_3,0.75,-1,3,,,,,,,,,,,165,10,3.2.2021,164.9713115
298,"['high', 3]",3,black,45,right,up,high,black_high_45_up,white_high_135_up,7,1.260524607,right,0.2027574,1,7,33,0,TRUE,13,1,1,1,TRUE,FALSE,high_3,0.75,-1,3,,,,,,,,,,,165,10,3.2.2021,164.9713115
299,"['high', 3]",3,white,135,right,down,high,white_high_135_down,black_high_45_down,6,1.548121215,left,0.2292852,0,6,34,1,TRUE,14,1,1,1,TRUE,FALSE,high_3,0.75,-1,3,,,,,,,,,,,165,10,3.2.2021,164.9713115
300,"['high', 2]",2,black,135,left,down,high,black_high_135_down,white_high_45_down,10,1.354099485,left,0.2224759,1,10,30,1,FALSE,11,1,1,1,TRUE,FALSE,high_2,0.75,-1,3,,,,,,,,,,,165,10,3.2.2021,164.9713115
301,"['low', 4]",4,black,135,left,up,low,black_low_135_up,white_low_45_up,1,1.098592815,right,0.3071867,0,1,34,1,FALSE,12,1,1,1,TRUE,FALSE,low_4,0.75,-1,3,,,,,,,,,,,165,10,3.2.2021,164.9713115
302,"['low', 6]",6,white,135,right,up,low,white_low_135_up,black_low_45_up,1,1.295889333,left,0.3302472,0,1,29,1,FALSE,7,1,1,1,TRUE,FALSE,low_6,0.75,-1,3,,,,,,,,,,,165,10,3.2.2021,164.9713115
303,"['low', 6]",6,black,135,left,down,low,black_low_135_down,white_low_45_down,4,1.212152698,left,0.3223556,1,4,30,0,TRUE,8,1,1,1,TRUE,FALSE,low_6,0.75,-1,3,,,,,,,,,,,165,10,3.2.2021,164.9713115
304,"['high', 2]",2,white,135,right,down,high,white_high_135_down,black_high_45_down,9,1.473959426,right,0.2636579,1,9,31,1,FALSE,11,1,1,1,TRUE,FALSE,high_2,0.75,-1,3,,,,,,,,,,,165,10,3.2.2021,164.9713115
305,"['high', 6]",6,black,135,left,down,high,black_high_135_down,white_high_45_down,1,1.238927984,left,0.2576589,1,1,28,1,FALSE,8,1,1,1,TRUE,FALSE,high_6,0.75,-1,3,,,,,,,,,,,165,10,3.2.2021,164.9713115
306,"['high', 6]",6,white,135,right,up,high,white_high_135_up,black_high_45_up,1,1.06897701,left,0.1620827,0,1,29,1,FALSE,8,1,1,1,TRUE,FALSE,high_6,0.75,-1,3,,,,,,,,,,,165,10,3.2.2021,164.9713115
307,"['low', 2]",2,white,135,right,up,low,white_low_135_up,black_low_45_up,12,1.799045518,right,0.3088136,1,12,29,1,FALSE,14,1,1,1,TRUE,FALSE,low_2,0.75,-1,3,,,,,,,,,,,165,10,3.2.2021,164.9713115
308,"['high', 6]",6,white,135,right,up,high,white_high_135_up,black_high_45_up,4,1.467865181,right,0.5361982,1,4,30,0,TRUE,9,1,1,1,TRUE,FALSE,high_6,0.75,-1,3,,,,,,,,,,,165,10,3.2.2021,164.9713115
309,"['low', 2]",2,white,135,right,up,low,white_low_135_up,black_low_45_up,11,1.289536742,right,0.3431208,1,11,30,1,FALSE,14,1,1,1,TRUE,FALSE,low_2,0.75,-1,3,,,,,,,,,,,165,10,3.2.2021,164.9713115
310,"['low', 6]",6,white,135,right,up,low,white_low_135_up,black_low_45_up,3,1.248061243,right,0.3165605,1,3,31,1,TRUE,9,1,1,1,TRUE,FALSE,low_6,0.75,-1,3,,,,,,,,,,,165,10,3.2.2021,164.9713115
311,"['low', 1]",1,black,135,left,down,low,black_low_135_down,white_low_45_down,15,1.846659051,left,0.3906191,1,15,29,0,TRUE,11,1,1,1,TRUE,FALSE,low_1,0.75,-1,3,,,,,,,,,,,165,10,3.2.2021,164.9713115
312,"['high', 1]",1,black,135,left,up,high,black_high_135_up,white_high_45_up,14,1.48702993,right,0.2915508,0,14,26,1,FALSE,11,1,1,1,TRUE,FALSE,high_1,0.75,-1,3,,,,,,,,,,,165,10,3.2.2021,164.9713115
313,"['low', 4]",4,white,135,right,up,low,white_low_135_up,black_low_45_up,4,1.073296628,right,0.3120039,1,4,35,0,TRUE,13,1,1,1,TRUE,FALSE,low_4,0.75,-1,3,,,,,,,,,,,165,10,3.2.2021,164.9713115
314,"['low', 6]",6,black,135,left,up,low,black_low_135_up,white_low_45_up,2,1.240193422,left,0.3493714,1,2,32,1,FALSE,9,1,1,1,TRUE,FALSE,low_6,0.75,-1,3,,,,,,,,,,,165,10,3.2.2021,164.9713115
315,"['high', 4]",4,black,45,right,up,high,black_high_45_up,white_high_135_up,3,1.53882955,right,0.3259863,1,3,25,1,FALSE,9,1,1,1,TRUE,FALSE,high_4,0.75,-1,3,,,,,,,,,,,165,10,3.2.2021,164.9713115
316,"['high', 2]",2,white,135,right,down,high,white_high_135_down,black_high_45_down,8,1.662212816,right,0.3048878,1,8,32,1,FALSE,11,1,1,1,TRUE,FALSE,high_2,0.75,-1,3,,,,,,,,,,,165,10,3.2.2021,164.9713115
317,"['low', 3]",3,black,135,left,up,low,black_low_135_up,white_low_45_up,4,1.006291901,left,0.2901905,1,4,35,1,TRUE,11,1,1,1,TRUE,FALSE,low_3,0.75,-1,3,,,,,,,,,,,165,10,3.2.2021,164.9713115
318,"['low', 3]",3,black,45,right,down,low,black_low_45_down,white_low_135_down,3,1.894803984,right,0.245401,1,3,36,1,FALSE,11,1,1,1,TRUE,FALSE,low_3,0.75,-1,3,,,,,,,,,,,165,10,3.2.2021,164.9713115
319,"['high', 1]",1,black,135,left,up,high,black_high_135_up,white_high_45_up,17,1.763860175,left,0.2928552,1,17,27,0,TRUE,12,1,1,1,TRUE,FALSE,high_1,0.75,-1,3,,,,,,,,,,,165,10,3.2.2021,164.9713115
320,"['high', 4]",4,black,45,right,down,high,black_high_45_down,white_high_135_down,2,1.230790882,left,0.2960649,0,2,26,1,FALSE,9,1,1,1,TRUE,FALSE,high_4,0.75,-1,3,,,,,,,,,,,165,10,3.2.2021,164.9713115
321,"['high', 1]",1,black,135,left,down,high,black_high_135_down,white_high_45_down,16,1.966288001,left,0.3739662,1,16,28,1,TRUE,13,1,1,1,TRUE,FALSE,high_1,0.75,-1,3,,,,,,,,,,,165,10,3.2.2021,164.9713115
322,"['high', 1]",1,white,45,left,down,high,white_high_45_down,black_high_135_down,15,1.965474927,left,0.2834817,1,15,29,1,FALSE,13,1,1,1,TRUE,FALSE,high_1,0.75,-1,3,,,,,,,,,,,165,10,3.2.2021,164.9713115
323,"['low', 2]",2,black,135,left,up,low,black_low_135_up,white_low_45_up,10,1.247093232,left,0.2300493,1,10,31,1,FALSE,14,1,1,1,TRUE,FALSE,low_2,0.75,-1,3,,,,,,,,,,,165,10,3.2.2021,164.9713115
324,"['high', 2]",2,white,45,left,up,high,white_high_45_up,black_high_135_up,7,1.144992011,left,0.3078415,1,7,33,1,FALSE,11,1,1,1,TRUE,FALSE,high_2,0.75,-1,3,,,,,,,,,,,165,10,3.2.2021,164.9713115
325,"['high', 2]",2,white,135,right,up,high,white_high_135_up,black_high_45_up,6,1.627968164,right,0.2370286,1,6,34,1,FALSE,11,1,1,1,TRUE,FALSE,high_2,0.75,-1,3,,,,,,,,,,,165,10,3.2.2021,164.9713115
326,"['high', 6]",6,white,135,right,up,high,white_high_135_up,black_high_45_up,3,1.789810128,right,0.1734262,1,3,31,1,TRUE,10,1,1,1,TRUE,FALSE,high_6,0.75,-1,3,,,,,,,,,,,165,10,3.2.2021,164.9713115
327,"['low', 1]",1,white,135,right,down,low,white_low_135_down,black_low_45_down,14,1.436546853,left,0.3785832,0,14,30,1,TRUE,12,1,1,1,TRUE,FALSE,low_1,0.75,-1,3,,,,,,,,,,,165,10,3.2.2021,164.9713115
328,"['high', 4]",4,black,135,left,up,high,black_high_135_up,white_high_45_up,5,1.978266658,left,0.2428771,1,5,27,0,TRUE,10,1,1,1,TRUE,FALSE,high_4,0.75,-1,3,,,,,,,,,,,165,10,3.2.2021,164.9713115
329,"['low', 6]",6,black,45,right,down,low,black_low_45_down,white_low_135_down,1,1.112539482,left,0.1459758,0,1,33,1,FALSE,9,1,1,1,TRUE,FALSE,low_6,0.75,-1,3,,,,,,,,,,,165,10,3.2.2021,164.9713115
330,"['low', 1]",1,white,45,left,up,low,white_low_45_up,black_low_135_up,17,1.910041976,left,2.0156301,1,17,31,0,TRUE,13,1,1,1,TRUE,FALSE,low_1,0.75,-1,3,,,,,,,,,,,165,10,3.2.2021,164.9713115
331,"['low', 2]",2,white,45,left,down,low,white_low_45_down,black_low_135_down,9,1.31571911,left,0.5346315,1,9,32,1,FALSE,14,1,1,1,TRUE,FALSE,low_2,0.75,-1,3,,,,,,,,,,,165,10,3.2.2021,164.9713115
332,"['low', 4]",4,white,135,right,up,low,white_low_135_up,black_low_45_up,3,1.338176693,right,0.3016854,1,3,36,1,TRUE,14,1,1,1,TRUE,FALSE,low_4,0.75,-1,3,,,,,,,,,,,165,10,3.2.2021,164.9713115
333,"['high', 6]",6,white,45,left,down,high,white_high_45_down,black_high_135_down,2,1.543463633,left,0.3251518,1,2,32,1,FALSE,10,1,1,1,TRUE,FALSE,high_6,0.75,-1,3,,,,,,,,,,,165,10,3.2.2021,164.9713115
334,"['low', 2]",2,black,135,left,up,low,black_low_135_up,white_low_45_up,8,1.551014968,left,0.3023327,1,8,33,1,FALSE,14,1,1,1,TRUE,FALSE,low_2,0.75,-1,3,,,,,,,,,,,165,10,3.2.2021,164.9713115
335,"['low', 2]",2,black,45,right,down,low,black_low_45_down,white_low_135_down,7,1.52040741,right,0.3517819,1,7,34,1,FALSE,14,1,1,1,TRUE,FALSE,low_2,0.75,-1,3,,,,,,,,,,,165,10,3.2.2021,164.9713115
336,"['high', 2]",2,black,45,right,up,high,black_high_45_up,white_high_135_up,5,1.286017955,right,0.4438303,1,5,35,1,FALSE,11,1,1,1,TRUE,FALSE,high_2,0.75,-1,3,,,,,,,,,,,165,10,3.2.2021,164.9713115
337,"['low', 1]",1,white,45,left,up,low,white_low_45_up,black_low_135_up,16,1.371880814,left,0.347798,1,16,32,1,TRUE,14,1,1,1,TRUE,FALSE,low_1,0.75,-1,3,,,,,,,,,,,165,10,3.2.2021,164.9713115
338,"['high', 4]",4,black,135,left,down,high,black_high_135_down,white_high_45_down,4,1.071839356,left,0.2964619,1,4,28,1,TRUE,11,1,1,1,TRUE,FALSE,high_4,0.75,-1,3,,,,,,,,,,,165,10,3.2.2021,164.9713115
339,"['low', 1]",1,black,45,right,down,low,black_low_45_down,white_low_135_down,15,1.06999426,right,0.3567413,1,15,33,1,FALSE,14,1,1,1,TRUE,FALSE,low_1,0.75,-1,3,,,,,,,,,,,165,10,3.2.2021,164.9713115
340,"['low', 2]",2,black,135,left,down,low,black_low_135_down,white_low_45_down,6,1.65420226,left,0.3207137,1,6,35,1,FALSE,14,1,1,1,TRUE,FALSE,low_2,0.75,-1,3,,,,,,,,,,,165,10,3.2.2021,164.9713115
341,"['high', 6]",6,white,135,right,down,high,white_high_135_down,black_high_45_down,1,1.531478735,left,0.2950474,0,1,33,1,FALSE,10,1,1,1,TRUE,FALSE,high_6,0.75,-1,3,,,,,,,,,,,165,10,3.2.2021,164.9713115
342,"['low', 4]",4,white,135,right,up,low,white_low_135_up,black_low_45_up,2,1.225032281,right,0.1869665,1,2,37,1,FALSE,14,1,1,1,TRUE,FALSE,low_4,0.75,-1,3,,,,,,,,,,,165,10,3.2.2021,164.9713115
343,"['low', 4]",4,white,135,right,down,low,white_low_135_down,black_low_45_down,1,1.521236488,right,0.4048126,1,1,38,1,FALSE,14,1,1,1,TRUE,FALSE,low_4,0.75,-1,3,,,,,,,,,,,165,10,3.2.2021,164.9713115
344,"['low', 1]",1,white,45,left,up,low,white_low_45_up,black_low_135_up,14,1.49660116,left,0.2303655,1,14,34,1,FALSE,14,1,1,1,TRUE,FALSE,low_1,0.75,-1,3,,,,,,,,,,,165,10,3.2.2021,164.9713115
345,"['low', 1]",1,black,45,right,down,low,black_low_45_down,white_low_135_down,13,1.604062503,right,0.3354362,1,13,35,1,FALSE,14,1,1,1,TRUE,FALSE,low_1,0.75,-1,3,,,,,,,,,,,165,10,3.2.2021,164.9713115
346,"['low', 2]",2,white,135,right,down,low,white_low_135_down,black_low_45_down,5,1.579767255,right,0.2448944,1,5,36,1,FALSE,14,1,1,1,TRUE,FALSE,low_2,0.75,-1,3,,,,,,,,,,,165,10,3.2.2021,164.9713115
347,"['low', 6]",6,white,45,left,up,low,white_low_45_up,black_low_135_up,4,1.653763172,left,0.1638692,1,4,34,0,TRUE,10,1,1,1,TRUE,FALSE,low_6,0.75,-1,3,,,,,,,,,,,165,10,3.2.2021,164.9713115
348,"['high', 3]",3,white,135,right,down,high,white_high_135_down,black_high_45_down,9,1.919034489,right,0.2654739,1,9,35,0,TRUE,15,1,1,1,TRUE,FALSE,high_3,0.75,-1,3,,,,,,,,,,,165,10,3.2.2021,164.9713115
349,"['low', 3]",3,white,135,right,down,low,white_low_135_down,black_low_45_down,2,1.999115958,right,0.1925775,1,2,37,1,FALSE,11,1,1,1,TRUE,FALSE,low_3,0.75,-1,3,,,,,,,,,,,165,10,3.2.2021,164.9713115
350,"['high', 3]",3,white,45,left,down,high,white_high_45_down,black_high_135_down,8,1.20161678,left,0.3799918,1,8,36,1,TRUE,16,1,1,1,TRUE,FALSE,high_3,0.75,-1,3,,,,,,,,,,,165,10,3.2.2021,164.9713115
351,"['low', 2]",2,white,45,left,down,low,white_low_45_down,black_low_135_down,4,1.253615515,left,0.3789685,1,4,37,1,FALSE,14,1,1,1,TRUE,FALSE,low_2,0.75,-1,3,,,,,,,,,,,165,10,3.2.2021,164.9713115
352,"['high', 6]",6,white,45,left,up,high,white_high_45_up,black_high_135_up,4,1.46283026,left,0.2297011,1,4,34,0,TRUE,11,1,1,1,TRUE,FALSE,high_6,0.75,-1,3,,,,,,,,,,,165,10,3.2.2021,164.9713115
353,"['high', 1]",1,white,45,left,down,high,white_high_45_down,black_high_135_down,14,1.477482458,left,0.3114501,1,14,30,1,FALSE,13,1,1,1,TRUE,FALSE,high_1,0.75,-1,3,,,,,,,,,,,165,10,3.2.2021,164.9713115
354,"['high', 3]",3,black,45,right,up,high,black_high_45_up,white_high_135_up,7,1.572194867,right,0.2898386,1,7,37,1,FALSE,16,1,1,1,TRUE,FALSE,high_3,0.75,-1,3,,,,,,,,,,,165,10,3.2.2021,164.9713115
355,"['low', 3]",3,white,135,right,down,low,white_low_135_down,black_low_45_down,1,1.42684777,left,0.5191557,0,1,38,1,FALSE,11,1,1,1,TRUE,FALSE,low_3,0.75,-1,3,,,,,,,,,,,165,10,3.2.2021,164.9713115
356,"['high', 6]",6,black,45,right,down,high,black_high_45_down,white_high_135_down,3,1.713127629,right,0.3208518,1,3,35,1,TRUE,12,1,1,1,TRUE,FALSE,high_6,0.75,-1,3,,,,,,,,,,,165,10,3.2.2021,164.9713115
357,"['low', 1]",1,white,45,left,up,low,white_low_45_up,black_low_135_up,12,1.128691935,left,0.3369756,1,12,36,1,FALSE,14,1,1,1,TRUE,FALSE,low_1,0.75,-1,3,,,,,,,,,,,165,10,3.2.2021,164.9713115
358,"['low', 3]",3,black,135,left,up,low,black_low_135_up,white_low_45_up,4,1.484550842,left,0.2977668,1,4,39,0,TRUE,12,1,1,1,TRUE,FALSE,low_3,0.75,-1,3,,,,,,,,,,,165,10,3.2.2021,164.9713115
359,"['high', 4]",4,black,135,left,up,high,black_high_135_up,white_high_45_up,3,1.317522266,left,0.3111889,1,3,29,1,FALSE,11,1,1,1,TRUE,FALSE,high_4,0.75,-1,3,,,,,,,,,,,165,10,3.2.2021,164.9713115
360,"['low', 2]",2,black,45,right,down,low,black_low_45_down,white_low_135_down,3,1.026343674,right,0.3135871,1,3,38,1,FALSE,14,1,1,1,TRUE,FALSE,low_2,0.75,-1,3,,,,,,,,,,,165,10,3.2.2021,164.9713115
361,"['low', 1]",1,white,45,left,up,low,white_low_45_up,black_low_135_up,11,1.730968705,right,0.5540661,0,11,37,1,FALSE,14,1,1,1,TRUE,FALSE,low_1,0.75,-1,3,,,,,,,,,,,165,10,3.2.2021,164.9713115
362,"['high', 1]",1,black,135,left,down,high,black_high_135_down,white_high_45_down,13,1.228274953,left,0.3750873,1,13,31,1,FALSE,13,1,1,1,TRUE,FALSE,high_1,0.75,-1,3,,,,,,,,,,,165,10,3.2.2021,164.9713115
363,"['low', 4]",4,white,45,left,down,low,white_low_45_down,black_low_135_down,1,1.818929673,right,0.4168762,0,1,39,1,FALSE,14,1,1,1,TRUE,FALSE,low_4,0.75,-1,3,,,,,,,,,,,165,10,3.2.2021,164.9713115
364,"['high', 4]",4,black,45,right,up,high,black_high_45_up,white_high_135_up,2,1.880809909,right,0.4807766,1,2,30,1,FALSE,11,1,1,1,TRUE,FALSE,high_4,0.75,-1,3,,,,,,,,,,,165,10,3.2.2021,164.9713115
365,"['low', 1]",1,black,45,right,up,low,black_low_45_up,white_low_135_up,14,1.691541415,right,0.3891132,1,14,38,0,TRUE,15,1,1,1,TRUE,FALSE,low_1,0.75,-1,3,,,,,,,,,,,165,10,3.2.2021,164.9713115
366,"['low', 4]",4,white,45,left,up,low,white_low_45_up,black_low_135_up,4,1.500277379,left,0.390569,1,4,40,0,TRUE,15,1,1,1,TRUE,FALSE,low_4,0.75,-1,3,,,,,,,,,,,165,10,3.2.2021,164.9713115
367,"['high', 4]",4,black,135,left,down,high,black_high_135_down,white_high_45_down,1,1.903719527,right,0.2958216,0,1,31,1,FALSE,11,1,1,1,TRUE,FALSE,high_4,0.75,-1,3,,,,,,,,,,,165,10,3.2.2021,164.9713115
368,"['high', 2]",2,white,45,left,down,high,white_high_45_down,black_high_135_down,4,1.164103602,left,0.3840342,1,4,36,1,FALSE,11,1,1,1,TRUE,FALSE,high_2,0.75,-1,3,,,,,,,,,,,165,10,3.2.2021,164.9713115
369,"['low', 1]",1,white,45,left,up,low,white_low_45_up,black_low_135_up,13,1.329509443,right,0.8574212,0,13,39,1,TRUE,16,1,1,1,TRUE,FALSE,low_1,0.75,-1,3,,,,,,,,,,,165,10,3.2.2021,164.9713115
370,"['low', 1]",1,white,45,left,down,low,white_low_45_down,black_low_135_down,16,1.771575237,left,0.3283406,1,16,40,0,TRUE,17,1,1,1,TRUE,FALSE,low_1,0.75,-1,3,,,,,,,,,,,165,10,3.2.2021,164.9713115
371,"['high', 2]",2,white,45,left,down,high,white_high_45_down,black_high_135_down,3,1.179286475,left,0.3133267,1,3,37,1,FALSE,11,1,1,1,TRUE,FALSE,high_2,0.75,-1,3,,,,,,,,,,,165,10,3.2.2021,164.9713115
372,"['low', 3]",3,black,45,right,down,low,black_low_45_down,white_low_135_down,3,1.864239198,left,0.352992,0,3,40,1,TRUE,13,1,1,1,TRUE,FALSE,low_3,0.75,-1,3,,,,,,,,,,,165,10,3.2.2021,164.9713115
373,"['low', 6]",6,black,135,left,up,low,black_low_135_up,white_low_45_up,3,1.482610289,left,0.1941893,1,3,35,1,TRUE,11,1,1,1,TRUE,FALSE,low_6,0.75,-1,3,,,,,,,,,,,165,10,3.2.2021,164.9713115
374,"['low', 6]",6,white,45,left,down,low,white_low_45_down,black_low_135_down,2,1.867601508,left,0.2342384,1,2,36,1,FALSE,11,1,1,1,TRUE,FALSE,low_6,0.75,-1,3,,,,,,,,,,,165,10,3.2.2021,164.9713115
375,"['low', 2]",2,white,135,right,down,low,white_low_135_down,black_low_45_down,2,1.751813009,right,0.3715245,1,2,39,1,FALSE,14,1,1,1,TRUE,FALSE,low_2,0.75,-1,3,,,,,,,,,,,165,10,3.2.2021,164.9713115
376,"['high', 4]",4,white,135,right,up,high,white_high_135_up,black_high_45_up,4,1.99125199,left,0.2852205,0,4,32,0,TRUE,12,1,1,1,TRUE,FALSE,high_4,0.75,-1,3,,,,,,,,,,,165,10,3.2.2021,164.9713115
377,"['low', 3]",3,black,45,right,up,low,black_low_45_up,white_low_135_up,6,1.195525293,left,0.3319916,0,6,41,0,TRUE,14,1,1,1,TRUE,FALSE,low_3,0.75,-1,3,,,,,,,,,,,165,10,3.2.2021,164.9713115
378,"['high', 1]",1,black,45,right,up,high,black_high_45_up,white_high_135_up,12,1.876196087,right,0.2860965,1,12,32,1,FALSE,13,1,1,1,TRUE,FALSE,high_1,0.75,-1,3,,,,,,,,,,,165,10,3.2.2021,164.9713115
379,"['low', 4]",4,white,45,left,down,low,white_low_45_down,black_low_135_down,3,1.834848867,left,0.2303932,1,3,41,1,TRUE,16,1,1,1,TRUE,FALSE,low_4,0.75,-1,3,,,,,,,,,,,165,10,3.2.2021,164.9713115
380,"['high', 4]",4,black,45,right,down,high,black_high_45_down,white_high_135_down,7,1.238190512,right,0.2789328,1,7,33,0,FALSE,12,1,1,1,TRUE,FALSE,high_4,0.75,-1,3,,,,,,,,,,,165,10,3.2.2021,164.9713115
381,"['high', 2]",2,black,45,right,down,high,black_high_45_down,white_high_135_down,2,1.55471084,left,0.3270049,0,2,38,1,FALSE,11,1,1,1,TRUE,FALSE,high_2,0.75,-1,3,,,,,,,,,,,165,10,3.2.2021,164.9713115
382,"['low', 3]",3,white,135,right,up,low,white_low_135_up,black_low_45_up,9,1.467776949,right,0.1559298,1,9,42,0,FALSE,14,1,1,1,TRUE,FALSE,low_3,0.75,-1,3,,,,,,,,,,,165,10,3.2.2021,164.9713115
383,"['high', 2]",2,black,45,right,up,high,black_high_45_up,white_high_135_up,5,1.463687586,left,0.6696521,0,5,39,0,TRUE,12,1,1,1,TRUE,FALSE,high_2,0.75,-1,3,,,,,,,,,,,165,10,3.2.2021,164.9713115
384,"['high', 4]",4,white,135,right,down,high,white_high_135_down,black_high_45_down,6,1.857391041,right,0.0995019,1,6,34,1,TRUE,13,1,1,1,TRUE,FALSE,high_4,0.75,-1,3,,,,,,,,,,,165,10,3.2.2021,164.9713115
385,"['high', 2]",2,black,45,right,down,high,black_high_45_down,white_high_135_down,8,1.230897657,left,0.3626971,0,8,40,0,FALSE,12,1,1,1,TRUE,FALSE,high_2,0.75,-1,3,,,,,,,,,,,165,10,3.2.2021,164.9713115
386,"['low', 6]",6,white,45,left,up,low,white_low_45_up,black_low_135_up,1,1.143228553,left,0.36303,1,1,37,1,FALSE,11,1,1,1,TRUE,FALSE,low_6,0.75,-1,3,,,,,,,,,,,165,10,3.2.2021,164.9713115
387,"['high', 2]",2,black,45,right,down,high,black_high_45_down,white_high_135_down,11,1.575333612,right,0.330605,1,11,41,0,FALSE,12,1,1,1,TRUE,FALSE,high_2,0.75,-1,3,,,,,,,,,,,165,10,3.2.2021,164.9713115
388,"['high', 3]",3,white,135,right,down,high,white_high_135_down,black_high_45_down,6,1.388799791,right,0.3033961,1,6,38,1,FALSE,16,1,1,1,TRUE,FALSE,high_3,0.75,-1,3,,,,,,,,,,,165,10,3.2.2021,164.9713115
389,"['high', 4]",4,black,135,left,up,high,black_high_135_up,white_high_45_up,5,1.385683787,left,0.2790695,1,5,35,1,FALSE,13,1,1,1,TRUE,FALSE,high_4,0.75,-1,3,,,,,,,,,,,165,10,3.2.2021,164.9713115
390,"['low', 3]",3,black,135,left,up,low,black_low_135_up,white_low_45_up,8,1.807487656,left,0.3124038,1,8,43,1,TRUE,15,1,1,1,TRUE,FALSE,low_3,0.75,-1,3,,,,,,,,,,,165,10,3.2.2021,164.9713115
391,"['high', 6]",6,black,135,left,down,high,black_high_135_down,white_high_45_down,2,1.076965138,left,0.6180066,1,2,36,1,FALSE,12,1,1,1,TRUE,FALSE,high_6,0.75,-1,3,,,,,,,,,,,165,10,3.2.2021,164.9713115
392,"['high', 2]",2,white,45,left,up,high,white_high_45_up,black_high_135_up,10,1.618099386,left,0.3005452,1,10,42,1,TRUE,13,1,1,1,TRUE,FALSE,high_2,0.75,-1,3,,,,,,,,,,,165,10,3.2.2021,164.9713115
393,"['low', 6]",6,white,45,left,up,low,white_low_45_up,black_low_135_up,1,1.191720567,left,0.277578,1,1,38,1,FALSE,11,1,1,1,TRUE,FALSE,low_6,0.75,-1,3,,,,,,,,,,,165,10,3.2.2021,164.9713115
394,"['high', 6]",6,black,45,right,down,high,black_high_45_down,white_high_135_down,1,1.13893299,right,0.3523994,1,1,37,1,FALSE,12,1,1,1,TRUE,FALSE,high_6,0.75,-1,3,,,,,,,,,,,165,10,3.2.2021,164.9713115
395,"['high', 6]",6,black,135,left,up,high,black_high_135_up,white_high_45_up,1,1.464318458,left,0.3507936,1,1,38,1,FALSE,12,1,1,1,TRUE,FALSE,high_6,0.75,-1,3,,,,,,,,,,,165,10,3.2.2021,164.9713115
396,"['high', 2]",2,white,45,left,up,high,white_high_45_up,black_high_135_up,9,1.370394176,left,0.2801191,1,9,43,1,FALSE,13,1,1,1,TRUE,FALSE,high_2,0.75,-1,3,,,,,,,,,,,165,10,3.2.2021,164.9713115
397,"['high', 1]",1,white,45,left,up,high,white_high_45_up,black_high_135_up,11,1.098509753,left,0.3185956,1,11,33,1,FALSE,13,1,1,1,TRUE,FALSE,high_1,0.75,-1,3,,,,,,,,,,,165,10,3.2.2021,164.9713115
398,"['high', 6]",6,black,135,left,down,high,black_high_135_down,white_high_45_down,1,1.325724191,right,0.3228472,0,1,39,1,FALSE,12,1,1,1,TRUE,FALSE,high_6,0.75,-1,3,,,,,,,,,,,165,10,3.2.2021,164.9713115
399,"['high', 3]",3,black,45,right,down,high,black_high_45_down,white_high_135_down,5,1.379019856,right,0.2626696,1,5,39,1,FALSE,16,1,1,1,TRUE,FALSE,high_3,0.75,-1,3,,,,,,,,,,,165,10,3.2.2021,164.9713115
400,"['low', 4]",4,black,135,left,up,low,black_low_135_up,white_low_45_up,2,1.404723829,left,0.2859736,1,2,42,1,FALSE,16,1,1,1,TRUE,FALSE,low_4,0.75,-1,3,,,,,,,,,,,165,10,3.2.2021,164.9713115
401,"['high', 6]",6,black,45,right,down,high,black_high_45_down,white_high_135_down,4,1.09269035,right,0.2216708,1,4,40,0,TRUE,13,1,1,1,TRUE,FALSE,high_6,0.75,-1,3,,,,,,,,,,,165,10,3.2.2021,164.9713115
402,"['high', 3]",3,white,45,left,up,high,white_high_45_up,black_high_135_up,4,1.837044328,left,0.243852,1,4,40,1,FALSE,16,1,1,1,TRUE,FALSE,high_3,0.75,-1,3,,,,,,,,,,,165,10,3.2.2021,164.9713115
403,"['low', 3]",3,black,45,right,down,low,black_low_45_down,white_low_135_down,7,1.425065144,right,0.2083094,1,7,44,1,FALSE,15,1,1,1,TRUE,FALSE,low_3,0.75,-1,3,,,,,,,,,,,165,10,3.2.2021,164.9713115
404,"['low', 6]",6,white,45,left,down,low,white_low_45_down,black_low_135_down,1,1.797069323,left,0.2428335,1,1,39,1,FALSE,11,1,1,1,TRUE,FALSE,low_6,0.75,-1,3,,,,,,,,,,,165,10,3.2.2021,164.9713115
405,"['high', 4]",4,white,45,left,up,high,white_high_45_up,black_high_135_up,4,1.414664488,left,0.2364915,1,4,36,1,FALSE,13,1,1,1,TRUE,FALSE,high_4,0.75,-1,3,,,,,,,,,,,165,10,3.2.2021,164.9713115
406,"['high', 2]",2,black,135,left,down,high,black_high_135_down,white_high_45_down,8,1.46063938,left,0.6926479,1,8,44,1,FALSE,13,1,1,1,TRUE,FALSE,high_2,0.75,-1,3,,,,,,,,,,,165,10,3.2.2021,164.9713115
407,"['high', 4]",4,black,135,left,up,high,black_high_135_up,white_high_45_up,3,1.898340853,left,0.706127,1,3,37,1,FALSE,13,1,1,1,TRUE,FALSE,high_4,0.75,-1,3,,,,,,,,,,,165,10,3.2.2021,164.9713115
408,"['low', 1]",1,black,45,right,up,low,black_low_45_up,white_low_135_up,15,1.824870178,right,0.3769828,1,15,41,1,TRUE,18,1,1,1,TRUE,FALSE,low_1,0.75,-1,3,,,,,,,,,,,165,10,3.2.2021,164.9713115
409,"['low', 3]",3,white,45,left,up,low,white_low_45_up,black_low_135_up,6,1.880213378,left,0.2938057,1,6,45,1,FALSE,15,1,1,1,TRUE,FALSE,low_3,0.75,-1,3,,,,,,,,,,,165,10,3.2.2021,164.9713115
410,"['low', 3]",3,white,135,right,down,low,white_low_135_down,black_low_45_down,5,1.798561849,right,0.296561,1,5,46,1,FALSE,15,1,1,1,TRUE,FALSE,low_3,0.75,-1,3,,,,,,,,,,,165,10,3.2.2021,164.9713115
411,"['low', 4]",4,white,45,left,up,low,white_low_45_up,black_low_135_up,1,1.652974241,left,0.5686145,1,1,43,1,FALSE,16,1,1,1,TRUE,FALSE,low_4,0.75,-1,3,,,,,,,,,,,165,10,3.2.2021,164.9713115
412,"['low', 4]",4,white,135,right,up,low,white_low_135_up,black_low_45_up,1,1.914234341,right,0.2464074,1,1,44,1,FALSE,16,1,1,1,TRUE,FALSE,low_4,0.75,-1,3,,,,,,,,,,,165,10,3.2.2021,164.9713115
413,"['high', 4]",4,black,135,left,down,high,black_high_135_down,white_high_45_down,2,1.518430989,right,0.3602159,0,2,38,1,FALSE,13,1,1,1,TRUE,FALSE,high_4,0.75,-1,3,,,,,,,,,,,165,10,3.2.2021,164.9713115
414,"['low', 2]",2,black,45,right,down,low,black_low_45_down,white_low_135_down,1,1.313529674,left,0.3458723,0,1,40,1,FALSE,14,1,1,1,TRUE,FALSE,low_2,0.75,-1,3,,,,,,,,,,,165,10,3.2.2021,164.9713115
415,"['low', 2]",2,black,45,right,up,low,black_low_45_up,white_low_135_up,4,1.477232928,right,0.3650916,1,4,41,0,TRUE,15,1,1,1,TRUE,FALSE,low_2,0.75,-1,3,,,,,,,,,,,165,10,3.2.2021,164.9713115
416,"['low', 4]",4,black,45,right,down,low,black_low_45_down,white_low_135_down,1,1.446062181,left,0.2082393,0,1,45,1,FALSE,16,1,1,1,TRUE,FALSE,low_4,0.75,-1,3,,,,,,,,,,,165,10,3.2.2021,164.9713115
417,"['high', 1]",1,white,45,left,down,high,white_high_45_down,black_high_135_down,10,1.42004081,left,0.2936372,1,10,34,1,FALSE,13,1,1,1,TRUE,FALSE,high_1,0.75,-1,3,,,,,,,,,,,165,10,3.2.2021,164.9713115
418,"['low', 6]",6,black,135,left,up,low,black_low_135_up,white_low_45_up,1,1.672333633,right,0.4917441,0,1,40,1,FALSE,11,1,1,1,TRUE,FALSE,low_6,0.75,-1,3,,,,,,,,,,,165,10,3.2.2021,164.9713115
419,"['low', 4]",4,black,135,left,up,low,black_low_135_up,white_low_45_up,4,1.027126171,left,0.26243,1,4,46,0,TRUE,17,1,1,1,TRUE,FALSE,low_4,0.75,-1,3,,,,,,,,,,,165,10,3.2.2021,164.9713115
420,"['high', 1]",1,black,135,left,down,high,black_high_135_down,white_high_45_down,9,1.698350938,left,0.2847981,1,9,35,1,FALSE,13,1,1,1,TRUE,FALSE,high_1,0.75,-1,3,,,,,,,,,,,165,10,3.2.2021,164.9713115
421,"['low', 6]",6,black,135,left,up,low,black_low_135_up,white_low_45_up,4,1.170795871,left,0.3320208,1,4,41,0,TRUE,12,1,1,1,TRUE,FALSE,low_6,0.75,-1,3,,,,,,,,,,,165,10,3.2.2021,164.9713115
422,"['high', 1]",1,white,45,left,up,high,white_high_45_up,black_high_135_up,8,1.595889753,left,0.3746116,1,8,36,1,FALSE,13,1,1,1,TRUE,FALSE,high_1,0.75,-1,3,,,,,,,,,,,165,10,3.2.2021,164.9713115
423,"['low', 6]",6,white,45,left,up,low,white_low_45_up,black_low_135_up,3,1.022914888,left,0.3060406,1,3,42,1,TRUE,13,1,1,1,TRUE,FALSE,low_6,0.75,-1,3,,,,,,,,,,,165,10,3.2.2021,164.9713115
424,"['low', 2]",2,black,135,left,up,low,black_low_135_up,white_low_45_up,3,1.803072121,left,0.3214175,1,3,42,1,TRUE,16,1,1,1,TRUE,FALSE,low_2,0.75,-1,3,,,,,,,,,,,165,10,3.2.2021,164.9713115
425,"['low', 4]",4,black,45,right,up,low,black_low_45_up,white_low_135_up,3,1.704080561,right,0.2305478,1,3,47,1,TRUE,18,1,1,1,TRUE,FALSE,low_4,0.75,-1,3,,,,,,,,,,,165,10,3.2.2021,164.9713115
426,"['low', 4]",4,black,45,right,up,low,black_low_45_up,white_low_135_up,2,1.114984841,right,0.3004298,1,2,48,1,FALSE,18,1,1,1,TRUE,FALSE,low_4,0.75,-1,3,,,,,,,,,,,165,10,3.2.2021,164.9713115
427,"['low', 6]",6,black,45,right,up,low,black_low_45_up,white_low_135_up,2,1.288042742,right,0.5012071,1,2,43,1,FALSE,13,1,1,1,TRUE,FALSE,low_6,0.75,-1,3,,,,,,,,,,,165,10,3.2.2021,164.9713115
428,"['low', 4]",4,white,45,left,up,low,white_low_45_up,black_low_135_up,1,1.373357643,left,0.2884883,1,1,49,1,FALSE,18,1,1,1,TRUE,FALSE,low_4,0.75,-1,3,,,,,,,,,,,165,10,3.2.2021,164.9713115
429,"['low', 4]",4,black,45,right,up,low,black_low_45_up,white_low_135_up,1,1.097512485,right,0.2261725,1,1,50,1,FALSE,18,1,1,1,TRUE,FALSE,low_4,0.75,-1,3,,,,,,,,,,,165,10,3.2.2021,164.9713115
430,"['high', 4]",4,white,45,left,down,high,white_high_45_down,black_high_135_down,5,1.498300918,left,0.2688333,1,5,39,0,TRUE,14,1,1,1,TRUE,FALSE,high_4,0.75,-1,3,,,,,,,,,,,165,10,3.2.2021,164.9713115
431,"['high', 1]",1,black,135,left,up,high,black_high_135_up,white_high_45_up,7,1.315855372,right,0.288677,0,7,37,1,FALSE,13,1,1,1,TRUE,FALSE,high_1,0.75,-1,3,,,,,,,,,,,165,10,3.2.2021,164.9713115
432,"['high', 4]",4,black,135,left,up,high,black_high_135_up,white_high_45_up,4,1.562838949,left,0.2042134,1,4,40,1,TRUE,15,1,1,1,TRUE,FALSE,high_4,0.75,-1,3,,,,,,,,,,,165,10,3.2.2021,164.9713115
433,"['low', 1]",1,white,45,left,up,low,white_low_45_up,black_low_135_up,14,1.161324145,left,0.3728612,1,14,42,1,FALSE,18,1,1,1,TRUE,FALSE,low_1,0.75,-1,3,,,,,,,,,,,165,10,3.2.2021,164.9713115
434,"['high', 6]",6,white,45,left,up,high,white_high_45_up,black_high_135_up,3,1.821142324,left,0.2508348,1,3,41,1,TRUE,14,1,1,1,TRUE,FALSE,high_6,0.75,-1,3,,,,,,,,,,,165,10,3.2.2021,164.9713115
435,"['high', 1]",1,white,45,left,up,high,white_high_45_up,black_high_135_up,10,1.889173199,left,0.2413381,1,10,38,0,TRUE,14,1,1,1,TRUE,FALSE,high_1,0.75,-1,3,,,,,,,,,,,165,10,3.2.2021,164.9713115
436,"['low', 4]",4,white,45,left,down,low,white_low_45_down,black_low_135_down,1,1.395789497,left,0.2906621,1,1,51,1,FALSE,18,1,1,1,TRUE,FALSE,low_4,0.75,-1,3,,,,,,,,,,,165,10,3.2.2021,164.9713115
437,"['high', 1]",1,black,135,left,up,high,black_high_135_up,white_high_45_up,9,1.587747568,left,0.2607242,1,9,39,1,TRUE,15,1,1,1,TRUE,FALSE,high_1,0.75,-1,3,,,,,,,,,,,165,10,3.2.2021,164.9713115
438,"['low', 1]",1,black,45,right,up,low,black_low_45_up,white_low_135_up,13,1.828798256,right,0.3277023,1,13,43,1,FALSE,18,1,1,1,TRUE,FALSE,low_1,0.75,-1,3,,,,,,,,,,,165,10,3.2.2021,164.9713115
439,"['low', 2]",2,black,135,left,down,low,black_low_135_down,white_low_45_down,2,1.997740638,left,0.2560333,1,2,43,1,FALSE,16,1,1,1,TRUE,FALSE,low_2,0.75,-1,3,,,,,,,,,,,165,10,3.2.2021,164.9713115
440,"['low', 4]",4,black,135,left,up,low,black_low_135_up,white_low_45_up,1,1.009417033,left,0.5610266,1,1,52,1,FALSE,18,1,1,1,TRUE,FALSE,low_4,0.75,-1,3,,,,,,,,,,,165,10,3.2.2021,164.9713115
441,"['high', 6]",6,white,135,right,up,high,white_high_135_up,black_high_45_up,2,1.380546169,right,0.2447917,1,2,42,1,FALSE,14,1,1,1,TRUE,FALSE,high_6,0.75,-1,3,,,,,,,,,,,165,10,3.2.2021,164.9713115
442,"['high', 3]",3,black,45,right,up,high,black_high_45_up,white_high_135_up,3,1.690762153,left,0.2045534,0,3,41,1,FALSE,16,1,1,1,TRUE,FALSE,high_3,0.75,-1,3,,,,,,,,,,,165,10,3.2.2021,164.9713115
443,"['low', 3]",3,black,45,right,up,low,black_low_45_up,white_low_135_up,4,1.220406898,right,0.2635256,1,4,47,1,FALSE,15,1,1,1,TRUE,FALSE,low_3,0.75,-1,3,,,,,,,,,,,165,10,3.2.2021,164.9713115
444,"['high', 2]",2,black,135,left,up,high,black_high_135_up,white_high_45_up,7,1.222502447,left,0.2909833,1,7,45,1,FALSE,13,1,1,1,TRUE,FALSE,high_2,0.75,-1,3,,,,,,,,,,,165,10,3.2.2021,164.9713115
445,"['high', 2]",2,white,135,right,down,high,white_high_135_down,black_high_45_down,6,1.750307921,right,0.1984666,1,6,46,1,FALSE,13,1,1,1,TRUE,FALSE,high_2,0.75,-1,3,,,,,,,,,,,165,10,3.2.2021,164.9713115
446,"['low', 1]",1,white,135,right,down,low,white_low_135_down,black_low_45_down,12,1.939472403,right,0.1952722,1,12,44,1,FALSE,18,1,1,1,TRUE,FALSE,low_1,0.75,-1,3,,,,,,,,,,,165,10,3.2.2021,164.9713115
447,"['high', 3]",3,white,135,right,down,high,white_high_135_down,black_high_45_down,6,1.098928507,right,0.2202309,1,6,42,0,TRUE,17,1,1,1,TRUE,FALSE,high_3,0.75,-1,3,,,,,,,,,,,165,10,3.2.2021,164.9713115
448,"['low', 2]",2,black,45,right,up,low,black_low_45_up,white_low_135_up,1,1.173070295,right,0.2862934,1,1,44,1,FALSE,16,1,1,1,TRUE,FALSE,low_2,0.75,-1,3,,,,,,,,,,,165,10,3.2.2021,164.9713115
449,"['low', 4]",4,black,135,left,up,low,black_low_135_up,white_low_45_up,1,1.546290744,right,0.3335685,0,1,53,1,FALSE,18,1,1,1,TRUE,FALSE,low_4,0.75,-1,3,,,,,,,,,,,165,10,3.2.2021,164.9713115
450,"['low', 3]",3,white,45,left,down,low,white_low_45_down,black_low_135_down,3,1.356547537,left,0.2580687,1,3,48,1,FALSE,15,1,1,1,TRUE,FALSE,low_3,0.75,-1,3,,,,,,,,,,,165,10,3.2.2021,164.9713115
451,"['high', 1]",1,white,45,left,down,high,white_high_45_down,black_high_135_down,8,1.569094593,left,0.3183116,1,8,40,1,FALSE,15,1,1,1,TRUE,FALSE,high_1,0.75,-1,3,,,,,,,,,,,165,10,3.2.2021,164.9713115
452,"['high', 4]",4,white,45,left,down,high,white_high_45_down,black_high_135_down,3,1.763831178,left,0.2894148,1,3,41,1,FALSE,15,1,1,1,TRUE,FALSE,high_4,0.75,-1,3,,,,,,,,,,,165,10,3.2.2021,164.9713115
453,"['low', 4]",4,white,45,left,down,low,white_low_45_down,black_low_135_down,4,1.407645325,left,0.3250331,1,4,54,0,TRUE,19,1,1,1,TRUE,FALSE,low_4,0.75,-1,3,,,,,,,,,,,165,10,3.2.2021,164.9713115
454,"['high', 3]",3,black,45,right,up,high,black_high_45_up,white_high_135_up,5,1.785566119,right,0.3356898,1,5,43,1,TRUE,18,1,1,1,TRUE,FALSE,high_3,0.75,-1,3,,,,,,,,,,,165,10,3.2.2021,164.9713115
455,"['low', 6]",6,black,135,left,down,low,black_low_135_down,white_low_45_down,1,1.588880647,left,0.3332035,1,1,44,1,FALSE,13,1,1,1,TRUE,FALSE,low_6,0.75,-1,3,,,,,,,,,,,165,10,3.2.2021,164.9713115
456,"['low', 3]",3,white,45,left,up,low,white_low_45_up,black_low_135_up,2,1.84024071,left,0.2935339,1,2,49,1,FALSE,15,1,1,1,TRUE,FALSE,low_3,0.75,-1,3,,,,,,,,,,,165,10,3.2.2021,164.9713115
457,"['low', 4]",4,black,45,right,down,low,black_low_45_down,white_low_135_down,3,1.1283357,right,0.3078255,1,3,55,1,TRUE,20,1,1,1,TRUE,FALSE,low_4,0.75,-1,3,,,,,,,,,,,165,10,3.2.2021,164.9713115
458,"['low', 3]",3,black,135,left,up,low,black_low_135_up,white_low_45_up,1,1.651143023,left,0.3238309,1,1,50,1,FALSE,15,1,1,1,TRUE,FALSE,low_3,0.75,-1,3,,,,,,,,,,,165,10,3.2.2021,164.9713115
459,"['low', 4]",4,white,135,right,down,low,white_low_135_down,black_low_45_down,2,1.978874371,right,0.3214493,1,2,56,1,FALSE,20,1,1,1,TRUE,FALSE,low_4,0.75,-1,3,,,,,,,,,,,165,10,3.2.2021,164.9713115
460,"['low', 4]",4,black,45,right,down,low,black_low_45_down,white_low_135_down,1,1.147990693,right,0.478482,1,1,57,1,FALSE,20,1,1,1,TRUE,FALSE,low_4,0.75,-1,3,,,,,,,,,,,165,10,3.2.2021,164.9713115
461,"['high', 3]",3,white,45,left,down,high,white_high_45_down,black_high_135_down,4,1.214245325,left,0.362207,1,4,44,1,FALSE,18,1,1,1,TRUE,FALSE,high_3,0.75,-1,3,,,,,,,,,,,165,10,3.2.2021,164.9713115
462,"['high', 1]",1,white,45,left,down,high,white_high_45_down,black_high_135_down,7,1.586457884,left,0.3573313,1,7,41,1,FALSE,15,1,1,1,TRUE,FALSE,high_1,0.75,-1,3,,,,,,,,,,,165,10,3.2.2021,164.9713115
463,"['low', 6]",6,white,45,left,up,low,white_low_45_up,black_low_135_up,1,1.419148439,left,0.2737806,1,1,45,1,FALSE,13,1,1,1,TRUE,FALSE,low_6,0.75,-1,3,,,,,,,,,,,165,10,3.2.2021,164.9713115
464,"['high', 6]",6,white,135,right,up,high,white_high_135_up,black_high_45_up,1,1.665246109,right,0.2877783,1,1,43,1,FALSE,14,1,1,1,TRUE,FALSE,high_6,0.75,-1,3,,,,,,,,,,,165,10,3.2.2021,164.9713115
465,"['high', 1]",1,white,45,left,down,high,white_high_45_down,black_high_135_down,6,1.577059067,left,0.3856077,1,6,42,1,FALSE,15,1,1,1,TRUE,FALSE,high_1,0.75,-1,3,,,,,,,,,,,165,10,3.2.2021,164.9713115
466,"['high', 3]",3,white,45,left,up,high,white_high_45_up,black_high_135_up,3,1.485081877,right,0.3114251,0,3,45,1,FALSE,18,1,1,1,TRUE,FALSE,high_3,0.75,-1,3,,,,,,,,,,,165,10,3.2.2021,164.9713115
467,"['low', 1]",1,white,45,left,down,low,white_low_45_down,black_low_135_down,11,1.908101928,left,0.2700877,1,11,45,1,FALSE,18,1,1,1,TRUE,FALSE,low_1,0.75,-1,3,,,,,,,,,,,165,10,3.2.2021,164.9713115
468,"['low', 4]",4,white,45,left,up,low,white_low_45_up,black_low_135_up,1,1.161639377,left,0.2955499,1,1,58,1,FALSE,20,1,1,1,TRUE,FALSE,low_4,0.75,-1,3,,,,,,,,,,,165,10,3.2.2021,164.9713115
469,"['high', 1]",1,black,45,right,down,high,black_high_45_down,white_high_135_down,5,1.300118243,left,0.3128304,0,5,43,1,FALSE,15,1,1,1,TRUE,FALSE,high_1,0.75,-1,3,,,,,,,,,,,165,10,3.2.2021,164.9713115
470,"['high', 4]",4,white,45,left,up,high,white_high_45_up,black_high_135_up,2,1.894247553,right,0.3302862,0,2,42,1,FALSE,15,1,1,1,TRUE,FALSE,high_4,0.75,-1,3,,,,,,,,,,,165,10,3.2.2021,164.9713115
471,"['high', 4]",4,white,45,left,up,high,white_high_45_up,black_high_135_up,5,1.749341424,left,0.4214161,1,5,43,0,TRUE,16,1,1,1,TRUE,FALSE,high_4,0.75,-1,3,,,,,,,,,,,165,10,3.2.2021,164.9713115
472,"['high', 1]",1,white,135,right,up,high,white_high_135_up,black_high_45_up,8,1.010793978,right,0.3542815,1,8,44,0,TRUE,16,1,1,1,TRUE,FALSE,high_1,0.75,-1,3,,,,,,,,,,,165,10,3.2.2021,164.9713115
473,"['low', 6]",6,white,135,right,up,low,white_low_135_up,black_low_45_up,1,1.339672531,right,0.3689635,1,1,46,1,FALSE,13,1,1,1,TRUE,FALSE,low_6,0.75,-1,3,,,,,,,,,,,165,10,3.2.2021,164.9713115
474,"['low', 1]",1,black,135,left,up,low,black_low_135_up,white_low_45_up,10,1.197738009,right,0.4365099,0,10,46,1,FALSE,18,1,1,1,TRUE,FALSE,low_1,0.75,-1,3,,,,,,,,,,,165,10,3.2.2021,164.9713115
475,"['low', 3]",3,white,45,left,down,low,white_low_45_down,black_low_135_down,1,1.62725165,left,0.1819954,1,1,51,1,FALSE,15,1,1,1,TRUE,FALSE,low_3,0.75,-1,3,,,,,,,,,,,165,10,3.2.2021,164.9713115
476,"['high', 1]",1,white,135,right,down,high,white_high_135_down,black_high_45_down,7,1.057008049,right,0.3793926,1,7,45,1,TRUE,17,1,1,1,TRUE,FALSE,high_1,0.75,-1,3,,,,,,,,,,,165,10,3.2.2021,164.9713115
477,"['low', 4]",4,black,45,right,down,low,black_low_45_down,white_low_135_down,1,1.512355878,right,0.4581513,1,1,59,1,FALSE,20,1,1,1,TRUE,FALSE,low_4,0.75,-1,3,,,,,,,,,,,165,10,3.2.2021,164.9713115
478,"['low', 2]",2,white,135,right,down,low,white_low_135_down,black_low_45_down,1,1.763398549,right,0.31404,1,1,45,1,FALSE,16,1,1,1,TRUE,FALSE,low_2,0.75,-1,3,,,,,,,,,,,165,10,3.2.2021,164.9713115
479,"['high', 1]",1,white,135,right,up,high,white_high_135_up,black_high_45_up,6,1.780295519,right,0.3449515,1,6,46,1,FALSE,17,1,1,1,TRUE,FALSE,high_1,0.75,-1,3,,,,,,,,,,,165,10,3.2.2021,164.9713115
480,"['high', 6]",6,black,135,left,up,high,black_high_135_up,white_high_45_up,1,1.692902027,right,0.1997267,0,1,44,1,FALSE,14,1,1,1,TRUE,FALSE,high_6,0.75,-1,3,,,,,,,,,,,165,10,3.2.2021,164.9713115
481,"['low', 3]",3,black,45,right,up,low,black_low_45_up,white_low_135_up,1,1.842479906,right,0.6507814,1,1,52,1,FALSE,15,1,1,1,TRUE,FALSE,low_3,0.75,-1,3,,,,,,,,,,,165,10,3.2.2021,164.9713115
482,"['high', 4]",4,white,45,left,down,high,white_high_45_down,black_high_135_down,4,1.438572184,left,0.317291,1,4,44,1,TRUE,17,1,1,1,TRUE,FALSE,high_4,0.75,-1,3,,,,,,,,,,,165,10,3.2.2021,164.9713115
483,"['high', 2]",2,white,135,right,up,high,white_high_135_up,black_high_45_up,5,1.346380333,right,0.2250521,1,5,47,1,FALSE,13,1,1,1,TRUE,FALSE,high_2,0.75,-1,3,,,,,,,,,,,165,10,3.2.2021,164.9713115
484,"['high', 3]",3,white,135,right,up,high,white_high_135_up,black_high_45_up,6,1.277629432,right,0.2960099,1,6,46,0,TRUE,19,1,1,1,TRUE,FALSE,high_3,0.75,-1,3,,,,,,,,,,,165,10,3.2.2021,164.9713115
485,"['high', 4]",4,black,45,right,up,high,black_high_45_up,white_high_135_up,3,1.953855199,right,0.2380473,1,3,45,1,FALSE,17,1,1,1,TRUE,FALSE,high_4,0.75,-1,3,,,,,,,,,,,165,10,3.2.2021,164.9713115
486,"['low', 1]",1,black,135,left,up,low,black_low_135_up,white_low_45_up,13,1.531682187,right,0.2722462,0,13,47,0,TRUE,19,1,1,1,TRUE,FALSE,low_1,0.75,-1,3,,,,,,,,,,,165,10,3.2.2021,164.9713115
487,"['high', 2]",2,black,135,left,down,high,black_high_135_down,white_high_45_down,4,1.952009578,left,0.2998876,1,4,48,1,FALSE,13,1,1,1,TRUE,FALSE,high_2,0.75,-1,3,,,,,,,,,,,165,10,3.2.2021,164.9713115
488,"['low', 3]",3,black,45,right,up,low,black_low_45_up,white_low_135_up,1,1.622403925,right,0.2420214,1,1,53,1,FALSE,15,1,1,1,TRUE,FALSE,low_3,0.75,-1,3,,,,,,,,,,,165,10,3.2.2021,164.9713115
489,"['high', 6]",6,black,45,right,down,high,black_high_45_down,white_high_135_down,4,1.890556455,left,0.2890942,0,4,45,0,TRUE,15,1,1,1,TRUE,FALSE,high_6,0.75,-1,3,,,,,,,,,,,165,10,3.2.2021,164.9713115
490,"['high', 2]",2,white,135,right,up,high,white_high_135_up,black_high_45_up,3,1.019338486,left,0.2729234,0,3,49,1,FALSE,13,1,1,1,TRUE,FALSE,high_2,0.75,-1,3,,,,,,,,,,,165,10,3.2.2021,164.9713115
491,"['low', 4]",4,black,45,right,up,low,black_low_45_up,white_low_135_up,1,1.903242347,right,0.2545136,1,1,60,1,FALSE,20,1,1,1,TRUE,FALSE,low_4,0.75,-1,3,,,,,,,,,,,165,10,3.2.2021,164.9713115
492,"['high', 2]",2,black,45,right,up,high,black_high_45_up,white_high_135_up,6,1.754584419,right,0.2726809,1,6,50,0,TRUE,14,1,1,1,TRUE,FALSE,high_2,0.75,-1,3,,,,,,,,,,,165,10,3.2.2021,164.9713115
493,"['high', 3]",3,black,135,left,down,high,black_high_135_down,white_high_45_down,5,1.944244496,left,0.2736319,1,5,47,1,TRUE,20,1,1,1,TRUE,FALSE,high_3,0.75,-1,3,,,,,,,,,,,165,10,3.2.2021,164.9713115
494,"['low', 6]",6,white,45,left,up,low,white_low_45_up,black_low_135_up,1,1.784570144,left,0.3097309,1,1,47,1,FALSE,13,1,1,1,TRUE,FALSE,low_6,0.75,-1,3,,,,,,,,,,,165,10,3.2.2021,164.9713115
495,"['high', 1]",1,white,45,left,down,high,white_high_45_down,black_high_135_down,5,1.901290322,left,0.3215196,1,5,47,1,FALSE,17,1,1,1,TRUE,FALSE,high_1,0.75,-1,3,,,,,,,,,,,165,10,3.2.2021,164.9713115
496,"['low', 4]",4,white,135,right,down,low,white_low_135_down,black_low_45_down,1,1.734631983,right,0.3159237,1,1,61,1,FALSE,20,1,1,1,TRUE,FALSE,low_4,0.75,-1,3,,,,,,,,,,,165,10,3.2.2021,164.9713115
497,"['high', 1]",1,black,45,right,down,high,black_high_45_down,white_high_135_down,4,1.737447065,right,0.312963,1,4,48,1,FALSE,17,1,1,1,TRUE,FALSE,high_1,0.75,-1,3,,,,,,,,,,,165,10,3.2.2021,164.9713115
498,"['high', 3]",3,black,45,right,down,high,black_high_45_down,white_high_135_down,4,1.405621493,right,0.3230304,1,4,48,1,FALSE,20,1,1,1,TRUE,FALSE,high_3,0.75,-1,3,,,,,,,,,,,165,10,3.2.2021,164.9713115
499,"['high', 1]",1,black,135,left,down,high,black_high_135_down,white_high_45_down,3,1.443080767,left,0.3106512,1,3,49,1,FALSE,17,1,1,1,TRUE,FALSE,high_1,0.75,-1,3,,,,,,,,,,,165,10,3.2.2021,164.9713115
500,"['low', 4]",4,white,45,left,down,low,white_low_45_down,black_low_135_down,1,1.945446003,left,0.6921121,1,1,62,1,FALSE,20,1,1,1,TRUE,FALSE,low_4,0.75,-1,3,,,,,,,,,,,165,10,3.2.2021,164.9713115
501,"['low', 6]",6,white,45,left,up,low,white_low_45_up,black_low_135_up,1,1.522597005,left,0.2508753,1,1,48,1,FALSE,13,1,1,1,TRUE,FALSE,low_6,0.75,-1,3,,,,,,,,,,,165,10,3.2.2021,164.9713115
