trial_number,trial_type,cycle_number,first_color,first_orientation,correct_response,visual_field,spatial_frequency,first_stim,second_stim,stimulus_frame_duration,answer,rt,accuracy,staircase_dv,staircase_trial_num,staircase_previous_correct,staircase_reversal,staircase_reversal_num,staircase_phase,staircase_step_size,staircase_powers_law,staircase_siam,staircase_over,staircase_name,staircase_conv_p,staircase_step_hit,staircase_step_miss,threshold_low1,threshold_low2,threshold_low3,threshold_low4,threshold_low6,threshold_high1,threshold_high2,threshold_high3,threshold_high4,threshold_high6,frame_rate,participant,psychopyVersion,frame_rate_detected
0,"['low', 4]",4,white,45,left,up,low,white_low_45_up,black_low_135_up,4,left,0.1048234,1,4,0,None,FALSE,0,0,1,1,TRUE,FALSE,low_4,0.75,-1,3,,,,,,,,,,,165,5,3.2.2021,164.9549838
1,"['high', 2]",2,black,45,right,down,high,black_high_45_down,white_high_135_down,8,right,0.131234,1,8,0,None,FALSE,0,0,1,1,TRUE,FALSE,high_2,0.75,-1,3,,,,,,,,,,,165,5,3.2.2021,164.9549838
2,"['low', 2]",2,black,45,right,up,low,black_low_45_up,white_low_135_up,4,left,0.737163,0,4,0,None,FALSE,0,0,1,1,TRUE,FALSE,low_2,0.75,-1,3,,,,,,,,,,,165,5,3.2.2021,164.9549838
3,"['low', 1]",1,black,45,right,down,low,black_low_45_down,white_low_135_down,8,left,0.1374718,0,8,0,None,FALSE,0,0,1,1,TRUE,FALSE,low_1,0.75,-1,3,,,,,,,,,,,165,5,3.2.2021,164.9549838
4,"['low', 3]",3,black,135,left,up,low,black_low_135_up,white_low_45_up,4,left,0.442861,1,4,0,None,FALSE,0,0,1,1,TRUE,FALSE,low_3,0.75,-1,3,,,,,,,,,,,165,5,3.2.2021,164.9549838
5,"['low', 6]",6,black,45,right,up,low,black_low_45_up,white_low_135_up,4,right,0.2646836,1,4,0,None,FALSE,0,0,1,1,TRUE,FALSE,low_6,0.75,-1,3,,,,,,,,,,,165,5,3.2.2021,164.9549838
6,"['high', 4]",4,black,45,right,up,high,black_high_45_up,white_high_135_up,8,left,0.3791557,0,8,0,None,FALSE,0,0,1,1,TRUE,FALSE,high_4,0.75,-1,3,,,,,,,,,,,165,5,3.2.2021,164.9549838
7,"['low', 6]",6,black,45,right,up,low,black_low_45_up,white_low_135_up,3,left,0.3660872,0,3,1,1,FALSE,0,0,1,1,TRUE,FALSE,low_6,0.75,-1,3,,,,,,,,,,,165,5,3.2.2021,164.9549838
8,"['low', 4]",4,white,45,left,up,low,white_low_45_up,black_low_135_up,3,left,0.402327,1,3,1,1,FALSE,0,0,1,1,TRUE,FALSE,low_4,0.75,-1,3,,,,,,,,,,,165,5,3.2.2021,164.9549838
9,"['high', 2]",2,white,45,left,down,high,white_high_45_down,black_high_135_down,7,left,0.3093517,1,7,1,1,FALSE,0,0,1,1,TRUE,FALSE,high_2,0.75,-1,3,,,,,,,,,,,165,5,3.2.2021,164.9549838
10,"['low', 2]",2,black,135,left,up,low,black_low_135_up,white_low_45_up,7,right,0.3071592,0,7,1,0,FALSE,0,0,1,1,TRUE,FALSE,low_2,0.75,-1,3,,,,,,,,,,,165,5,3.2.2021,164.9549838
11,"['high', 2]",2,white,135,right,up,high,white_high_135_up,black_high_45_up,6,left,0.3195419,0,6,2,1,FALSE,0,0,1,1,TRUE,FALSE,high_2,0.75,-1,3,,,,,,,,,,,165,5,3.2.2021,164.9549838
12,"['high', 6]",6,white,45,left,up,high,white_high_45_up,black_high_135_up,8,left,0.3422648,1,8,0,None,FALSE,0,0,1,1,TRUE,FALSE,high_6,0.75,-1,3,,,,,,,,,,,165,5,3.2.2021,164.9549838
13,"['low', 6]",6,black,135,left,up,low,black_low_135_up,white_low_45_up,6,left,0.288516,1,6,2,0,TRUE,1,0,1,1,TRUE,FALSE,low_6,0.75,-1,3,,,,,,,,,,,165,5,3.2.2021,164.9549838
14,"['high', 3]",3,white,45,left,up,high,white_high_45_up,black_high_135_up,8,left,0.2254782,1,8,0,None,FALSE,0,0,1,1,TRUE,FALSE,high_3,0.75,-1,3,,,,,,,,,,,165,5,3.2.2021,164.9549838
15,"['low', 4]",4,black,45,right,up,low,black_low_45_up,white_low_135_up,2,right,0.0992522,1,2,2,1,FALSE,0,0,1,1,TRUE,FALSE,low_4,0.75,-1,3,,,,,,,,,,,165,5,3.2.2021,164.9549838
16,"['low', 6]",6,white,45,left,up,low,white_low_45_up,black_low_135_up,5,left,1.3873275,1,5,3,1,TRUE,2,0,1,1,TRUE,FALSE,low_6,0.75,-1,3,,,,,,,,,,,165,5,3.2.2021,164.9549838
17,"['high', 2]",2,white,135,right,down,high,white_high_135_down,black_high_45_down,9,right,0.3019374,1,9,3,0,TRUE,1,0,1,1,TRUE,FALSE,high_2,0.75,-1,3,,,,,,,,,,,165,5,3.2.2021,164.9549838
18,"['low', 2]",2,black,45,right,down,low,black_low_45_down,white_low_135_down,10,right,0.328791,1,10,2,0,FALSE,0,0,1,1,TRUE,FALSE,low_2,0.75,-1,3,,,,,,,,,,,165,5,3.2.2021,164.9549838
19,"['high', 4]",4,black,135,left,up,high,black_high_135_up,white_high_45_up,11,left,3.5512299,1,11,1,0,FALSE,0,0,1,1,TRUE,FALSE,high_4,0.75,-1,3,,,,,,,,,,,165,5,3.2.2021,164.9549838
20,"['high', 1]",1,white,45,left,up,high,white_high_45_up,black_high_135_up,12,left,0.3471109,1,12,0,None,FALSE,0,0,1,1,TRUE,FALSE,high_1,0.75,-1,3,,,,,,,,,,,165,5,3.2.2021,164.9549838
21,"['low', 6]",6,white,135,right,up,low,white_low_135_up,black_low_45_up,4,right,0.4987229,1,4,4,1,FALSE,2,0,1,1,TRUE,FALSE,low_6,0.75,-1,3,,,,,,,,,,,165,5,3.2.2021,164.9549838
22,"['high', 6]",6,black,135,left,up,high,black_high_135_up,white_high_45_up,7,left,1.5767737,1,7,1,1,FALSE,0,0,1,1,TRUE,FALSE,high_6,0.75,-1,3,,,,,,,,,,,165,5,3.2.2021,164.9549838
23,"['low', 2]",2,white,135,right,down,low,white_low_135_down,black_low_45_down,9,right,0.4902934,1,9,3,1,TRUE,1,0,1,1,TRUE,FALSE,low_2,0.75,-1,3,,,,,,,,,,,165,5,3.2.2021,164.9549838
24,"['low', 3]",3,white,135,right,down,low,white_low_135_down,black_low_45_down,3,right,0.2647338,1,3,1,1,FALSE,0,0,1,1,TRUE,FALSE,low_3,0.75,-1,3,,,,,,,,,,,165,5,3.2.2021,164.9549838
25,"['high', 4]",4,black,45,right,up,high,black_high_45_up,white_high_135_up,10,left,0.2619041,0,10,2,1,TRUE,1,0,1,1,TRUE,FALSE,high_4,0.75,-1,3,,,,,,,,,,,165,5,3.2.2021,164.9549838
26,"['high', 3]",3,white,135,right,down,high,white_high_135_down,black_high_45_down,7,right,0.3379301,1,7,1,1,FALSE,0,0,1,1,TRUE,FALSE,high_3,0.75,-1,3,,,,,,,,,,,165,5,3.2.2021,164.9549838
27,"['high', 4]",4,black,45,right,up,high,black_high_45_up,white_high_135_up,13,left,0.0165216,0,13,3,0,TRUE,2,0,1,1,TRUE,FALSE,high_4,0.75,-1,3,,,,,,,,,,,165,5,3.2.2021,164.9549838
28,"['high', 6]",6,white,45,left,up,high,white_high_45_up,black_high_135_up,6,left,0.3061234,1,6,2,1,FALSE,0,0,1,1,TRUE,FALSE,high_6,0.75,-1,3,,,,,,,,,,,165,5,3.2.2021,164.9549838
29,"['low', 4]",4,black,135,left,down,low,black_low_135_down,white_low_45_down,1,right,0.5550457,0,1,3,1,FALSE,0,0,1,1,TRUE,FALSE,low_4,0.75,-1,3,,,,,,,,,,,165,5,3.2.2021,164.9549838
30,"['low', 6]",6,black,45,right,up,low,black_low_45_up,white_low_135_up,3,right,0.3851484,1,3,5,1,FALSE,2,0,1,1,TRUE,FALSE,low_6,0.75,-1,3,,,,,,,,,,,165,5,3.2.2021,164.9549838
31,"['high', 3]",3,white,45,left,up,high,white_high_45_up,black_high_135_up,6,left,0.2534487,1,6,2,1,FALSE,0,0,1,1,TRUE,FALSE,high_3,0.75,-1,3,,,,,,,,,,,165,5,3.2.2021,164.9549838
32,"['low', 4]",4,white,45,left,down,low,white_low_45_down,black_low_135_down,4,left,0.2839686,1,4,4,0,TRUE,1,0,1,1,TRUE,FALSE,low_4,0.75,-1,3,,,,,,,,,,,165,5,3.2.2021,164.9549838
33,"['high', 2]",2,black,135,left,down,high,black_high_135_down,white_high_45_down,8,right,0.3036431,0,8,4,1,TRUE,2,0,1,1,TRUE,FALSE,high_2,0.75,-1,3,,,,,,,,,,,165,5,3.2.2021,164.9549838
34,"['low', 1]",1,black,45,right,down,low,black_low_45_down,white_low_135_down,11,left,0.4023974,0,11,1,0,FALSE,0,0,1,1,TRUE,FALSE,low_1,0.75,-1,3,,,,,,,,,,,165,5,3.2.2021,164.9549838
35,"['high', 6]",6,black,135,left,down,high,black_high_135_down,white_high_45_down,5,right,0.2506722,0,5,3,1,FALSE,0,0,1,1,TRUE,FALSE,high_6,0.75,-1,3,,,,,,,,,,,165,5,3.2.2021,164.9549838
36,"['high', 6]",6,white,45,left,up,high,white_high_45_up,black_high_135_up,8,left,0.729808,1,8,4,0,TRUE,1,0,1,1,TRUE,FALSE,high_6,0.75,-1,3,,,,,,,,,,,165,5,3.2.2021,164.9549838
37,"['high', 6]",6,white,135,right,down,high,white_high_135_down,black_high_45_down,7,right,0.2545716,1,7,5,1,TRUE,2,0,1,1,TRUE,FALSE,high_6,0.75,-1,3,,,,,,,,,,,165,5,3.2.2021,164.9549838
38,"['high', 3]",3,black,135,left,down,high,black_high_135_down,white_high_45_down,5,right,0.5094484,0,5,3,1,FALSE,0,0,1,1,TRUE,FALSE,high_3,0.75,-1,3,,,,,,,,,,,165,5,3.2.2021,164.9549838
39,"['high', 2]",2,white,45,left,down,high,white_high_45_down,black_high_135_down,11,left,0.3890866,1,11,5,0,TRUE,3,0,1,1,TRUE,FALSE,high_2,0.75,-1,3,,,,,,,,,,,165,5,3.2.2021,164.9549838
40,"['high', 6]",6,white,135,right,down,high,white_high_135_down,black_high_45_down,6,right,0.2696379,1,6,6,1,FALSE,2,0,1,1,TRUE,FALSE,high_6,0.75,-1,3,,,,,,,,,,,165,5,3.2.2021,164.9549838
41,"['high', 4]",4,white,135,right,down,high,white_high_135_down,black_high_45_down,16,right,0.3230263,1,16,4,0,FALSE,2,0,1,1,TRUE,FALSE,high_4,0.75,-1,3,,,,,,,,,,,165,5,3.2.2021,164.9549838
42,"['low', 6]",6,white,135,right,up,low,white_low_135_up,black_low_45_up,2,right,0.4044826,1,2,6,1,FALSE,2,0,1,1,TRUE,FALSE,low_6,0.75,-1,3,,,,,,,,,,,165,5,3.2.2021,164.9549838
43,"['low', 1]",1,white,135,right,up,low,white_low_135_up,black_low_45_up,14,right,0.620911,1,14,2,0,FALSE,0,0,1,1,TRUE,FALSE,low_1,0.75,-1,3,,,,,,,,,,,165,5,3.2.2021,164.9549838
44,"['high', 2]",2,black,135,left,down,high,black_high_135_down,white_high_45_down,10,right,0.4481686,0,10,6,1,TRUE,4,0,1,1,TRUE,FALSE,high_2,0.75,-1,3,,,,,,,,,,,165,5,3.2.2021,164.9549838
45,"['low', 1]",1,white,135,right,down,low,white_low_135_down,black_low_45_down,13,right,0.4623569,1,13,3,1,TRUE,1,0,1,1,TRUE,FALSE,low_1,0.75,-1,3,,,,,,,,,,,165,5,3.2.2021,164.9549838
46,"['high', 1]",1,white,135,right,down,high,white_high_135_down,black_high_45_down,11,right,0.3412338,1,11,1,1,FALSE,0,0,1,1,TRUE,FALSE,high_1,0.75,-1,3,,,,,,,,,,,165,5,3.2.2021,164.9549838
47,"['low', 1]",1,black,45,right,down,low,black_low_45_down,white_low_135_down,12,left,0.3786428,0,12,4,1,FALSE,1,0,1,1,TRUE,FALSE,low_1,0.75,-1,3,,,,,,,,,,,165,5,3.2.2021,164.9549838
48,"['low', 3]",3,black,45,right,down,low,black_low_45_down,white_low_135_down,2,right,0.5410292,1,2,2,1,FALSE,0,0,1,1,TRUE,FALSE,low_3,0.75,-1,3,,,,,,,,,,,165,5,3.2.2021,164.9549838
49,"['low', 4]",4,white,135,right,down,low,white_low_135_down,black_low_45_down,3,right,0.3228971,1,3,5,1,TRUE,2,0,1,1,TRUE,FALSE,low_4,0.75,-1,3,,,,,,,,,,,165,5,3.2.2021,164.9549838
50,"['high', 1]",1,white,135,right,up,high,white_high_135_up,black_high_45_up,10,right,0.3949632,1,10,2,1,FALSE,0,0,1,1,TRUE,FALSE,high_1,0.75,-1,3,,,,,,,,,,,165,5,3.2.2021,164.9549838
51,"['high', 1]",1,black,45,right,down,high,black_high_45_down,white_high_135_down,9,right,0.4471484,1,9,3,1,FALSE,0,0,1,1,TRUE,FALSE,high_1,0.75,-1,3,,,,,,,,,,,165,5,3.2.2021,164.9549838
52,"['high', 6]",6,black,135,left,down,high,black_high_135_down,white_high_45_down,5,right,0.314597,0,5,7,1,FALSE,2,0,1,1,TRUE,FALSE,high_6,0.75,-1,3,,,,,,,,,,,165,5,3.2.2021,164.9549838
53,"['low', 3]",3,white,135,right,down,low,white_low_135_down,black_low_45_down,1,right,0.4590934,1,1,3,1,FALSE,0,0,1,1,TRUE,FALSE,low_3,0.75,-1,3,,,,,,,,,,,165,5,3.2.2021,164.9549838
54,"['high', 1]",1,black,45,right,up,high,black_high_45_up,white_high_135_up,8,right,0.4122174,1,8,4,1,FALSE,0,0,1,1,TRUE,FALSE,high_1,0.75,-1,3,,,,,,,,,,,165,5,3.2.2021,164.9549838
55,"['low', 3]",3,white,45,left,down,low,white_low_45_down,black_low_135_down,1,right,0.5417459,0,1,4,1,FALSE,0,0,1,1,TRUE,FALSE,low_3,0.75,-1,3,,,,,,,,,,,165,5,3.2.2021,164.9549838
56,"['low', 1]",1,white,45,left,down,low,white_low_45_down,black_low_135_down,15,left,0.4390084,1,15,5,0,TRUE,2,0,1,1,TRUE,FALSE,low_1,0.75,-1,3,,,,,,,,,,,165,5,3.2.2021,164.9549838
57,"['low', 3]",3,black,45,right,down,low,black_low_45_down,white_low_135_down,4,right,0.2798532,1,4,5,0,TRUE,1,0,1,1,TRUE,FALSE,low_3,0.75,-1,3,,,,,,,,,,,165,5,3.2.2021,164.9549838
58,"['low', 4]",4,black,135,left,down,low,black_low_135_down,white_low_45_down,2,right,0.2682684,0,2,6,1,FALSE,2,0,1,1,TRUE,FALSE,low_4,0.75,-1,3,,,,,,,,,,,165,5,3.2.2021,164.9549838
59,"['low', 6]",6,white,135,right,up,low,white_low_135_up,black_low_45_up,1,right,0.3073102,1,1,7,1,FALSE,2,0,1,1,TRUE,FALSE,low_6,0.75,-1,3,,,,,,,,,,,165,5,3.2.2021,164.9549838
60,"['high', 2]",2,black,135,left,up,high,black_high_135_up,white_high_45_up,13,left,0.960348,1,13,7,0,TRUE,5,1,1,1,TRUE,FALSE,high_2,0.75,-1,3,,,,,,,,,,,165,5,3.2.2021,164.9549838
61,"['high', 4]",4,white,135,right,up,high,white_high_135_up,black_high_45_up,15,right,0.5092014,1,15,5,1,TRUE,3,0,1,1,TRUE,FALSE,high_4,0.75,-1,3,,,,,,,,,,,165,5,3.2.2021,164.9549838
62,"['high', 1]",1,black,135,left,up,high,black_high_135_up,white_high_45_up,7,right,0.2665498,0,7,5,1,FALSE,0,0,1,1,TRUE,FALSE,high_1,0.75,-1,3,,,,,,,,,,,165,5,3.2.2021,164.9549838
63,"['low', 3]",3,black,135,left,down,low,black_low_135_down,white_low_45_down,3,left,0.3875459,1,3,6,1,TRUE,2,0,1,1,TRUE,FALSE,low_3,0.75,-1,3,,,,,,,,,,,165,5,3.2.2021,164.9549838
64,"['low', 1]",1,white,135,right,down,low,white_low_135_down,black_low_45_down,14,right,0.3811531,1,14,6,1,TRUE,3,0,1,1,TRUE,FALSE,low_1,0.75,-1,3,,,,,,,,,,,165,5,3.2.2021,164.9549838
65,"['low', 3]",3,black,45,right,up,low,black_low_45_up,white_low_135_up,2,right,0.8804166,1,2,7,1,FALSE,2,0,1,1,TRUE,FALSE,low_3,0.75,-1,3,,,,,,,,,,,165,5,3.2.2021,164.9549838
66,"['high', 2]",2,black,45,right,up,high,black_high_45_up,white_high_135_up,12,left,0.3538974,0,12,8,1,TRUE,6,1,1,1,TRUE,FALSE,high_2,0.75,-1,3,,,,,,,,,,,165,5,3.2.2021,164.9549838
67,"['high', 1]",1,black,45,right,up,high,black_high_45_up,white_high_135_up,10,left,0.3509109,0,10,6,0,TRUE,1,0,1,1,TRUE,FALSE,high_1,0.75,-1,3,,,,,,,,,,,165,5,3.2.2021,164.9549838
68,"['low', 3]",3,black,135,left,up,low,black_low_135_up,white_low_45_up,1,left,0.5223882,1,1,8,1,FALSE,2,0,1,1,TRUE,FALSE,low_3,0.75,-1,3,,,,,,,,,,,165,5,3.2.2021,164.9549838
69,"['high', 6]",6,black,45,right,down,high,black_high_45_down,white_high_135_down,8,right,0.9193027,1,8,8,0,TRUE,3,0,1,1,TRUE,FALSE,high_6,0.75,-1,3,,,,,,,,,,,165,5,3.2.2021,164.9549838
70,"['high', 3]",3,black,45,right,up,high,black_high_45_up,white_high_135_up,8,right,0.2679289,1,8,4,0,TRUE,1,0,1,1,TRUE,FALSE,high_3,0.75,-1,3,,,,,,,,,,,165,5,3.2.2021,164.9549838
71,"['low', 2]",2,black,135,left,up,low,black_low_135_up,white_low_45_up,8,right,0.2776379,0,8,4,1,FALSE,1,0,1,1,TRUE,FALSE,low_2,0.75,-1,3,,,,,,,,,,,165,5,3.2.2021,164.9549838
72,"['low', 2]",2,white,135,right,down,low,white_low_135_down,black_low_45_down,11,right,0.4153281,1,11,5,0,TRUE,2,0,1,1,TRUE,FALSE,low_2,0.75,-1,3,,,,,,,,,,,165,5,3.2.2021,164.9549838
73,"['low', 2]",2,black,45,right,down,low,black_low_45_down,white_low_135_down,10,right,0.2889838,1,10,6,1,TRUE,3,0,1,1,TRUE,FALSE,low_2,0.75,-1,3,,,,,,,,,,,165,5,3.2.2021,164.9549838
74,"['low', 6]",6,black,45,right,down,low,black_low_45_down,white_low_135_down,1,right,0.429261,1,1,8,1,FALSE,2,0,1,1,TRUE,FALSE,low_6,0.75,-1,3,,,,,,,,,,,165,5,3.2.2021,164.9549838
75,"['low', 1]",1,white,45,left,down,low,white_low_45_down,black_low_135_down,13,left,0.2050657,1,13,7,1,FALSE,3,0,1,1,TRUE,FALSE,low_1,0.75,-1,3,,,,,,,,,,,165,5,3.2.2021,164.9549838
76,"['low', 3]",3,white,45,left,up,low,white_low_45_up,black_low_135_up,1,right,0.4337732,0,1,9,1,FALSE,2,0,1,1,TRUE,FALSE,low_3,0.75,-1,3,,,,,,,,,,,165,5,3.2.2021,164.9549838
77,"['high', 6]",6,black,45,right,up,high,black_high_45_up,white_high_135_up,7,right,0.5667239,1,7,9,1,TRUE,4,0,1,1,TRUE,FALSE,high_6,0.75,-1,3,,,,,,,,,,,165,5,3.2.2021,164.9549838
78,"['low', 2]",2,white,45,left,up,low,white_low_45_up,black_low_135_up,9,left,0.2739701,1,9,7,1,FALSE,3,0,1,1,TRUE,FALSE,low_2,0.75,-1,3,,,,,,,,,,,165,5,3.2.2021,164.9549838
79,"['low', 6]",6,black,45,right,down,low,black_low_45_down,white_low_135_down,1,right,0.3521412,1,1,9,1,FALSE,2,0,1,1,TRUE,FALSE,low_6,0.75,-1,3,,,,,,,,,,,165,5,3.2.2021,164.9549838
80,"['low', 1]",1,black,45,right,down,low,black_low_45_down,white_low_135_down,12,left,0.3058615,0,12,8,1,FALSE,3,0,1,1,TRUE,FALSE,low_1,0.75,-1,3,,,,,,,,,,,165,5,3.2.2021,164.9549838
81,"['low', 1]",1,white,45,left,down,low,white_low_45_down,black_low_135_down,15,left,0.5028034,1,15,9,0,TRUE,4,0,1,1,TRUE,FALSE,low_1,0.75,-1,3,,,,,,,,,,,165,5,3.2.2021,164.9549838
82,"['high', 6]",6,black,135,left,down,high,black_high_135_down,white_high_45_down,6,left,0.3210186,1,6,10,1,FALSE,4,0,1,1,TRUE,FALSE,high_6,0.75,-1,3,,,,,,,,,,,165,5,3.2.2021,164.9549838
83,"['low', 1]",1,black,45,right,down,low,black_low_45_down,white_low_135_down,14,left,0.7450954,0,14,10,1,TRUE,5,1,1,1,TRUE,FALSE,low_1,0.75,-1,3,,,,,,,,,,,165,5,3.2.2021,164.9549838
84,"['high', 2]",2,black,135,left,down,high,black_high_135_down,white_high_45_down,15,left,0.4848211,1,15,9,0,TRUE,7,1,1,1,TRUE,FALSE,high_2,0.75,-1,3,,,,,,,,,,,165,5,3.2.2021,164.9549838
85,"['low', 4]",4,black,135,left,up,low,black_low_135_up,white_low_45_up,5,right,0.6762338,0,5,7,0,TRUE,3,0,1,1,TRUE,FALSE,low_4,0.75,-1,3,,,,,,,,,,,165,5,3.2.2021,164.9549838
86,"['low', 2]",2,black,135,left,up,low,black_low_135_up,white_low_45_up,8,left,0.3734021,1,8,8,1,FALSE,3,0,1,1,TRUE,FALSE,low_2,0.75,-1,3,,,,,,,,,,,165,5,3.2.2021,164.9549838
87,"['low', 1]",1,black,45,right,up,low,black_low_45_up,white_low_135_up,17,left,0.420054,0,17,11,0,TRUE,6,1,1,1,TRUE,FALSE,low_1,0.75,-1,3,,,,,,,,,,,165,5,3.2.2021,164.9549838
88,"['low', 4]",4,black,45,right,down,low,black_low_45_down,white_low_135_down,8,left,0.0336123,0,8,8,0,FALSE,3,0,1,1,TRUE,FALSE,low_4,0.75,-1,3,,,,,,,,,,,165,5,3.2.2021,164.9549838
89,"['high', 2]",2,white,135,right,up,high,white_high_135_up,black_high_45_up,14,right,0.1452022,1,14,10,1,TRUE,8,1,1,1,TRUE,FALSE,high_2,0.75,-1,3,,,,,,,,,,,165,5,3.2.2021,164.9549838
90,"['high', 6]",6,black,45,right,up,high,black_high_45_up,white_high_135_up,5,left,0.2060425,0,5,11,1,FALSE,4,0,1,1,TRUE,FALSE,high_6,0.75,-1,3,,,,,,,,,,,165,5,3.2.2021,164.9549838
91,"['high', 3]",3,black,45,right,down,high,black_high_45_down,white_high_135_down,7,left,0.2716401,0,7,5,1,TRUE,2,0,1,1,TRUE,FALSE,high_3,0.75,-1,3,,,,,,,,,,,165,5,3.2.2021,164.9549838
92,"['high', 4]",4,white,135,right,down,high,white_high_135_down,black_high_45_down,14,right,0.7248501,1,14,6,1,FALSE,3,0,1,1,TRUE,FALSE,high_4,0.75,-1,3,,,,,,,,,,,165,5,3.2.2021,164.9549838
93,"['high', 2]",2,black,45,right,down,high,black_high_45_down,white_high_135_down,13,left,0.4167311,0,13,11,1,FALSE,8,1,1,1,TRUE,FALSE,high_2,0.75,-1,3,,,,,,,,,,,165,5,3.2.2021,164.9549838
94,"['low', 1]",1,black,135,left,down,low,black_low_135_down,white_low_45_down,20,left,0.6643872,1,20,12,0,FALSE,6,1,1,1,TRUE,FALSE,low_1,0.75,-1,3,,,,,,,,,,,165,5,3.2.2021,164.9549838
95,"['low', 3]",3,white,45,left,down,low,white_low_45_down,black_low_135_down,4,left,0.3401815,1,4,10,0,TRUE,3,0,1,1,TRUE,FALSE,low_3,0.75,-1,3,,,,,,,,,,,165,5,3.2.2021,164.9549838
96,"['low', 1]",1,white,135,right,up,low,white_low_135_up,black_low_45_up,19,right,0.7442312,1,19,13,1,TRUE,7,1,1,1,TRUE,FALSE,low_1,0.75,-1,3,,,,,,,,,,,165,5,3.2.2021,164.9549838
97,"['high', 4]",4,white,135,right,down,high,white_high_135_down,black_high_45_down,13,right,0.2533534,1,13,7,1,FALSE,3,0,1,1,TRUE,FALSE,high_4,0.75,-1,3,,,,,,,,,,,165,5,3.2.2021,164.9549838
98,"['high', 3]",3,white,135,right,down,high,white_high_135_down,black_high_45_down,10,right,0.4959677,1,10,6,0,TRUE,3,0,1,1,TRUE,FALSE,high_3,0.75,-1,3,,,,,,,,,,,165,5,3.2.2021,164.9549838
99,"['high', 2]",2,black,135,left,up,high,black_high_135_up,white_high_45_up,16,left,0.4081786,1,16,12,0,TRUE,9,1,1,1,TRUE,FALSE,high_2,0.75,-1,3,,,,,,,,,,,165,5,3.2.2021,164.9549838
100,"['high', 1]",1,white,135,right,up,high,white_high_135_up,black_high_45_up,13,left,0.503327,0,13,7,0,FALSE,1,0,1,1,TRUE,FALSE,high_1,0.75,-1,3,,,,,,,,,,,165,5,3.2.2021,164.9549838
101,"['high', 4]",4,black,45,right,down,high,black_high_45_down,white_high_135_down,12,left,0.3744781,0,12,8,1,FALSE,3,0,1,1,TRUE,FALSE,high_4,0.75,-1,3,,,,,,,,,,,165,5,3.2.2021,164.9549838
102,"['high', 1]",1,black,135,left,down,high,black_high_135_down,white_high_45_down,16,right,0.4716683,0,16,8,0,FALSE,1,0,1,1,TRUE,FALSE,high_1,0.75,-1,3,,,,,,,,,,,165,5,3.2.2021,164.9549838
103,"['low', 2]",2,black,135,left,up,low,black_low_135_up,white_low_45_up,7,left,0.0262311,1,7,9,1,FALSE,3,0,1,1,TRUE,FALSE,low_2,0.75,-1,3,,,,,,,,,,,165,5,3.2.2021,164.9549838
104,"['high', 4]",4,black,135,left,down,high,black_high_135_down,white_high_45_down,15,left,1.9715974,1,15,9,0,TRUE,4,0,1,1,TRUE,FALSE,high_4,0.75,-1,3,,,,,,,,,,,165,5,3.2.2021,164.9549838
105,"['high', 6]",6,white,45,left,down,high,white_high_45_down,black_high_135_down,8,left,0.3914982,1,8,12,0,TRUE,5,1,1,1,TRUE,FALSE,high_6,0.75,-1,3,,,,,,,,,,,165,5,3.2.2021,164.9549838
106,"['low', 3]",3,black,135,left,up,low,black_low_135_up,white_low_45_up,3,right,0.8257898,0,3,11,1,TRUE,4,0,1,1,TRUE,FALSE,low_3,0.75,-1,3,,,,,,,,,,,165,5,3.2.2021,164.9549838
107,"['low', 6]",6,black,135,left,up,low,black_low_135_up,white_low_45_up,1,left,0.5119721,1,1,10,1,FALSE,2,0,1,1,TRUE,FALSE,low_6,0.75,-1,3,,,,,,,,,,,165,5,3.2.2021,164.9549838
108,"['low', 4]",4,white,135,right,up,low,white_low_135_up,black_low_45_up,11,right,0.4687178,1,11,9,0,FALSE,3,0,1,1,TRUE,FALSE,low_4,0.75,-1,3,,,,,,,,,,,165,5,3.2.2021,164.9549838
109,"['low', 1]",1,white,135,right,up,low,white_low_135_up,black_low_45_up,18,right,1.3584037,1,18,14,1,FALSE,7,1,1,1,TRUE,FALSE,low_1,0.75,-1,3,,,,,,,,,,,165,5,3.2.2021,164.9549838
110,"['high', 4]",4,black,45,right,up,high,black_high_45_up,white_high_135_up,14,right,1.0361983,1,14,10,1,TRUE,5,1,1,1,TRUE,FALSE,high_4,0.75,-1,3,,,,,,,,,,,165,5,3.2.2021,164.9549838
111,"['high', 2]",2,black,45,right,up,high,black_high_45_up,white_high_135_up,15,right,0.4740413,1,15,13,1,TRUE,10,1,1,1,TRUE,FALSE,high_2,0.75,-1,3,,,,,,,,,,,165,5,3.2.2021,164.9549838
112,"['high', 4]",4,black,45,right,up,high,black_high_45_up,white_high_135_up,13,right,0.413203,1,13,11,1,FALSE,5,1,1,1,TRUE,FALSE,high_4,0.75,-1,3,,,,,,,,,,,165,5,3.2.2021,164.9549838
113,"['low', 4]",4,black,135,left,up,low,black_low_135_up,white_low_45_up,10,left,0.3484086,1,10,10,1,TRUE,4,0,1,1,TRUE,FALSE,low_4,0.75,-1,3,,,,,,,,,,,165,5,3.2.2021,164.9549838
114,"['low', 2]",2,black,135,left,up,low,black_low_135_up,white_low_45_up,6,left,0.4718129,1,6,10,1,FALSE,3,0,1,1,TRUE,FALSE,low_2,0.75,-1,3,,,,,,,,,,,165,5,3.2.2021,164.9549838
115,"['high', 1]",1,white,45,left,up,high,white_high_45_up,black_high_135_up,19,left,0.37479,1,19,9,0,FALSE,1,0,1,1,TRUE,FALSE,high_1,0.75,-1,3,,,,,,,,,,,165,5,3.2.2021,164.9549838
116,"['high', 3]",3,white,135,right,up,high,white_high_135_up,black_high_45_up,9,right,0.0895532,1,9,7,1,TRUE,4,0,1,1,TRUE,FALSE,high_3,0.75,-1,3,,,,,,,,,,,165,5,3.2.2021,164.9549838
117,"['high', 1]",1,black,45,right,down,high,black_high_45_down,white_high_135_down,18,left,0.4529572,0,18,10,1,TRUE,2,0,1,1,TRUE,FALSE,high_1,0.75,-1,3,,,,,,,,,,,165,5,3.2.2021,164.9549838
118,"['high', 6]",6,white,45,left,down,high,white_high_45_down,black_high_135_down,7,left,1.5105618,1,7,13,1,TRUE,6,1,1,1,TRUE,FALSE,high_6,0.75,-1,3,,,,,,,,,,,165,5,3.2.2021,164.9549838
119,"['low', 6]",6,white,135,right,down,low,white_low_135_down,black_low_45_down,1,left,0.1812409,0,1,11,1,FALSE,2,0,1,1,TRUE,FALSE,low_6,0.75,-1,3,,,,,,,,,,,165,5,3.2.2021,164.9549838
120,"['high', 2]",2,black,135,left,down,high,black_high_135_down,white_high_45_down,14,right,0.2819359,0,14,14,1,FALSE,10,1,1,1,TRUE,FALSE,high_2,0.75,-1,3,,,,,,,,,,,165,5,3.2.2021,164.9549838
121,"['high', 6]",6,black,45,right,up,high,black_high_45_up,white_high_135_up,6,right,1.8750228,1,6,14,1,FALSE,6,1,1,1,TRUE,FALSE,high_6,0.75,-1,3,,,,,,,,,,,165,5,3.2.2021,164.9549838
122,"['high', 4]",4,black,45,right,down,high,black_high_45_down,white_high_135_down,12,right,0.5713523,1,12,12,1,FALSE,5,1,1,1,TRUE,FALSE,high_4,0.75,-1,3,,,,,,,,,,,165,5,3.2.2021,164.9549838
123,"['low', 4]",4,white,45,left,up,low,white_low_45_up,black_low_135_up,9,left,0.0259212,1,9,11,1,FALSE,4,0,1,1,TRUE,FALSE,low_4,0.75,-1,3,,,,,,,,,,,165,5,3.2.2021,164.9549838
124,"['high', 6]",6,black,135,left,down,high,black_high_135_down,white_high_45_down,5,left,0.2832372,1,5,15,1,FALSE,6,1,1,1,TRUE,FALSE,high_6,0.75,-1,3,,,,,,,,,,,165,5,3.2.2021,164.9549838
125,"['high', 2]",2,white,45,left,down,high,white_high_45_down,black_high_135_down,17,left,0.448935,1,17,15,0,TRUE,11,1,1,1,TRUE,FALSE,high_2,0.75,-1,3,,,,,,,,,,,165,5,3.2.2021,164.9549838
126,"['high', 2]",2,black,45,right,up,high,black_high_45_up,white_high_135_up,16,left,0.2484802,0,16,16,1,TRUE,12,1,1,1,TRUE,FALSE,high_2,0.75,-1,3,,,,,,,,,,,165,5,3.2.2021,164.9549838
127,"['high', 2]",2,black,45,right,up,high,black_high_45_up,white_high_135_up,19,right,0.1299103,1,19,17,0,TRUE,13,1,1,1,TRUE,FALSE,high_2,0.75,-1,3,,,,,,,,,,,165,5,3.2.2021,164.9549838
128,"['high', 4]",4,white,135,right,up,high,white_high_135_up,black_high_45_up,11,right,0.3776965,1,11,13,1,FALSE,5,1,1,1,TRUE,FALSE,high_4,0.75,-1,3,,,,,,,,,,,165,5,3.2.2021,164.9549838
129,"['low', 6]",6,black,135,left,down,low,black_low_135_down,white_low_45_down,4,left,0.2322277,1,4,12,0,TRUE,3,0,1,1,TRUE,FALSE,low_6,0.75,-1,3,,,,,,,,,,,165,5,3.2.2021,164.9549838
130,"['high', 2]",2,black,135,left,up,high,black_high_135_up,white_high_45_up,18,left,0.4522465,1,18,18,1,TRUE,14,1,1,1,TRUE,FALSE,high_2,0.75,-1,3,,,,,,,,,,,165,5,3.2.2021,164.9549838
131,"['high', 6]",6,black,135,left,up,high,black_high_135_up,white_high_45_up,4,left,0.3426496,1,4,16,1,FALSE,6,1,1,1,TRUE,FALSE,high_6,0.75,-1,3,,,,,,,,,,,165,5,3.2.2021,164.9549838
132,"['high', 3]",3,white,135,right,down,high,white_high_135_down,black_high_45_down,8,left,0.1556334,0,8,8,1,FALSE,4,0,1,1,TRUE,FALSE,high_3,0.75,-1,3,,,,,,,,,,,165,5,3.2.2021,164.9549838
133,"['high', 4]",4,black,45,right,down,high,black_high_45_down,white_high_135_down,10,left,2.0837877,0,10,14,1,FALSE,5,1,1,1,TRUE,FALSE,high_4,0.75,-1,3,,,,,,,,,,,165,5,3.2.2021,164.9549838
134,"['low', 6]",6,black,135,left,down,low,black_low_135_down,white_low_45_down,3,left,0.2897925,1,3,13,1,TRUE,4,0,1,1,TRUE,FALSE,low_6,0.75,-1,3,,,,,,,,,,,165,5,3.2.2021,164.9549838
135,"['high', 6]",6,white,45,left,up,high,white_high_45_up,black_high_135_up,3,left,0.0575866,1,3,17,1,FALSE,6,1,1,1,TRUE,FALSE,high_6,0.75,-1,3,,,,,,,,,,,165,5,3.2.2021,164.9549838
136,"['high', 6]",6,black,45,right,down,high,black_high_45_down,white_high_135_down,2,left,0.293124,0,2,18,1,FALSE,6,1,1,1,TRUE,FALSE,high_6,0.75,-1,3,,,,,,,,,,,165,5,3.2.2021,164.9549838
137,"['high', 6]",6,white,45,left,up,high,white_high_45_up,black_high_135_up,5,left,1.5842542,1,5,19,0,TRUE,7,1,1,1,TRUE,FALSE,high_6,0.75,-1,3,,,,,,,,,,,165,5,3.2.2021,164.9549838
138,"['high', 6]",6,white,135,right,up,high,white_high_135_up,black_high_45_up,4,left,0.4984794,0,4,20,1,TRUE,8,1,1,1,TRUE,FALSE,high_6,0.75,-1,3,,,,,,,,,,,165,5,3.2.2021,164.9549838
139,"['low', 6]",6,white,45,left,up,low,white_low_45_up,black_low_135_up,2,left,0.3637641,1,2,14,1,FALSE,4,0,1,1,TRUE,FALSE,low_6,0.75,-1,3,,,,,,,,,,,165,5,3.2.2021,164.9549838
140,"['high', 3]",3,white,135,right,up,high,white_high_135_up,black_high_45_up,11,right,0.3320022,1,11,9,0,TRUE,5,1,1,1,TRUE,FALSE,high_3,0.75,-1,3,,,,,,,,,,,165,5,3.2.2021,164.9549838
141,"['high', 6]",6,black,135,left,down,high,black_high_135_down,white_high_45_down,7,left,4.827522,1,7,21,0,TRUE,9,1,1,1,TRUE,FALSE,high_6,0.75,-1,3,,,,,,,,,,,165,5,3.2.2021,164.9549838
142,"['low', 6]",6,white,45,left,up,low,white_low_45_up,black_low_135_up,1,left,0.3186896,1,1,15,1,FALSE,4,0,1,1,TRUE,FALSE,low_6,0.75,-1,3,,,,,,,,,,,165,5,3.2.2021,164.9549838
143,"['high', 6]",6,white,135,right,down,high,white_high_135_down,black_high_45_down,6,right,0.3600744,1,6,22,1,TRUE,10,1,1,1,TRUE,FALSE,high_6,0.75,-1,3,,,,,,,,,,,165,5,3.2.2021,164.9549838
144,"['high', 1]",1,black,135,left,down,high,black_high_135_down,white_high_45_down,21,left,0.4946076,1,21,11,0,TRUE,3,0,1,1,TRUE,FALSE,high_1,0.75,-1,3,,,,,,,,,,,165,5,3.2.2021,164.9549838
145,"['low', 4]",4,white,45,left,up,low,white_low_45_up,black_low_135_up,8,left,0.3392032,1,8,12,1,FALSE,4,0,1,1,TRUE,FALSE,low_4,0.75,-1,3,,,,,,,,,,,165,5,3.2.2021,164.9549838
146,"['low', 2]",2,black,45,right,down,low,black_low_45_down,white_low_135_down,5,left,0.3531193,0,5,11,1,FALSE,3,0,1,1,TRUE,FALSE,low_2,0.75,-1,3,,,,,,,,,,,165,5,3.2.2021,164.9549838
147,"['high', 3]",3,white,135,right,up,high,white_high_135_up,black_high_45_up,10,left,1.3829285,0,10,10,1,TRUE,6,1,1,1,TRUE,FALSE,high_3,0.75,-1,3,,,,,,,,,,,165,5,3.2.2021,164.9549838
148,"['high', 2]",2,white,135,right,down,high,white_high_135_down,black_high_45_down,17,right,0.5483534,1,17,19,1,FALSE,14,1,1,1,TRUE,FALSE,high_2,0.75,-1,3,,,,,,,,,,,165,5,3.2.2021,164.9549838
149,"['high', 3]",3,white,45,left,down,high,white_high_45_down,black_high_135_down,13,left,0.349585,1,13,11,0,TRUE,7,1,1,1,TRUE,FALSE,high_3,0.75,-1,3,,,,,,,,,,,165,5,3.2.2021,164.9549838
150,"['low', 6]",6,white,45,left,down,low,white_low_45_down,black_low_135_down,1,left,0.3949487,1,1,16,1,FALSE,4,0,1,1,TRUE,FALSE,low_6,0.75,-1,3,,,,,,,,,,,165,5,3.2.2021,164.9549838
151,"['low', 2]",2,white,135,right,up,low,white_low_135_up,black_low_45_up,8,right,0.2732712,1,8,12,0,TRUE,4,0,1,1,TRUE,FALSE,low_2,0.75,-1,3,,,,,,,,,,,165,5,3.2.2021,164.9549838
152,"['high', 2]",2,white,135,right,down,high,white_high_135_down,black_high_45_down,16,right,0.3898742,1,16,20,1,FALSE,14,1,1,1,TRUE,FALSE,high_2,0.75,-1,3,,,,,,,,,,,165,5,3.2.2021,164.9549838
153,"['high', 2]",2,white,135,right,down,high,white_high_135_down,black_high_45_down,15,right,0.3542167,1,15,21,1,FALSE,14,1,1,1,TRUE,FALSE,high_2,0.75,-1,3,,,,,,,,,,,165,5,3.2.2021,164.9549838
154,"['low', 2]",2,white,135,right,down,low,white_low_135_down,black_low_45_down,7,right,0.3067745,1,7,13,1,TRUE,5,1,1,1,TRUE,FALSE,low_2,0.75,-1,3,,,,,,,,,,,165,5,3.2.2021,164.9549838
155,"['low', 2]",2,white,45,left,down,low,white_low_45_down,black_low_135_down,6,left,0.3446687,1,6,14,1,FALSE,5,1,1,1,TRUE,FALSE,low_2,0.75,-1,3,,,,,,,,,,,165,5,3.2.2021,164.9549838
156,"['low', 2]",2,white,45,left,up,low,white_low_45_up,black_low_135_up,5,left,0.1771554,1,5,15,1,FALSE,5,1,1,1,TRUE,FALSE,low_2,0.75,-1,3,,,,,,,,,,,165,5,3.2.2021,164.9549838
157,"['low', 3]",3,white,45,left,down,low,white_low_45_down,black_low_135_down,6,left,0.2399793,1,6,12,0,TRUE,5,1,1,1,TRUE,FALSE,low_3,0.75,-1,3,,,,,,,,,,,165,5,3.2.2021,164.9549838
158,"['low', 4]",4,black,45,right,down,low,black_low_45_down,white_low_135_down,7,right,0.1443208,1,7,13,1,FALSE,4,0,1,1,TRUE,FALSE,low_4,0.75,-1,3,,,,,,,,,,,165,5,3.2.2021,164.9549838
159,"['low', 3]",3,black,45,right,up,low,black_low_45_up,white_low_135_up,5,left,0.3039626,0,5,13,1,TRUE,6,1,1,1,TRUE,FALSE,low_3,0.75,-1,3,,,,,,,,,,,165,5,3.2.2021,164.9549838
160,"['low', 6]",6,white,45,left,down,low,white_low_45_down,black_low_135_down,1,left,0.3526701,1,1,17,1,FALSE,4,0,1,1,TRUE,FALSE,low_6,0.75,-1,3,,,,,,,,,,,165,5,3.2.2021,164.9549838
161,"['low', 4]",4,white,45,left,down,low,white_low_45_down,black_low_135_down,6,left,0.3407441,1,6,14,1,FALSE,4,0,1,1,TRUE,FALSE,low_4,0.75,-1,3,,,,,,,,,,,165,5,3.2.2021,164.9549838
162,"['low', 3]",3,black,135,left,up,low,black_low_135_up,white_low_45_up,8,left,0.2114034,1,8,14,0,TRUE,7,1,1,1,TRUE,FALSE,low_3,0.75,-1,3,,,,,,,,,,,165,5,3.2.2021,164.9549838
163,"['high', 1]",1,white,135,right,down,high,white_high_135_down,black_high_45_down,20,right,0.4413028,1,20,12,1,TRUE,4,0,1,1,TRUE,FALSE,high_1,0.75,-1,3,,,,,,,,,,,165,5,3.2.2021,164.9549838
164,"['high', 3]",3,black,135,left,up,high,black_high_135_up,white_high_45_up,12,left,0.2810452,1,12,12,1,TRUE,8,1,1,1,TRUE,FALSE,high_3,0.75,-1,3,,,,,,,,,,,165,5,3.2.2021,164.9549838
165,"['high', 6]",6,black,45,right,up,high,black_high_45_up,white_high_135_up,5,right,0.3137592,1,5,23,1,FALSE,10,1,1,1,TRUE,FALSE,high_6,0.75,-1,3,,,,,,,,,,,165,5,3.2.2021,164.9549838
166,"['high', 2]",2,white,135,right,up,high,white_high_135_up,black_high_45_up,14,right,0.5417505,1,14,22,1,FALSE,14,1,1,1,TRUE,FALSE,high_2,0.75,-1,3,,,,,,,,,,,165,5,3.2.2021,164.9549838
167,"['high', 3]",3,black,45,right,down,high,black_high_45_down,white_high_135_down,11,right,0.3240913,1,11,13,1,FALSE,8,1,1,1,TRUE,FALSE,high_3,0.75,-1,3,,,,,,,,,,,165,5,3.2.2021,164.9549838
168,"['low', 6]",6,white,45,left,up,low,white_low_45_up,black_low_135_up,1,left,0.4182475,1,1,18,1,FALSE,4,0,1,1,TRUE,FALSE,low_6,0.75,-1,3,,,,,,,,,,,165,5,3.2.2021,164.9549838
169,"['low', 1]",1,white,135,right,up,low,white_low_135_up,black_low_45_up,17,right,0.3349543,1,17,15,1,FALSE,7,1,1,1,TRUE,FALSE,low_1,0.75,-1,3,,,,,,,,,,,165,5,3.2.2021,164.9549838
170,"['low', 1]",1,white,135,right,down,low,white_low_135_down,black_low_45_down,16,right,0.4121223,1,16,16,1,FALSE,7,1,1,1,TRUE,FALSE,low_1,0.75,-1,3,,,,,,,,,,,165,5,3.2.2021,164.9549838
171,"['high', 4]",4,white,135,right,down,high,white_high_135_down,black_high_45_down,13,right,0.3259085,1,13,15,0,TRUE,6,1,1,1,TRUE,FALSE,high_4,0.75,-1,3,,,,,,,,,,,165,5,3.2.2021,164.9549838
172,"['high', 1]",1,black,45,right,up,high,black_high_45_up,white_high_135_up,19,right,0.4876313,1,19,13,1,FALSE,4,0,1,1,TRUE,FALSE,high_1,0.75,-1,3,,,,,,,,,,,165,5,3.2.2021,164.9549838
173,"['high', 6]",6,white,45,left,up,high,white_high_45_up,black_high_135_up,4,left,0.4574827,1,4,24,1,FALSE,10,1,1,1,TRUE,FALSE,high_6,0.75,-1,3,,,,,,,,,,,165,5,3.2.2021,164.9549838
174,"['low', 6]",6,white,135,right,up,low,white_low_135_up,black_low_45_up,1,left,1.282762,0,1,19,1,FALSE,4,0,1,1,TRUE,FALSE,low_6,0.75,-1,3,,,,,,,,,,,165,5,3.2.2021,164.9549838
175,"['low', 3]",3,white,135,right,up,low,white_low_135_up,black_low_45_up,7,right,0.3666371,1,7,15,1,TRUE,8,1,1,1,TRUE,FALSE,low_3,0.75,-1,3,,,,,,,,,,,165,5,3.2.2021,164.9549838
176,"['high', 6]",6,white,135,right,down,high,white_high_135_down,black_high_45_down,3,right,0.3656801,1,3,25,1,FALSE,10,1,1,1,TRUE,FALSE,high_6,0.75,-1,3,,,,,,,,,,,165,5,3.2.2021,164.9549838
177,"['low', 1]",1,white,135,right,up,low,white_low_135_up,black_low_45_up,15,right,0.4167964,1,15,17,1,FALSE,7,1,1,1,TRUE,FALSE,low_1,0.75,-1,3,,,,,,,,,,,165,5,3.2.2021,164.9549838
178,"['high', 1]",1,black,45,right,down,high,black_high_45_down,white_high_135_down,18,left,0.5885882,0,18,14,1,FALSE,4,0,1,1,TRUE,FALSE,high_1,0.75,-1,3,,,,,,,,,,,165,5,3.2.2021,164.9549838
179,"['high', 1]",1,white,45,left,down,high,white_high_45_down,black_high_135_down,21,left,0.5164108,1,21,15,0,TRUE,5,1,1,1,TRUE,FALSE,high_1,0.75,-1,3,,,,,,,,,,,165,5,3.2.2021,164.9549838
180,"['high', 6]",6,black,45,right,down,high,black_high_45_down,white_high_135_down,2,left,0.3499113,0,2,26,1,FALSE,10,1,1,1,TRUE,FALSE,high_6,0.75,-1,3,,,,,,,,,,,165,5,3.2.2021,164.9549838
181,"['low', 1]",1,white,45,left,down,low,white_low_45_down,black_low_135_down,14,left,0.3732416,1,14,18,1,FALSE,7,1,1,1,TRUE,FALSE,low_1,0.75,-1,3,,,,,,,,,,,165,5,3.2.2021,164.9549838
182,"['low', 3]",3,white,45,left,up,low,white_low_45_up,black_low_135_up,6,left,0.3814474,1,6,16,1,FALSE,8,1,1,1,TRUE,FALSE,low_3,0.75,-1,3,,,,,,,,,,,165,5,3.2.2021,164.9549838
183,"['high', 4]",4,black,45,right,down,high,black_high_45_down,white_high_135_down,12,right,0.4413342,1,12,16,1,TRUE,7,1,1,1,TRUE,FALSE,high_4,0.75,-1,3,,,,,,,,,,,165,5,3.2.2021,164.9549838
184,"['high', 1]",1,white,135,right,up,high,white_high_135_up,black_high_45_up,20,right,0.5418136,1,20,16,1,TRUE,6,1,1,1,TRUE,FALSE,high_1,0.75,-1,3,,,,,,,,,,,165,5,3.2.2021,164.9549838
185,"['low', 1]",1,white,45,left,down,low,white_low_45_down,black_low_135_down,13,left,0.5615026,1,13,19,1,FALSE,7,1,1,1,TRUE,FALSE,low_1,0.75,-1,3,,,,,,,,,,,165,5,3.2.2021,164.9549838
186,"['low', 4]",4,white,45,left,up,low,white_low_45_up,black_low_135_up,5,left,0.4350278,1,5,15,1,FALSE,4,0,1,1,TRUE,FALSE,low_4,0.75,-1,3,,,,,,,,,,,165,5,3.2.2021,164.9549838
187,"['low', 3]",3,black,135,left,up,low,black_low_135_up,white_low_45_up,5,right,1.1591844,0,5,17,1,FALSE,8,1,1,1,TRUE,FALSE,low_3,0.75,-1,3,,,,,,,,,,,165,5,3.2.2021,164.9549838
188,"['high', 6]",6,black,45,right,down,high,black_high_45_down,white_high_135_down,5,left,0.319003,0,5,27,0,TRUE,11,1,1,1,TRUE,FALSE,high_6,0.75,-1,3,,,,,,,,,,,165,5,3.2.2021,164.9549838
189,"['high', 6]",6,white,45,left,up,high,white_high_45_up,black_high_135_up,8,left,0.5555545,1,8,28,0,FALSE,11,1,1,1,TRUE,FALSE,high_6,0.75,-1,3,,,,,,,,,,,165,5,3.2.2021,164.9549838
190,"['high', 3]",3,white,45,left,up,high,white_high_45_up,black_high_135_up,10,left,0.3185316,1,10,14,1,FALSE,8,1,1,1,TRUE,FALSE,high_3,0.75,-1,3,,,,,,,,,,,165,5,3.2.2021,164.9549838
191,"['high', 1]",1,black,135,left,up,high,black_high_135_up,white_high_45_up,19,left,0.879231,1,19,17,1,FALSE,6,1,1,1,TRUE,FALSE,high_1,0.75,-1,3,,,,,,,,,,,165,5,3.2.2021,164.9549838
192,"['high', 1]",1,white,45,left,down,high,white_high_45_down,black_high_135_down,18,left,0.4143273,1,18,18,1,FALSE,6,1,1,1,TRUE,FALSE,high_1,0.75,-1,3,,,,,,,,,,,165,5,3.2.2021,164.9549838
193,"['high', 3]",3,black,135,left,up,high,black_high_135_up,white_high_45_up,9,left,0.730396,1,9,15,1,FALSE,8,1,1,1,TRUE,FALSE,high_3,0.75,-1,3,,,,,,,,,,,165,5,3.2.2021,164.9549838
194,"['low', 1]",1,black,135,left,down,low,black_low_135_down,white_low_45_down,12,left,0.5255305,1,12,20,1,FALSE,7,1,1,1,TRUE,FALSE,low_1,0.75,-1,3,,,,,,,,,,,165,5,3.2.2021,164.9549838
195,"['low', 1]",1,black,45,right,down,low,black_low_45_down,white_low_135_down,11,left,0.4255671,0,11,21,1,FALSE,7,1,1,1,TRUE,FALSE,low_1,0.75,-1,3,,,,,,,,,,,165,5,3.2.2021,164.9549838
196,"['high', 2]",2,black,135,left,down,high,black_high_135_down,white_high_45_down,13,left,0.4729866,1,13,23,1,FALSE,14,1,1,1,TRUE,FALSE,high_2,0.75,-1,3,,,,,,,,,,,165,5,3.2.2021,164.9549838
197,"['high', 1]",1,black,135,left,up,high,black_high_135_up,white_high_45_up,17,left,0.3504619,1,17,19,1,FALSE,6,1,1,1,TRUE,FALSE,high_1,0.75,-1,3,,,,,,,,,,,165,5,3.2.2021,164.9549838
198,"['high', 6]",6,white,45,left,down,high,white_high_45_down,black_high_135_down,7,left,2.7535808,1,7,29,1,TRUE,12,1,1,1,TRUE,FALSE,high_6,0.75,-1,3,,,,,,,,,,,165,5,3.2.2021,164.9549838
199,"['low', 1]",1,black,135,left,down,low,black_low_135_down,white_low_45_down,14,left,0.6606871,1,14,22,0,TRUE,8,1,1,1,TRUE,FALSE,low_1,0.75,-1,3,,,,,,,,,,,165,5,3.2.2021,164.9549838
200,"['low', 4]",4,white,135,right,up,low,white_low_135_up,black_low_45_up,4,left,0.4773488,0,4,16,1,FALSE,4,0,1,1,TRUE,FALSE,low_4,0.75,-1,3,,,,,,,,,,,165,5,3.2.2021,164.9549838
201,"['high', 2]",2,black,45,right,up,high,black_high_45_up,white_high_135_up,12,left,1.0827194,0,12,24,1,FALSE,14,1,1,1,TRUE,FALSE,high_2,0.75,-1,3,,,,,,,,,,,165,5,3.2.2021,164.9549838
202,"['low', 1]",1,black,135,left,down,low,black_low_135_down,white_low_45_down,13,right,0.3827058,0,13,23,1,TRUE,9,1,1,1,TRUE,FALSE,low_1,0.75,-1,3,,,,,,,,,,,165,5,3.2.2021,164.9549838
203,"['high', 4]",4,white,45,left,up,high,white_high_45_up,black_high_135_up,11,left,0.2616888,1,11,17,1,FALSE,7,1,1,1,TRUE,FALSE,high_4,0.75,-1,3,,,,,,,,,,,165,5,3.2.2021,164.9549838
204,"['low', 3]",3,white,135,right,up,low,white_low_135_up,black_low_45_up,8,right,0.288798,1,8,18,0,TRUE,9,1,1,1,TRUE,FALSE,low_3,0.75,-1,3,,,,,,,,,,,165,5,3.2.2021,164.9549838
205,"['low', 6]",6,white,45,left,up,low,white_low_45_up,black_low_135_up,4,left,0.1420883,1,4,20,0,TRUE,5,1,1,1,TRUE,FALSE,low_6,0.75,-1,3,,,,,,,,,,,165,5,3.2.2021,164.9549838
206,"['high', 2]",2,white,135,right,up,high,white_high_135_up,black_high_45_up,15,right,0.3138565,1,15,25,0,TRUE,15,1,1,1,TRUE,FALSE,high_2,0.75,-1,3,,,,,,,,,,,165,5,3.2.2021,164.9549838
207,"['low', 1]",1,white,135,right,down,low,white_low_135_down,black_low_45_down,16,right,0.4230146,1,16,24,0,TRUE,10,1,1,1,TRUE,FALSE,low_1,0.75,-1,3,,,,,,,,,,,165,5,3.2.2021,164.9549838
208,"['high', 2]",2,black,135,left,up,high,black_high_135_up,white_high_45_up,14,left,0.3321887,1,14,26,1,TRUE,16,1,1,1,TRUE,FALSE,high_2,0.75,-1,3,,,,,,,,,,,165,5,3.2.2021,164.9549838
209,"['high', 4]",4,white,45,left,up,high,white_high_45_up,black_high_135_up,10,left,0.3107292,1,10,18,1,FALSE,7,1,1,1,TRUE,FALSE,high_4,0.75,-1,3,,,,,,,,,,,165,5,3.2.2021,164.9549838
210,"['high', 2]",2,white,45,left,down,high,white_high_45_down,black_high_135_down,13,left,0.324377,1,13,27,1,FALSE,16,1,1,1,TRUE,FALSE,high_2,0.75,-1,3,,,,,,,,,,,165,5,3.2.2021,164.9549838
211,"['high', 6]",6,black,135,left,down,high,black_high_135_down,white_high_45_down,6,left,0.2438845,1,6,30,1,FALSE,12,1,1,1,TRUE,FALSE,high_6,0.75,-1,3,,,,,,,,,,,165,5,3.2.2021,164.9549838
212,"['low', 3]",3,white,45,left,down,low,white_low_45_down,black_low_135_down,7,left,0.1864853,1,7,19,1,TRUE,10,1,1,1,TRUE,FALSE,low_3,0.75,-1,3,,,,,,,,,,,165,5,3.2.2021,164.9549838
213,"['high', 3]",3,black,45,right,down,high,black_high_45_down,white_high_135_down,8,left,0.2385509,0,8,16,1,FALSE,8,1,1,1,TRUE,FALSE,high_3,0.75,-1,3,,,,,,,,,,,165,5,3.2.2021,164.9549838
214,"['high', 3]",3,black,135,left,down,high,black_high_135_down,white_high_45_down,11,left,0.1253796,1,11,17,0,TRUE,9,1,1,1,TRUE,FALSE,high_3,0.75,-1,3,,,,,,,,,,,165,5,3.2.2021,164.9549838
215,"['high', 3]",3,black,135,left,down,high,black_high_135_down,white_high_45_down,10,left,0.2234431,1,10,18,1,TRUE,10,1,1,1,TRUE,FALSE,high_3,0.75,-1,3,,,,,,,,,,,165,5,3.2.2021,164.9549838
216,"['low', 2]",2,black,135,left,up,low,black_low_135_up,white_low_45_up,4,left,0.2041507,1,4,16,1,FALSE,5,1,1,1,TRUE,FALSE,low_2,0.75,-1,3,,,,,,,,,,,165,5,3.2.2021,164.9549838
217,"['high', 2]",2,black,135,left,up,high,black_high_135_up,white_high_45_up,12,left,0.589766,1,12,28,1,FALSE,16,1,1,1,TRUE,FALSE,high_2,0.75,-1,3,,,,,,,,,,,165,5,3.2.2021,164.9549838
218,"['high', 1]",1,black,45,right,up,high,black_high_45_up,white_high_135_up,16,left,0.5617972,0,16,20,1,FALSE,6,1,1,1,TRUE,FALSE,high_1,0.75,-1,3,,,,,,,,,,,165,5,3.2.2021,164.9549838
219,"['high', 2]",2,black,135,left,up,high,black_high_135_up,white_high_45_up,11,left,0.35655,1,11,29,1,FALSE,16,1,1,1,TRUE,FALSE,high_2,0.75,-1,3,,,,,,,,,,,165,5,3.2.2021,164.9549838
220,"['low', 4]",4,black,45,right,down,low,black_low_45_down,white_low_135_down,7,left,0.3166502,0,7,17,0,TRUE,5,1,1,1,TRUE,FALSE,low_4,0.75,-1,3,,,,,,,,,,,165,5,3.2.2021,164.9549838
221,"['high', 3]",3,black,135,left,down,high,black_high_135_down,white_high_45_down,9,left,0.2763244,1,9,19,1,FALSE,10,1,1,1,TRUE,FALSE,high_3,0.75,-1,3,,,,,,,,,,,165,5,3.2.2021,164.9549838
222,"['low', 1]",1,white,135,right,up,low,white_low_135_up,black_low_45_up,15,right,0.4732772,1,15,25,1,TRUE,11,1,1,1,TRUE,FALSE,low_1,0.75,-1,3,,,,,,,,,,,165,5,3.2.2021,164.9549838
223,"['high', 1]",1,white,135,right,down,high,white_high_135_down,black_high_45_down,19,left,0.344344,0,19,21,0,TRUE,7,1,1,1,TRUE,FALSE,high_1,0.75,-1,3,,,,,,,,,,,165,5,3.2.2021,164.9549838
224,"['high', 1]",1,white,45,left,up,high,white_high_45_up,black_high_135_up,22,left,0.3463566,1,22,22,0,FALSE,7,1,1,1,TRUE,FALSE,high_1,0.75,-1,3,,,,,,,,,,,165,5,3.2.2021,164.9549838
225,"['high', 1]",1,white,45,left,down,high,white_high_45_down,black_high_135_down,21,left,0.3858598,1,21,23,1,TRUE,8,1,1,1,TRUE,FALSE,high_1,0.75,-1,3,,,,,,,,,,,165,5,3.2.2021,164.9549838
226,"['low', 4]",4,white,45,left,down,low,white_low_45_down,black_low_135_down,10,left,0.4383717,1,10,18,0,FALSE,5,1,1,1,TRUE,FALSE,low_4,0.75,-1,3,,,,,,,,,,,165,5,3.2.2021,164.9549838
227,"['low', 3]",3,black,45,right,down,low,black_low_45_down,white_low_135_down,6,right,0.3168194,1,6,20,1,FALSE,10,1,1,1,TRUE,FALSE,low_3,0.75,-1,3,,,,,,,,,,,165,5,3.2.2021,164.9549838
228,"['high', 2]",2,black,45,right,up,high,black_high_45_up,white_high_135_up,10,left,0.3654681,0,10,30,1,FALSE,16,1,1,1,TRUE,FALSE,high_2,0.75,-1,3,,,,,,,,,,,165,5,3.2.2021,164.9549838
229,"['low', 4]",4,black,45,right,down,low,black_low_45_down,white_low_135_down,9,right,0.337605,1,9,19,1,TRUE,6,1,1,1,TRUE,FALSE,low_4,0.75,-1,3,,,,,,,,,,,165,5,3.2.2021,164.9549838
230,"['low', 3]",3,black,45,right,down,low,black_low_45_down,white_low_135_down,5,right,0.3822978,1,5,21,1,FALSE,10,1,1,1,TRUE,FALSE,low_3,0.75,-1,3,,,,,,,,,,,165,5,3.2.2021,164.9549838
231,"['high', 6]",6,black,45,right,down,high,black_high_45_down,white_high_135_down,5,right,0.3763648,1,5,31,1,FALSE,12,1,1,1,TRUE,FALSE,high_6,0.75,-1,3,,,,,,,,,,,165,5,3.2.2021,164.9549838
232,"['low', 1]",1,white,135,right,down,low,white_low_135_down,black_low_45_down,14,right,0.5299119,1,14,26,1,FALSE,11,1,1,1,TRUE,FALSE,low_1,0.75,-1,3,,,,,,,,,,,165,5,3.2.2021,164.9549838
233,"['high', 4]",4,white,135,right,down,high,white_high_135_down,black_high_45_down,9,right,0.3280218,1,9,19,1,FALSE,7,1,1,1,TRUE,FALSE,high_4,0.75,-1,3,,,,,,,,,,,165,5,3.2.2021,164.9549838
234,"['high', 2]",2,white,135,right,down,high,white_high_135_down,black_high_45_down,13,right,0.3888702,1,13,31,0,TRUE,17,1,1,1,TRUE,FALSE,high_2,0.75,-1,3,,,,,,,,,,,165,5,3.2.2021,164.9549838
235,"['high', 6]",6,black,45,right,up,high,black_high_45_up,white_high_135_up,4,right,0.3509181,1,4,32,1,FALSE,12,1,1,1,TRUE,FALSE,high_6,0.75,-1,3,,,,,,,,,,,165,5,3.2.2021,164.9549838
236,"['low', 4]",4,black,45,right,down,low,black_low_45_down,white_low_135_down,8,right,0.3191219,1,8,20,1,FALSE,6,1,1,1,TRUE,FALSE,low_4,0.75,-1,3,,,,,,,,,,,165,5,3.2.2021,164.9549838
237,"['high', 2]",2,white,45,left,down,high,white_high_45_down,black_high_135_down,12,left,0.2727003,1,12,32,1,TRUE,18,1,1,1,TRUE,FALSE,high_2,0.75,-1,3,,,,,,,,,,,165,5,3.2.2021,164.9549838
238,"['high', 1]",1,black,45,right,down,high,black_high_45_down,white_high_135_down,20,left,0.8270672,0,20,24,1,FALSE,8,1,1,1,TRUE,FALSE,high_1,0.75,-1,3,,,,,,,,,,,165,5,3.2.2021,164.9549838
239,"['low', 6]",6,black,45,right,down,low,black_low_45_down,white_low_135_down,3,right,0.3166117,1,3,21,1,TRUE,6,1,1,1,TRUE,FALSE,low_6,0.75,-1,3,,,,,,,,,,,165,5,3.2.2021,164.9549838
240,"['low', 1]",1,black,45,right,down,low,black_low_45_down,white_low_135_down,13,left,0.3325164,0,13,27,1,FALSE,11,1,1,1,TRUE,FALSE,low_1,0.75,-1,3,,,,,,,,,,,165,5,3.2.2021,164.9549838
241,"['low', 6]",6,white,45,left,up,low,white_low_45_up,black_low_135_up,2,left,0.3600447,1,2,22,1,FALSE,6,1,1,1,TRUE,FALSE,low_6,0.75,-1,3,,,,,,,,,,,165,5,3.2.2021,164.9549838
242,"['low', 6]",6,black,135,left,down,low,black_low_135_down,white_low_45_down,1,right,0.3781884,0,1,23,1,FALSE,6,1,1,1,TRUE,FALSE,low_6,0.75,-1,3,,,,,,,,,,,165,5,3.2.2021,164.9549838
243,"['high', 6]",6,white,45,left,down,high,white_high_45_down,black_high_135_down,3,left,0.284089,1,3,33,1,FALSE,12,1,1,1,TRUE,FALSE,high_6,0.75,-1,3,,,,,,,,,,,165,5,3.2.2021,164.9549838
244,"['low', 2]",2,white,135,right,down,low,white_low_135_down,black_low_45_down,3,right,0.3243291,1,3,17,1,FALSE,5,1,1,1,TRUE,FALSE,low_2,0.75,-1,3,,,,,,,,,,,165,5,3.2.2021,164.9549838
245,"['low', 3]",3,white,45,left,up,low,white_low_45_up,black_low_135_up,4,left,0.2905658,1,4,22,1,FALSE,10,1,1,1,TRUE,FALSE,low_3,0.75,-1,3,,,,,,,,,,,165,5,3.2.2021,164.9549838
246,"['low', 4]",4,white,45,left,down,low,white_low_45_down,black_low_135_down,7,left,0.2981457,1,7,21,1,FALSE,6,1,1,1,TRUE,FALSE,low_4,0.75,-1,3,,,,,,,,,,,165,5,3.2.2021,164.9549838
247,"['high', 6]",6,white,135,right,up,high,white_high_135_up,black_high_45_up,2,left,0.6063653,0,2,34,1,FALSE,12,1,1,1,TRUE,FALSE,high_6,0.75,-1,3,,,,,,,,,,,165,5,3.2.2021,164.9549838
248,"['high', 6]",6,white,135,right,down,high,white_high_135_down,black_high_45_down,5,right,0.3802654,1,5,35,0,TRUE,13,1,1,1,TRUE,FALSE,high_6,0.75,-1,3,,,,,,,,,,,165,5,3.2.2021,164.9549838
249,"['high', 6]",6,white,135,right,up,high,white_high_135_up,black_high_45_up,4,right,0.3486902,1,4,36,1,TRUE,14,1,1,1,TRUE,FALSE,high_6,0.75,-1,3,,,,,,,,,,,165,5,3.2.2021,164.9549838
250,"['high', 6]",6,black,135,left,down,high,black_high_135_down,white_high_45_down,3,left,0.3139573,1,3,37,1,FALSE,14,1,1,1,TRUE,FALSE,high_6,0.75,-1,3,,,,,,,,,,,165,5,3.2.2021,164.9549838
251,"['high', 4]",4,white,45,left,up,high,white_high_45_up,black_high_135_up,8,left,0.3402528,1,8,20,1,FALSE,7,1,1,1,TRUE,FALSE,high_4,0.75,-1,3,,,,,,,,,,,165,5,3.2.2021,164.9549838
252,"['high', 3]",3,white,45,left,up,high,white_high_45_up,black_high_135_up,8,left,0.3409938,1,8,20,1,FALSE,10,1,1,1,TRUE,FALSE,high_3,0.75,-1,3,,,,,,,,,,,165,5,3.2.2021,164.9549838
253,"['high', 1]",1,white,135,right,down,high,white_high_135_down,black_high_45_down,23,right,0.7335647,1,23,25,0,TRUE,9,1,1,1,TRUE,FALSE,high_1,0.75,-1,3,,,,,,,,,,,165,5,3.2.2021,164.9549838
254,"['low', 2]",2,white,45,left,up,low,white_low_45_up,black_low_135_up,2,left,0.4353907,1,2,18,1,FALSE,5,1,1,1,TRUE,FALSE,low_2,0.75,-1,3,,,,,,,,,,,165,5,3.2.2021,164.9549838
255,"['high', 4]",4,white,135,right,up,high,white_high_135_up,black_high_45_up,7,right,0.2618718,1,7,21,1,FALSE,7,1,1,1,TRUE,FALSE,high_4,0.75,-1,3,,,,,,,,,,,165,5,3.2.2021,164.9549838
256,"['low', 1]",1,black,45,right,up,low,black_low_45_up,white_low_135_up,16,left,0.3815386,0,16,28,0,TRUE,12,1,1,1,TRUE,FALSE,low_1,0.75,-1,3,,,,,,,,,,,165,5,3.2.2021,164.9549838
257,"['low', 2]",2,black,45,right,up,low,black_low_45_up,white_low_135_up,1,left,0.3025231,0,1,19,1,FALSE,5,1,1,1,TRUE,FALSE,low_2,0.75,-1,3,,,,,,,,,,,165,5,3.2.2021,164.9549838
258,"['high', 1]",1,black,45,right,up,high,black_high_45_up,white_high_135_up,22,left,0.4550999,0,22,26,1,TRUE,10,1,1,1,TRUE,FALSE,high_1,0.75,-1,3,,,,,,,,,,,165,5,3.2.2021,164.9549838
259,"['low', 6]",6,black,45,right,down,low,black_low_45_down,white_low_135_down,4,right,0.3559353,1,4,24,0,TRUE,7,1,1,1,TRUE,FALSE,low_6,0.75,-1,3,,,,,,,,,,,165,5,3.2.2021,164.9549838
260,"['high', 2]",2,white,45,left,up,high,white_high_45_up,black_high_135_up,11,left,0.3212115,1,11,33,1,FALSE,18,1,1,1,TRUE,FALSE,high_2,0.75,-1,3,,,,,,,,,,,165,5,3.2.2021,164.9549838
261,"['low', 3]",3,black,45,right,up,low,black_low_45_up,white_low_135_up,3,right,0.3928817,1,3,23,1,FALSE,10,1,1,1,TRUE,FALSE,low_3,0.75,-1,3,,,,,,,,,,,165,5,3.2.2021,164.9549838
262,"['low', 1]",1,black,45,right,up,low,black_low_45_up,white_low_135_up,19,left,0.324485,0,19,29,0,FALSE,12,1,1,1,TRUE,FALSE,low_1,0.75,-1,3,,,,,,,,,,,165,5,3.2.2021,164.9549838
263,"['low', 3]",3,white,135,right,down,low,white_low_135_down,black_low_45_down,2,right,0.3263757,1,2,24,1,FALSE,10,1,1,1,TRUE,FALSE,low_3,0.75,-1,3,,,,,,,,,,,165,5,3.2.2021,164.9549838
264,"['high', 3]",3,black,45,right,down,high,black_high_45_down,white_high_135_down,7,right,0.4220564,1,7,21,1,FALSE,10,1,1,1,TRUE,FALSE,high_3,0.75,-1,3,,,,,,,,,,,165,5,3.2.2021,164.9549838
265,"['low', 6]",6,black,45,right,up,low,black_low_45_up,white_low_135_up,3,right,0.3690102,1,3,25,1,TRUE,8,1,1,1,TRUE,FALSE,low_6,0.75,-1,3,,,,,,,,,,,165,5,3.2.2021,164.9549838
266,"['low', 1]",1,black,135,left,up,low,black_low_135_up,white_low_45_up,22,left,0.5296767,1,22,30,0,FALSE,12,1,1,1,TRUE,FALSE,low_1,0.75,-1,3,,,,,,,,,,,165,5,3.2.2021,164.9549838
267,"['high', 3]",3,white,45,left,up,high,white_high_45_up,black_high_135_up,6,left,0.3720773,1,6,22,1,FALSE,10,1,1,1,TRUE,FALSE,high_3,0.75,-1,3,,,,,,,,,,,165,5,3.2.2021,164.9549838
268,"['high', 4]",4,black,135,left,down,high,black_high_135_down,white_high_45_down,6,left,0.398971,1,6,22,1,FALSE,7,1,1,1,TRUE,FALSE,high_4,0.75,-1,3,,,,,,,,,,,165,5,3.2.2021,164.9549838
269,"['low', 4]",4,white,45,left,down,low,white_low_45_down,black_low_135_down,6,left,0.3554605,1,6,22,1,FALSE,6,1,1,1,TRUE,FALSE,low_4,0.75,-1,3,,,,,,,,,,,165,5,3.2.2021,164.9549838
270,"['high', 2]",2,white,135,right,up,high,white_high_135_up,black_high_45_up,10,right,0.3372643,1,10,34,1,FALSE,18,1,1,1,TRUE,FALSE,high_2,0.75,-1,3,,,,,,,,,,,165,5,3.2.2021,164.9549838
271,"['low', 6]",6,black,135,left,up,low,black_low_135_up,white_low_45_up,2,left,0.3401148,1,2,26,1,FALSE,8,1,1,1,TRUE,FALSE,low_6,0.75,-1,3,,,,,,,,,,,165,5,3.2.2021,164.9549838
272,"['high', 1]",1,black,45,right,down,high,black_high_45_down,white_high_135_down,25,left,0.9315905,0,25,27,0,TRUE,11,1,1,1,TRUE,FALSE,high_1,0.75,-1,3,,,,,,,,,,,165,5,3.2.2021,164.9549838
273,"['low', 3]",3,black,135,left,up,low,black_low_135_up,white_low_45_up,1,left,0.4860584,1,1,25,1,FALSE,10,1,1,1,TRUE,FALSE,low_3,0.75,-1,3,,,,,,,,,,,165,5,3.2.2021,164.9549838
274,"['low', 1]",1,black,45,right,down,low,black_low_45_down,white_low_135_down,21,right,0.7120283,1,21,31,1,TRUE,13,1,1,1,TRUE,FALSE,low_1,0.75,-1,3,,,,,,,,,,,165,5,3.2.2021,164.9549838
275,"['low', 3]",3,black,45,right,down,low,black_low_45_down,white_low_135_down,1,left,0.333731,0,1,26,1,FALSE,10,1,1,1,TRUE,FALSE,low_3,0.75,-1,3,,,,,,,,,,,165,5,3.2.2021,164.9549838
276,"['low', 3]",3,black,135,left,up,low,black_low_135_up,white_low_45_up,4,left,0.3365592,1,4,27,0,TRUE,11,1,1,1,TRUE,FALSE,low_3,0.75,-1,3,,,,,,,,,,,165,5,3.2.2021,164.9549838
277,"['low', 4]",4,black,45,right,up,low,black_low_45_up,white_low_135_up,5,right,0.4134581,1,5,23,1,FALSE,6,1,1,1,TRUE,FALSE,low_4,0.75,-1,3,,,,,,,,,,,165,5,3.2.2021,164.9549838
278,"['high', 1]",1,white,135,right,down,high,white_high_135_down,black_high_45_down,28,right,0.3786897,1,28,28,0,FALSE,11,1,1,1,TRUE,FALSE,high_1,0.75,-1,3,,,,,,,,,,,165,5,3.2.2021,164.9549838
279,"['high', 2]",2,black,135,left,up,high,black_high_135_up,white_high_45_up,9,left,0.2996439,1,9,35,1,FALSE,18,1,1,1,TRUE,FALSE,high_2,0.75,-1,3,,,,,,,,,,,165,5,3.2.2021,164.9549838
280,"['high', 6]",6,black,135,left,up,high,black_high_135_up,white_high_45_up,2,left,0.3187506,1,2,38,1,FALSE,14,1,1,1,TRUE,FALSE,high_6,0.75,-1,3,,,,,,,,,,,165,5,3.2.2021,164.9549838
281,"['low', 4]",4,black,135,left,down,low,black_low_135_down,white_low_45_down,4,left,0.1950197,1,4,24,1,FALSE,6,1,1,1,TRUE,FALSE,low_4,0.75,-1,3,,,,,,,,,,,165,5,3.2.2021,164.9549838
282,"['high', 1]",1,black,45,right,down,high,black_high_45_down,white_high_135_down,27,right,0.8258892,1,27,29,1,TRUE,12,1,1,1,TRUE,FALSE,high_1,0.75,-1,3,,,,,,,,,,,165,5,3.2.2021,164.9549838
283,"['low', 2]",2,black,45,right,up,low,black_low_45_up,white_low_135_up,4,left,0.4697914,0,4,20,0,TRUE,6,1,1,1,TRUE,FALSE,low_2,0.75,-1,3,,,,,,,,,,,165,5,3.2.2021,164.9549838
284,"['high', 6]",6,black,45,right,down,high,black_high_45_down,white_high_135_down,1,left,0.5479459,0,1,39,1,FALSE,14,1,1,1,TRUE,FALSE,high_6,0.75,-1,3,,,,,,,,,,,165,5,3.2.2021,164.9549838
285,"['high', 4]",4,white,45,left,down,high,white_high_45_down,black_high_135_down,5,left,0.2755758,1,5,23,1,FALSE,7,1,1,1,TRUE,FALSE,high_4,0.75,-1,3,,,,,,,,,,,165,5,3.2.2021,164.9549838
286,"['low', 2]",2,white,45,left,down,low,white_low_45_down,black_low_135_down,7,left,0.2794952,1,7,21,0,FALSE,6,1,1,1,TRUE,FALSE,low_2,0.75,-1,3,,,,,,,,,,,165,5,3.2.2021,164.9549838
287,"['high', 6]",6,black,135,left,down,high,black_high_135_down,white_high_45_down,4,left,0.3266519,1,4,40,0,TRUE,15,1,1,1,TRUE,FALSE,high_6,0.75,-1,3,,,,,,,,,,,165,5,3.2.2021,164.9549838
288,"['low', 6]",6,black,135,left,down,low,black_low_135_down,white_low_45_down,1,left,0.3080054,1,1,27,1,FALSE,8,1,1,1,TRUE,FALSE,low_6,0.75,-1,3,,,,,,,,,,,165,5,3.2.2021,164.9549838
289,"['low', 1]",1,black,135,left,up,low,black_low_135_up,white_low_45_up,20,left,1.4043132,1,20,32,1,FALSE,13,1,1,1,TRUE,FALSE,low_1,0.75,-1,3,,,,,,,,,,,165,5,3.2.2021,164.9549838
290,"['high', 6]",6,white,45,left,up,high,white_high_45_up,black_high_135_up,3,left,0.0700908,1,3,41,1,TRUE,16,1,1,1,TRUE,FALSE,high_6,0.75,-1,3,,,,,,,,,,,165,5,3.2.2021,164.9549838
291,"['low', 1]",1,white,45,left,up,low,white_low_45_up,black_low_135_up,19,left,3.6755816,1,19,33,1,FALSE,13,1,1,1,TRUE,FALSE,low_1,0.75,-1,3,,,,,,,,,,,165,5,3.2.2021,164.9549838
292,"['high', 3]",3,black,45,right,down,high,black_high_45_down,white_high_135_down,5,left,0.0173035,0,5,23,1,FALSE,10,1,1,1,TRUE,FALSE,high_3,0.75,-1,3,,,,,,,,,,,165,5,3.2.2021,164.9549838
293,"['high', 2]",2,white,45,left,down,high,white_high_45_down,black_high_135_down,8,left,1.6964095,1,8,36,1,FALSE,18,1,1,1,TRUE,FALSE,high_2,0.75,-1,3,,,,,,,,,,,165,5,3.2.2021,164.9549838
294,"['low', 1]",1,black,135,left,down,low,black_low_135_down,white_low_45_down,18,right,0.4575853,0,18,34,1,FALSE,13,1,1,1,TRUE,FALSE,low_1,0.75,-1,3,,,,,,,,,,,165,5,3.2.2021,164.9549838
295,"['high', 2]",2,black,135,left,down,high,black_high_135_down,white_high_45_down,7,left,0.4038743,1,7,37,1,FALSE,18,1,1,1,TRUE,FALSE,high_2,0.75,-1,3,,,,,,,,,,,165,5,3.2.2021,164.9549838
296,"['low', 1]",1,black,45,right,up,low,black_low_45_up,white_low_135_up,21,left,0.4098348,0,21,35,0,TRUE,14,1,1,1,TRUE,FALSE,low_1,0.75,-1,3,,,,,,,,,,,165,5,3.2.2021,164.9549838
297,"['low', 4]",4,white,135,right,down,low,white_low_135_down,black_low_45_down,3,right,0.4046799,1,3,25,1,FALSE,6,1,1,1,TRUE,FALSE,low_4,0.75,-1,3,,,,,,,,,,,165,5,3.2.2021,164.9549838
298,"['low', 3]",3,white,135,right,down,low,white_low_135_down,black_low_45_down,3,right,0.4362954,1,3,28,1,TRUE,12,1,1,1,TRUE,FALSE,low_3,0.75,-1,3,,,,,,,,,,,165,5,3.2.2021,164.9549838
299,"['low', 4]",4,black,135,left,up,low,black_low_135_up,white_low_45_up,2,left,0.3385932,1,2,26,1,FALSE,6,1,1,1,TRUE,FALSE,low_4,0.75,-1,3,,,,,,,,,,,165,5,3.2.2021,164.9549838
300,"['high', 4]",4,black,45,right,up,high,black_high_45_up,white_high_135_up,4,left,0.5862872,0,4,24,1,FALSE,7,1,1,1,TRUE,FALSE,high_4,0.75,-1,3,,,,,,,,,,,165,5,3.2.2021,164.9549838
301,"['high', 4]",4,white,135,right,up,high,white_high_135_up,black_high_45_up,7,right,0.3935868,1,7,25,0,TRUE,8,1,1,1,TRUE,FALSE,high_4,0.75,-1,3,,,,,,,,,,,165,5,3.2.2021,164.9549838
302,"['low', 2]",2,white,135,right,up,low,white_low_135_up,black_low_45_up,6,right,0.3589984,1,6,22,1,TRUE,7,1,1,1,TRUE,FALSE,low_2,0.75,-1,3,,,,,,,,,,,165,5,3.2.2021,164.9549838
303,"['low', 4]",4,white,135,right,up,low,white_low_135_up,black_low_45_up,1,right,0.5775756,1,1,27,1,FALSE,6,1,1,1,TRUE,FALSE,low_4,0.75,-1,3,,,,,,,,,,,165,5,3.2.2021,164.9549838
304,"['high', 6]",6,white,135,right,down,high,white_high_135_down,black_high_45_down,2,right,0.4361488,1,2,42,1,FALSE,16,1,1,1,TRUE,FALSE,high_6,0.75,-1,3,,,,,,,,,,,165,5,3.2.2021,164.9549838
305,"['high', 4]",4,black,135,left,down,high,black_high_135_down,white_high_45_down,6,left,0.1809891,1,6,26,1,TRUE,9,1,1,1,TRUE,FALSE,high_4,0.75,-1,3,,,,,,,,,,,165,5,3.2.2021,164.9549838
306,"['high', 2]",2,white,135,right,down,high,white_high_135_down,black_high_45_down,6,right,0.290216,1,6,38,1,FALSE,18,1,1,1,TRUE,FALSE,high_2,0.75,-1,3,,,,,,,,,,,165,5,3.2.2021,164.9549838
307,"['low', 2]",2,black,45,right,down,low,black_low_45_down,white_low_135_down,5,left,0.3981135,0,5,23,1,FALSE,7,1,1,1,TRUE,FALSE,low_2,0.75,-1,3,,,,,,,,,,,165,5,3.2.2021,164.9549838
308,"['high', 6]",6,black,45,right,down,high,black_high_45_down,white_high_135_down,1,left,0.6227518,0,1,43,1,FALSE,16,1,1,1,TRUE,FALSE,high_6,0.75,-1,3,,,,,,,,,,,165,5,3.2.2021,164.9549838
309,"['low', 6]",6,black,135,left,up,low,black_low_135_up,white_low_45_up,1,left,0.5244717,1,1,28,1,FALSE,8,1,1,1,TRUE,FALSE,low_6,0.75,-1,3,,,,,,,,,,,165,5,3.2.2021,164.9549838
310,"['high', 1]",1,white,135,right,up,high,white_high_135_up,black_high_45_up,26,right,0.513875,1,26,30,1,FALSE,12,1,1,1,TRUE,FALSE,high_1,0.75,-1,3,,,,,,,,,,,165,5,3.2.2021,164.9549838
311,"['high', 1]",1,black,45,right,down,high,black_high_45_down,white_high_135_down,25,left,0.4536691,0,25,31,1,FALSE,12,1,1,1,TRUE,FALSE,high_1,0.75,-1,3,,,,,,,,,,,165,5,3.2.2021,164.9549838
312,"['low', 1]",1,white,135,right,up,low,white_low_135_up,black_low_45_up,24,right,0.2864523,1,24,36,0,FALSE,14,1,1,1,TRUE,FALSE,low_1,0.75,-1,3,,,,,,,,,,,165,5,3.2.2021,164.9549838
313,"['low', 4]",4,black,45,right,up,low,black_low_45_up,white_low_135_up,1,left,0.4092593,0,1,28,1,FALSE,6,1,1,1,TRUE,FALSE,low_4,0.75,-1,3,,,,,,,,,,,165,5,3.2.2021,164.9549838
314,"['high', 3]",3,black,135,left,down,high,black_high_135_down,white_high_45_down,8,left,0.3602246,1,8,24,0,TRUE,11,1,1,1,TRUE,FALSE,high_3,0.75,-1,3,,,,,,,,,,,165,5,3.2.2021,164.9549838
315,"['low', 2]",2,white,45,left,up,low,white_low_45_up,black_low_135_up,8,left,0.3463396,1,8,24,0,TRUE,8,1,1,1,TRUE,FALSE,low_2,0.75,-1,3,,,,,,,,,,,165,5,3.2.2021,164.9549838
316,"['low', 3]",3,black,135,left,up,low,black_low_135_up,white_low_45_up,2,left,0.5191238,1,2,29,1,FALSE,12,1,1,1,TRUE,FALSE,low_3,0.75,-1,3,,,,,,,,,,,165,5,3.2.2021,164.9549838
317,"['low', 2]",2,black,135,left,up,low,black_low_135_up,white_low_45_up,7,left,0.4012687,1,7,25,1,TRUE,9,1,1,1,TRUE,FALSE,low_2,0.75,-1,3,,,,,,,,,,,165,5,3.2.2021,164.9549838
318,"['low', 3]",3,black,45,right,up,low,black_low_45_up,white_low_135_up,1,left,0.3825599,0,1,30,1,FALSE,12,1,1,1,TRUE,FALSE,low_3,0.75,-1,3,,,,,,,,,,,165,5,3.2.2021,164.9549838
319,"['high', 1]",1,white,135,right,up,high,white_high_135_up,black_high_45_up,28,right,0.3870875,1,28,32,0,TRUE,13,1,1,1,TRUE,FALSE,high_1,0.75,-1,3,,,,,,,,,,,165,5,3.2.2021,164.9549838
320,"['low', 1]",1,black,135,left,up,low,black_low_135_up,white_low_45_up,23,right,0.7121215,0,23,37,1,TRUE,15,1,1,1,TRUE,FALSE,low_1,0.75,-1,3,,,,,,,,,,,165,5,3.2.2021,164.9549838
321,"['high', 3]",3,white,45,left,down,high,white_high_45_down,black_high_135_down,7,left,0.3641942,1,7,25,1,TRUE,12,1,1,1,TRUE,FALSE,high_3,0.75,-1,3,,,,,,,,,,,165,5,3.2.2021,164.9549838
322,"['low', 3]",3,white,45,left,up,low,white_low_45_up,black_low_135_up,4,left,0.4703581,1,4,31,0,TRUE,13,1,1,1,TRUE,FALSE,low_3,0.75,-1,3,,,,,,,,,,,165,5,3.2.2021,164.9549838
323,"['low', 4]",4,black,45,right,down,low,black_low_45_down,white_low_135_down,4,right,0.4646983,1,4,29,0,TRUE,7,1,1,1,TRUE,FALSE,low_4,0.75,-1,3,,,,,,,,,,,165,5,3.2.2021,164.9549838
324,"['low', 1]",1,white,45,left,up,low,white_low_45_up,black_low_135_up,26,right,0.4015242,0,26,38,0,TRUE,16,1,1,1,TRUE,FALSE,low_1,0.75,-1,3,,,,,,,,,,,165,5,3.2.2021,164.9549838
325,"['low', 4]",4,white,45,left,down,low,white_low_45_down,black_low_135_down,3,left,0.414768,1,3,30,1,TRUE,8,1,1,1,TRUE,FALSE,low_4,0.75,-1,3,,,,,,,,,,,165,5,3.2.2021,164.9549838
326,"['low', 2]",2,black,135,left,up,low,black_low_135_up,white_low_45_up,6,left,0.2747402,1,6,26,1,FALSE,9,1,1,1,TRUE,FALSE,low_2,0.75,-1,3,,,,,,,,,,,165,5,3.2.2021,164.9549838
327,"['low', 2]",2,white,45,left,down,low,white_low_45_down,black_low_135_down,5,left,0.2986039,1,5,27,1,FALSE,9,1,1,1,TRUE,FALSE,low_2,0.75,-1,3,,,,,,,,,,,165,5,3.2.2021,164.9549838
328,"['high', 2]",2,white,45,left,down,high,white_high_45_down,black_high_135_down,5,right,0.6105979,0,5,39,1,FALSE,18,1,1,1,TRUE,FALSE,high_2,0.75,-1,3,,,,,,,,,,,165,5,3.2.2021,164.9549838
329,"['low', 1]",1,black,135,left,up,low,black_low_135_up,white_low_45_up,29,left,0.8716726,1,29,39,0,FALSE,16,1,1,1,TRUE,FALSE,low_1,0.75,-1,3,,,,,,,,,,,165,5,3.2.2021,164.9549838
330,"['low', 6]",6,black,45,right,down,low,black_low_45_down,white_low_135_down,1,right,0.4389813,1,1,29,1,FALSE,8,1,1,1,TRUE,FALSE,low_6,0.75,-1,3,,,,,,,,,,,165,5,3.2.2021,164.9549838
331,"['high', 3]",3,black,135,left,up,high,black_high_135_up,white_high_45_up,6,left,1.1146915,1,6,26,1,FALSE,12,1,1,1,TRUE,FALSE,high_3,0.75,-1,3,,,,,,,,,,,165,5,3.2.2021,164.9549838
332,"['low', 4]",4,white,135,right,down,low,white_low_135_down,black_low_45_down,2,right,0.2157942,1,2,31,1,FALSE,8,1,1,1,TRUE,FALSE,low_4,0.75,-1,3,,,,,,,,,,,165,5,3.2.2021,164.9549838
333,"['high', 4]",4,black,45,right,down,high,black_high_45_down,white_high_135_down,5,left,0.2940179,0,5,27,1,FALSE,9,1,1,1,TRUE,FALSE,high_4,0.75,-1,3,,,,,,,,,,,165,5,3.2.2021,164.9549838
334,"['high', 2]",2,black,135,left,up,high,black_high_135_up,white_high_45_up,8,left,0.7088362,1,8,40,0,TRUE,19,1,1,1,TRUE,FALSE,high_2,0.75,-1,3,,,,,,,,,,,165,5,3.2.2021,164.9549838
335,"['low', 2]",2,white,45,left,down,low,white_low_45_down,black_low_135_down,4,left,0.4149835,1,4,28,1,FALSE,9,1,1,1,TRUE,FALSE,low_2,0.75,-1,3,,,,,,,,,,,165,5,3.2.2021,164.9549838
336,"['high', 3]",3,black,135,left,up,high,black_high_135_up,white_high_45_up,5,left,0.3235804,1,5,27,1,FALSE,12,1,1,1,TRUE,FALSE,high_3,0.75,-1,3,,,,,,,,,,,165,5,3.2.2021,164.9549838
337,"['high', 4]",4,black,135,left,down,high,black_high_135_down,white_high_45_down,8,left,0.4529541,1,8,28,0,TRUE,10,1,1,1,TRUE,FALSE,high_4,0.75,-1,3,,,,,,,,,,,165,5,3.2.2021,164.9549838
338,"['high', 2]",2,black,45,right,up,high,black_high_45_up,white_high_135_up,7,left,0.4442825,0,7,41,1,TRUE,20,1,1,1,TRUE,FALSE,high_2,0.75,-1,3,,,,,,,,,,,165,5,3.2.2021,164.9549838
339,"['low', 2]",2,black,135,left,down,low,black_low_135_down,white_low_45_down,3,left,0.3834227,1,3,29,1,FALSE,9,1,1,1,TRUE,FALSE,low_2,0.75,-1,3,,,,,,,,,,,165,5,3.2.2021,164.9549838
340,"['high', 3]",3,black,45,right,up,high,black_high_45_up,white_high_135_up,4,left,0.4136445,0,4,28,1,FALSE,12,1,1,1,TRUE,FALSE,high_3,0.75,-1,3,,,,,,,,,,,165,5,3.2.2021,164.9549838
341,"['low', 2]",2,white,135,right,up,low,white_low_135_up,black_low_45_up,2,left,0.4050152,0,2,30,1,FALSE,9,1,1,1,TRUE,FALSE,low_2,0.75,-1,3,,,,,,,,,,,165,5,3.2.2021,164.9549838
342,"['high', 4]",4,white,135,right,up,high,white_high_135_up,black_high_45_up,7,right,0.3580264,1,7,29,1,TRUE,11,1,1,1,TRUE,FALSE,high_4,0.75,-1,3,,,,,,,,,,,165,5,3.2.2021,164.9549838
343,"['high', 4]",4,black,135,left,up,high,black_high_135_up,white_high_45_up,6,right,1.0801815,0,6,30,1,FALSE,11,1,1,1,TRUE,FALSE,high_4,0.75,-1,3,,,,,,,,,,,165,5,3.2.2021,164.9549838
344,"['low', 4]",4,black,45,right,down,low,black_low_45_down,white_low_135_down,1,left,0.2951811,0,1,32,1,FALSE,8,1,1,1,TRUE,FALSE,low_4,0.75,-1,3,,,,,,,,,,,165,5,3.2.2021,164.9549838
345,"['high', 2]",2,black,45,right,up,high,black_high_45_up,white_high_135_up,10,left,0.3216813,0,10,42,0,TRUE,21,1,1,1,TRUE,FALSE,high_2,0.75,-1,3,,,,,,,,,,,165,5,3.2.2021,164.9549838
346,"['high', 4]",4,black,45,right,down,high,black_high_45_down,white_high_135_down,9,left,0.2878583,0,9,31,0,TRUE,12,1,1,1,TRUE,FALSE,high_4,0.75,-1,3,,,,,,,,,,,165,5,3.2.2021,164.9549838
347,"['low', 1]",1,black,135,left,down,low,black_low_135_down,white_low_45_down,28,left,0.3421945,1,28,40,1,TRUE,17,1,1,1,TRUE,FALSE,low_1,0.75,-1,3,,,,,,,,,,,165,5,3.2.2021,164.9549838
348,"['low', 6]",6,black,135,left,up,low,black_low_135_up,white_low_45_up,1,left,0.3417639,1,1,30,1,FALSE,8,1,1,1,TRUE,FALSE,low_6,0.75,-1,3,,,,,,,,,,,165,5,3.2.2021,164.9549838
349,"['low', 2]",2,black,45,right,down,low,black_low_45_down,white_low_135_down,5,left,1.2942541,0,5,31,0,TRUE,10,1,1,1,TRUE,FALSE,low_2,0.75,-1,3,,,,,,,,,,,165,5,3.2.2021,164.9549838
350,"['low', 2]",2,white,135,right,down,low,white_low_135_down,black_low_45_down,8,right,1.564262,1,8,32,0,FALSE,10,1,1,1,TRUE,FALSE,low_2,0.75,-1,3,,,,,,,,,,,165,5,3.2.2021,164.9549838
351,"['low', 3]",3,white,135,right,up,low,white_low_135_up,black_low_45_up,3,right,0.5025927,1,3,32,1,TRUE,14,1,1,1,TRUE,FALSE,low_3,0.75,-1,3,,,,,,,,,,,165,5,3.2.2021,164.9549838
352,"['low', 4]",4,black,45,right,up,low,black_low_45_up,white_low_135_up,4,right,0.2292653,1,4,33,0,TRUE,9,1,1,1,TRUE,FALSE,low_4,0.75,-1,3,,,,,,,,,,,165,5,3.2.2021,164.9549838
353,"['low', 1]",1,black,45,right,down,low,black_low_45_down,white_low_135_down,27,right,0.0437054,1,27,41,1,FALSE,17,1,1,1,TRUE,FALSE,low_1,0.75,-1,3,,,,,,,,,,,165,5,3.2.2021,164.9549838
354,"['high', 2]",2,black,45,right,up,high,black_high_45_up,white_high_135_up,13,right,0.1201488,1,13,43,0,FALSE,21,1,1,1,TRUE,FALSE,high_2,0.75,-1,3,,,,,,,,,,,165,5,3.2.2021,164.9549838
355,"['high', 1]",1,white,45,left,up,high,white_high_45_up,black_high_135_up,27,left,0.2855424,1,27,33,1,TRUE,14,1,1,1,TRUE,FALSE,high_1,0.75,-1,3,,,,,,,,,,,165,5,3.2.2021,164.9549838
356,"['low', 4]",4,white,45,left,down,low,white_low_45_down,black_low_135_down,3,left,0.2719791,1,3,34,1,TRUE,10,1,1,1,TRUE,FALSE,low_4,0.75,-1,3,,,,,,,,,,,165,5,3.2.2021,164.9549838
357,"['high', 3]",3,black,135,left,up,high,black_high_135_up,white_high_45_up,7,left,1.6795546,1,7,29,0,TRUE,13,1,1,1,TRUE,FALSE,high_3,0.75,-1,3,,,,,,,,,,,165,5,3.2.2021,164.9549838
358,"['low', 2]",2,black,45,right,up,low,black_low_45_up,white_low_135_up,7,right,0.3296227,1,7,33,1,TRUE,11,1,1,1,TRUE,FALSE,low_2,0.75,-1,3,,,,,,,,,,,165,5,3.2.2021,164.9549838
359,"['low', 4]",4,black,45,right,up,low,black_low_45_up,white_low_135_up,2,left,0.1091489,0,2,35,1,FALSE,10,1,1,1,TRUE,FALSE,low_4,0.75,-1,3,,,,,,,,,,,165,5,3.2.2021,164.9549838
360,"['low', 2]",2,white,45,left,down,low,white_low_45_down,black_low_135_down,6,left,0.0368406,1,6,34,1,FALSE,11,1,1,1,TRUE,FALSE,low_2,0.75,-1,3,,,,,,,,,,,165,5,3.2.2021,164.9549838
361,"['high', 3]",3,black,45,right,up,high,black_high_45_up,white_high_135_up,6,right,0.5386944,1,6,30,1,TRUE,14,1,1,1,TRUE,FALSE,high_3,0.75,-1,3,,,,,,,,,,,165,5,3.2.2021,164.9549838
362,"['low', 2]",2,white,135,right,down,low,white_low_135_down,black_low_45_down,5,right,0.3226276,1,5,35,1,FALSE,11,1,1,1,TRUE,FALSE,low_2,0.75,-1,3,,,,,,,,,,,165,5,3.2.2021,164.9549838
363,"['low', 2]",2,white,45,left,up,low,white_low_45_up,black_low_135_up,4,left,0.2837216,1,4,36,1,FALSE,11,1,1,1,TRUE,FALSE,low_2,0.75,-1,3,,,,,,,,,,,165,5,3.2.2021,164.9549838
364,"['high', 6]",6,black,135,left,up,high,black_high_135_up,white_high_45_up,4,left,0.0699381,1,4,44,0,TRUE,17,1,1,1,TRUE,FALSE,high_6,0.75,-1,3,,,,,,,,,,,165,5,3.2.2021,164.9549838
365,"['low', 6]",6,white,45,left,up,low,white_low_45_up,black_low_135_up,1,left,0.3584825,1,1,31,1,FALSE,8,1,1,1,TRUE,FALSE,low_6,0.75,-1,3,,,,,,,,,,,165,5,3.2.2021,164.9549838
366,"['high', 1]",1,black,45,right,up,high,black_high_45_up,white_high_135_up,26,right,0.2414146,1,26,34,1,FALSE,14,1,1,1,TRUE,FALSE,high_1,0.75,-1,3,,,,,,,,,,,165,5,3.2.2021,164.9549838
367,"['low', 3]",3,white,45,left,up,low,white_low_45_up,black_low_135_up,2,left,0.3273451,1,2,33,1,FALSE,14,1,1,1,TRUE,FALSE,low_3,0.75,-1,3,,,,,,,,,,,165,5,3.2.2021,164.9549838
368,"['high', 3]",3,black,135,left,down,high,black_high_135_down,white_high_45_down,5,left,0.2660664,1,5,31,1,FALSE,14,1,1,1,TRUE,FALSE,high_3,0.75,-1,3,,,,,,,,,,,165,5,3.2.2021,164.9549838
369,"['low', 2]",2,black,45,right,up,low,black_low_45_up,white_low_135_up,3,left,0.2484667,0,3,37,1,FALSE,11,1,1,1,TRUE,FALSE,low_2,0.75,-1,3,,,,,,,,,,,165,5,3.2.2021,164.9549838
370,"['high', 3]",3,white,45,left,up,high,white_high_45_up,black_high_135_up,4,left,0.2501407,1,4,32,1,FALSE,14,1,1,1,TRUE,FALSE,high_3,0.75,-1,3,,,,,,,,,,,165,5,3.2.2021,164.9549838
371,"['high', 3]",3,black,135,left,up,high,black_high_135_up,white_high_45_up,3,left,0.3471022,1,3,33,1,FALSE,14,1,1,1,TRUE,FALSE,high_3,0.75,-1,3,,,,,,,,,,,165,5,3.2.2021,164.9549838
372,"['high', 1]",1,black,45,right,up,high,black_high_45_up,white_high_135_up,25,right,0.1941185,1,25,35,1,FALSE,14,1,1,1,TRUE,FALSE,high_1,0.75,-1,3,,,,,,,,,,,165,5,3.2.2021,164.9549838
373,"['low', 2]",2,white,45,left,up,low,white_low_45_up,black_low_135_up,6,left,0.2437522,1,6,38,0,TRUE,12,1,1,1,TRUE,FALSE,low_2,0.75,-1,3,,,,,,,,,,,165,5,3.2.2021,164.9549838
374,"['high', 3]",3,black,135,left,up,high,black_high_135_up,white_high_45_up,2,right,0.3978386,0,2,34,1,FALSE,14,1,1,1,TRUE,FALSE,high_3,0.75,-1,3,,,,,,,,,,,165,5,3.2.2021,164.9549838
375,"['high', 3]",3,white,135,right,down,high,white_high_135_down,black_high_45_down,5,right,0.334988,1,5,35,0,TRUE,15,1,1,1,TRUE,FALSE,high_3,0.75,-1,3,,,,,,,,,,,165,5,3.2.2021,164.9549838
376,"['low', 1]",1,white,135,right,up,low,white_low_135_up,black_low_45_up,26,right,0.4216397,1,26,42,1,FALSE,17,1,1,1,TRUE,FALSE,low_1,0.75,-1,3,,,,,,,,,,,165,5,3.2.2021,164.9549838
377,"['high', 1]",1,black,135,left,up,high,black_high_135_up,white_high_45_up,24,right,0.6332835,0,24,36,1,FALSE,14,1,1,1,TRUE,FALSE,high_1,0.75,-1,3,,,,,,,,,,,165,5,3.2.2021,164.9549838
378,"['low', 2]",2,white,135,right,up,low,white_low_135_up,black_low_45_up,5,right,0.3995349,1,5,39,1,TRUE,13,1,1,1,TRUE,FALSE,low_2,0.75,-1,3,,,,,,,,,,,165,5,3.2.2021,164.9549838
379,"['low', 3]",3,black,45,right,down,low,black_low_45_down,white_low_135_down,1,left,1.2145742,0,1,34,1,FALSE,14,1,1,1,TRUE,FALSE,low_3,0.75,-1,3,,,,,,,,,,,165,5,3.2.2021,164.9549838
380,"['high', 4]",4,black,45,right,up,high,black_high_45_up,white_high_135_up,12,right,0.2697956,1,12,32,0,FALSE,12,1,1,1,TRUE,FALSE,high_4,0.75,-1,3,,,,,,,,,,,165,5,3.2.2021,164.9549838
381,"['low', 2]",2,black,135,left,up,low,black_low_135_up,white_low_45_up,4,right,0.3145366,0,4,40,1,FALSE,13,1,1,1,TRUE,FALSE,low_2,0.75,-1,3,,,,,,,,,,,165,5,3.2.2021,164.9549838
382,"['high', 1]",1,white,135,right,up,high,white_high_135_up,black_high_45_up,27,right,0.3432031,1,27,37,0,TRUE,15,1,1,1,TRUE,FALSE,high_1,0.75,-1,3,,,,,,,,,,,165,5,3.2.2021,164.9549838
383,"['low', 6]",6,white,45,left,up,low,white_low_45_up,black_low_135_up,1,right,0.54129,0,1,32,1,FALSE,8,1,1,1,TRUE,FALSE,low_6,0.75,-1,3,,,,,,,,,,,165,5,3.2.2021,164.9549838
384,"['high', 3]",3,white,45,left,down,high,white_high_45_down,black_high_135_down,4,left,0.2916822,1,4,36,1,TRUE,16,1,1,1,TRUE,FALSE,high_3,0.75,-1,3,,,,,,,,,,,165,5,3.2.2021,164.9549838
385,"['high', 1]",1,black,45,right,up,high,black_high_45_up,white_high_135_up,26,right,0.1013158,1,26,38,1,TRUE,16,1,1,1,TRUE,FALSE,high_1,0.75,-1,3,,,,,,,,,,,165,5,3.2.2021,164.9549838
386,"['low', 3]",3,white,45,left,up,low,white_low_45_up,black_low_135_up,4,left,0.0180057,1,4,35,0,TRUE,15,1,1,1,TRUE,FALSE,low_3,0.75,-1,3,,,,,,,,,,,165,5,3.2.2021,164.9549838
387,"['low', 3]",3,black,135,left,down,low,black_low_135_down,white_low_45_down,3,left,0.032172,1,3,36,1,TRUE,16,1,1,1,TRUE,FALSE,low_3,0.75,-1,3,,,,,,,,,,,165,5,3.2.2021,164.9549838
388,"['high', 3]",3,black,45,right,up,high,black_high_45_up,white_high_135_up,3,right,0.2831651,1,3,37,1,FALSE,16,1,1,1,TRUE,FALSE,high_3,0.75,-1,3,,,,,,,,,,,165,5,3.2.2021,164.9549838
389,"['low', 4]",4,white,135,right,up,low,white_low_135_up,black_low_45_up,5,right,0.7241882,1,5,36,0,TRUE,11,1,1,1,TRUE,FALSE,low_4,0.75,-1,3,,,,,,,,,,,165,5,3.2.2021,164.9549838
390,"['high', 6]",6,black,135,left,up,high,black_high_135_up,white_high_45_up,3,right,0.2166167,0,3,45,1,TRUE,18,1,1,1,TRUE,FALSE,high_6,0.75,-1,3,,,,,,,,,,,165,5,3.2.2021,164.9549838
391,"['low', 1]",1,black,135,left,up,low,black_low_135_up,white_low_45_up,25,left,0.3057133,1,25,43,1,FALSE,17,1,1,1,TRUE,FALSE,low_1,0.75,-1,3,,,,,,,,,,,165,5,3.2.2021,164.9549838
392,"['low', 2]",2,black,45,right,down,low,black_low_45_down,white_low_135_down,7,left,0.1948897,0,7,41,0,TRUE,14,1,1,1,TRUE,FALSE,low_2,0.75,-1,3,,,,,,,,,,,165,5,3.2.2021,164.9549838
393,"['high', 1]",1,black,45,right,up,high,black_high_45_up,white_high_135_up,25,right,0.1173278,1,25,39,1,FALSE,16,1,1,1,TRUE,FALSE,high_1,0.75,-1,3,,,,,,,,,,,165,5,3.2.2021,164.9549838
394,"['high', 6]",6,white,135,right,down,high,white_high_135_down,black_high_45_down,6,right,0.8304112,1,6,46,0,TRUE,19,1,1,1,TRUE,FALSE,high_6,0.75,-1,3,,,,,,,,,,,165,5,3.2.2021,164.9549838
395,"['low', 4]",4,white,135,right,down,low,white_low_135_down,black_low_45_down,4,right,0.6796398,1,4,37,1,TRUE,12,1,1,1,TRUE,FALSE,low_4,0.75,-1,3,,,,,,,,,,,165,5,3.2.2021,164.9549838
396,"['low', 1]",1,white,135,right,up,low,white_low_135_up,black_low_45_up,24,right,0.4098925,1,24,44,1,FALSE,17,1,1,1,TRUE,FALSE,low_1,0.75,-1,3,,,,,,,,,,,165,5,3.2.2021,164.9549838
397,"['low', 6]",6,white,45,left,down,low,white_low_45_down,black_low_135_down,4,left,0.6392888,1,4,33,0,TRUE,9,1,1,1,TRUE,FALSE,low_6,0.75,-1,3,,,,,,,,,,,165,5,3.2.2021,164.9549838
398,"['low', 6]",6,white,45,left,up,low,white_low_45_up,black_low_135_up,3,left,0.2144309,1,3,34,1,TRUE,10,1,1,1,TRUE,FALSE,low_6,0.75,-1,3,,,,,,,,,,,165,5,3.2.2021,164.9549838
399,"['low', 3]",3,white,45,left,up,low,white_low_45_up,black_low_135_up,2,left,0.2602525,1,2,37,1,FALSE,16,1,1,1,TRUE,FALSE,low_3,0.75,-1,3,,,,,,,,,,,165,5,3.2.2021,164.9549838
400,"['high', 1]",1,white,135,right,down,high,white_high_135_down,black_high_45_down,24,right,0.1193736,1,24,40,1,FALSE,16,1,1,1,TRUE,FALSE,high_1,0.75,-1,3,,,,,,,,,,,165,5,3.2.2021,164.9549838
401,"['high', 4]",4,black,135,left,down,high,black_high_135_down,white_high_45_down,11,left,1.3168593,1,11,33,1,TRUE,13,1,1,1,TRUE,FALSE,high_4,0.75,-1,3,,,,,,,,,,,165,5,3.2.2021,164.9549838
402,"['low', 6]",6,black,135,left,down,low,black_low_135_down,white_low_45_down,2,left,0.3251627,1,2,35,1,FALSE,10,1,1,1,TRUE,FALSE,low_6,0.75,-1,3,,,,,,,,,,,165,5,3.2.2021,164.9549838
403,"['low', 6]",6,white,45,left,down,low,white_low_45_down,black_low_135_down,1,left,0.3482404,1,1,36,1,FALSE,10,1,1,1,TRUE,FALSE,low_6,0.75,-1,3,,,,,,,,,,,165,5,3.2.2021,164.9549838
404,"['high', 4]",4,white,45,left,up,high,white_high_45_up,black_high_135_up,10,left,0.0712883,1,10,34,1,FALSE,13,1,1,1,TRUE,FALSE,high_4,0.75,-1,3,,,,,,,,,,,165,5,3.2.2021,164.9549838
405,"['low', 2]",2,black,135,left,down,low,black_low_135_down,white_low_45_down,10,right,0.1226933,0,10,42,0,FALSE,14,1,1,1,TRUE,FALSE,low_2,0.75,-1,3,,,,,,,,,,,165,5,3.2.2021,164.9549838
406,"['low', 1]",1,white,135,right,down,low,white_low_135_down,black_low_45_down,23,left,0.582758,0,23,45,1,FALSE,17,1,1,1,TRUE,FALSE,low_1,0.75,-1,3,,,,,,,,,,,165,5,3.2.2021,164.9549838
407,"['low', 2]",2,white,45,left,down,low,white_low_45_down,black_low_135_down,13,left,0.1641043,1,13,43,0,FALSE,14,1,1,1,TRUE,FALSE,low_2,0.75,-1,3,,,,,,,,,,,165,5,3.2.2021,164.9549838
408,"['high', 4]",4,black,135,left,up,high,black_high_135_up,white_high_45_up,9,left,0.1929914,1,9,35,1,FALSE,13,1,1,1,TRUE,FALSE,high_4,0.75,-1,3,,,,,,,,,,,165,5,3.2.2021,164.9549838
409,"['low', 3]",3,black,45,right,up,low,black_low_45_up,white_low_135_up,1,left,0.2257019,0,1,38,1,FALSE,16,1,1,1,TRUE,FALSE,low_3,0.75,-1,3,,,,,,,,,,,165,5,3.2.2021,164.9549838
410,"['high', 6]",6,black,135,left,down,high,black_high_135_down,white_high_45_down,5,left,0.234405,1,5,47,1,TRUE,20,1,1,1,TRUE,FALSE,high_6,0.75,-1,3,,,,,,,,,,,165,5,3.2.2021,164.9549838
411,"['low', 3]",3,black,45,right,up,low,black_low_45_up,white_low_135_up,4,right,0.33441,1,4,39,0,TRUE,17,1,1,1,TRUE,FALSE,low_3,0.75,-1,3,,,,,,,,,,,165,5,3.2.2021,164.9549838
412,"['high', 1]",1,black,135,left,down,high,black_high_135_down,white_high_45_down,23,left,0.1960752,1,23,41,1,FALSE,16,1,1,1,TRUE,FALSE,high_1,0.75,-1,3,,,,,,,,,,,165,5,3.2.2021,164.9549838
413,"['low', 4]",4,white,135,right,down,low,white_low_135_down,black_low_45_down,3,right,0.3075599,1,3,38,1,FALSE,12,1,1,1,TRUE,FALSE,low_4,0.75,-1,3,,,,,,,,,,,165,5,3.2.2021,164.9549838
414,"['high', 4]",4,black,135,left,up,high,black_high_135_up,white_high_45_up,8,left,2.5039242,1,8,36,1,FALSE,13,1,1,1,TRUE,FALSE,high_4,0.75,-1,3,,,,,,,,,,,165,5,3.2.2021,164.9549838
415,"['low', 2]",2,white,135,right,down,low,white_low_135_down,black_low_45_down,12,right,0.2919628,1,12,44,1,TRUE,15,1,1,1,TRUE,FALSE,low_2,0.75,-1,3,,,,,,,,,,,165,5,3.2.2021,164.9549838
416,"['high', 3]",3,black,45,right,down,high,black_high_45_down,white_high_135_down,2,left,0.7909591,0,2,38,1,FALSE,16,1,1,1,TRUE,FALSE,high_3,0.75,-1,3,,,,,,,,,,,165,5,3.2.2021,164.9549838
417,"['low', 1]",1,white,45,left,up,low,white_low_45_up,black_low_135_up,26,left,0.3049529,1,26,46,0,TRUE,18,1,1,1,TRUE,FALSE,low_1,0.75,-1,3,,,,,,,,,,,165,5,3.2.2021,164.9549838
418,"['high', 1]",1,black,135,left,up,high,black_high_135_up,white_high_45_up,22,right,0.312588,0,22,42,1,FALSE,16,1,1,1,TRUE,FALSE,high_1,0.75,-1,3,,,,,,,,,,,165,5,3.2.2021,164.9549838
419,"['high', 2]",2,white,45,left,up,high,white_high_45_up,black_high_135_up,12,right,0.2413453,0,12,44,1,TRUE,22,1,1,1,TRUE,FALSE,high_2,0.75,-1,3,,,,,,,,,,,165,5,3.2.2021,164.9549838
420,"['high', 2]",2,white,45,left,up,high,white_high_45_up,black_high_135_up,15,right,0.2921196,0,15,45,0,TRUE,23,1,1,1,TRUE,FALSE,high_2,0.75,-1,3,,,,,,,,,,,165,5,3.2.2021,164.9549838
421,"['low', 4]",4,black,45,right,up,low,black_low_45_up,white_low_135_up,2,left,0.3143864,0,2,39,1,FALSE,12,1,1,1,TRUE,FALSE,low_4,0.75,-1,3,,,,,,,,,,,165,5,3.2.2021,164.9549838
422,"['high', 6]",6,black,135,left,down,high,black_high_135_down,white_high_45_down,4,right,0.3217101,0,4,48,1,FALSE,20,1,1,1,TRUE,FALSE,high_6,0.75,-1,3,,,,,,,,,,,165,5,3.2.2021,164.9549838
423,"['low', 1]",1,black,135,left,down,low,black_low_135_down,white_low_45_down,25,left,0.6500854,1,25,47,1,TRUE,19,1,1,1,TRUE,FALSE,low_1,0.75,-1,3,,,,,,,,,,,165,5,3.2.2021,164.9549838
424,"['high', 3]",3,black,135,left,up,high,black_high_135_up,white_high_45_up,5,right,0.2985022,0,5,39,0,TRUE,17,1,1,1,TRUE,FALSE,high_3,0.75,-1,3,,,,,,,,,,,165,5,3.2.2021,164.9549838
425,"['low', 3]",3,white,135,right,up,low,white_low_135_up,black_low_45_up,3,right,0.3970691,1,3,40,1,TRUE,18,1,1,1,TRUE,FALSE,low_3,0.75,-1,3,,,,,,,,,,,165,5,3.2.2021,164.9549838
426,"['low', 2]",2,white,45,left,up,low,white_low_45_up,black_low_135_up,11,right,0.3205815,0,11,45,1,FALSE,15,1,1,1,TRUE,FALSE,low_2,0.75,-1,3,,,,,,,,,,,165,5,3.2.2021,164.9549838
427,"['high', 6]",6,white,135,right,down,high,white_high_135_down,black_high_45_down,7,right,0.3308504,1,7,49,0,TRUE,21,1,1,1,TRUE,FALSE,high_6,0.75,-1,3,,,,,,,,,,,165,5,3.2.2021,164.9549838
428,"['low', 6]",6,black,45,right,up,low,black_low_45_up,white_low_135_up,1,left,1.1528129,0,1,37,1,FALSE,10,1,1,1,TRUE,FALSE,low_6,0.75,-1,3,,,,,,,,,,,165,5,3.2.2021,164.9549838
429,"['low', 1]",1,white,45,left,down,low,white_low_45_down,black_low_135_down,24,left,0.2731654,1,24,48,1,FALSE,19,1,1,1,TRUE,FALSE,low_1,0.75,-1,3,,,,,,,,,,,165,5,3.2.2021,164.9549838
430,"['low', 3]",3,white,45,left,down,low,white_low_45_down,black_low_135_down,2,left,0.0893277,1,2,41,1,FALSE,18,1,1,1,TRUE,FALSE,low_3,0.75,-1,3,,,,,,,,,,,165,5,3.2.2021,164.9549838
431,"['high', 6]",6,white,45,left,up,high,white_high_45_up,black_high_135_up,6,right,0.8455263,0,6,50,1,TRUE,22,1,1,1,TRUE,FALSE,high_6,0.75,-1,3,,,,,,,,,,,165,5,3.2.2021,164.9549838
432,"['low', 1]",1,black,45,right,down,low,black_low_45_down,white_low_135_down,23,left,0.3446482,0,23,49,1,FALSE,19,1,1,1,TRUE,FALSE,low_1,0.75,-1,3,,,,,,,,,,,165,5,3.2.2021,164.9549838
433,"['low', 3]",3,black,45,right,up,low,black_low_45_up,white_low_135_up,1,left,0.2388436,0,1,42,1,FALSE,18,1,1,1,TRUE,FALSE,low_3,0.75,-1,3,,,,,,,,,,,165,5,3.2.2021,164.9549838
434,"['high', 1]",1,black,135,left,up,high,black_high_135_up,white_high_45_up,25,left,0.170035,1,25,43,0,TRUE,17,1,1,1,TRUE,FALSE,high_1,0.75,-1,3,,,,,,,,,,,165,5,3.2.2021,164.9549838
435,"['low', 3]",3,black,45,right,down,low,black_low_45_down,white_low_135_down,4,right,0.9822936,1,4,43,0,TRUE,19,1,1,1,TRUE,FALSE,low_3,0.75,-1,3,,,,,,,,,,,165,5,3.2.2021,164.9549838
436,"['high', 1]",1,black,45,right,up,high,black_high_45_up,white_high_135_up,24,left,0.1701878,0,24,44,1,TRUE,18,1,1,1,TRUE,FALSE,high_1,0.75,-1,3,,,,,,,,,,,165,5,3.2.2021,164.9549838
437,"['high', 4]",4,black,135,left,up,high,black_high_135_up,white_high_45_up,7,left,0.1825008,1,7,37,1,FALSE,13,1,1,1,TRUE,FALSE,high_4,0.75,-1,3,,,,,,,,,,,165,5,3.2.2021,164.9549838
438,"['high', 1]",1,black,135,left,up,high,black_high_135_up,white_high_45_up,27,left,0.0372027,1,27,45,0,TRUE,19,1,1,1,TRUE,FALSE,high_1,0.75,-1,3,,,,,,,,,,,165,5,3.2.2021,164.9549838
439,"['low', 4]",4,black,135,left,down,low,black_low_135_down,white_low_45_down,5,left,0.4057598,1,5,40,0,TRUE,13,1,1,1,TRUE,FALSE,low_4,0.75,-1,3,,,,,,,,,,,165,5,3.2.2021,164.9549838
440,"['high', 3]",3,black,45,right,down,high,black_high_45_down,white_high_135_down,8,right,0.0859208,1,8,40,0,FALSE,17,1,1,1,TRUE,FALSE,high_3,0.75,-1,3,,,,,,,,,,,165,5,3.2.2021,164.9549838
441,"['low', 3]",3,white,135,right,down,low,white_low_135_down,black_low_45_down,3,right,0.1791193,1,3,44,1,TRUE,20,1,1,1,TRUE,FALSE,low_3,0.75,-1,3,,,,,,,,,,,165,5,3.2.2021,164.9549838
442,"['low', 6]",6,black,135,left,up,low,black_low_135_up,white_low_45_up,4,left,0.1815994,1,4,38,0,TRUE,11,1,1,1,TRUE,FALSE,low_6,0.75,-1,3,,,,,,,,,,,165,5,3.2.2021,164.9549838
443,"['low', 1]",1,black,45,right,up,low,black_low_45_up,white_low_135_up,26,right,0.285406,1,26,50,0,TRUE,20,1,1,1,TRUE,FALSE,low_1,0.75,-1,3,,,,,,,,,,,165,5,3.2.2021,164.9549838
444,"['low', 4]",4,white,45,left,down,low,white_low_45_down,black_low_135_down,4,left,0.2720833,1,4,41,1,TRUE,14,1,1,1,TRUE,FALSE,low_4,0.75,-1,3,,,,,,,,,,,165,5,3.2.2021,164.9549838
445,"['low', 4]",4,black,135,left,down,low,black_low_135_down,white_low_45_down,3,left,0.2125892,1,3,42,1,FALSE,14,1,1,1,TRUE,FALSE,low_4,0.75,-1,3,,,,,,,,,,,165,5,3.2.2021,164.9549838
446,"['high', 6]",6,black,135,left,up,high,black_high_135_up,white_high_45_up,9,left,0.38742,1,9,51,0,TRUE,23,1,1,1,TRUE,FALSE,high_6,0.75,-1,3,,,,,,,,,,,165,5,3.2.2021,164.9549838
447,"['high', 6]",6,white,135,right,up,high,white_high_135_up,black_high_45_up,8,right,0.3245759,1,8,52,1,TRUE,24,1,1,1,TRUE,FALSE,high_6,0.75,-1,3,,,,,,,,,,,165,5,3.2.2021,164.9549838
448,"['low', 6]",6,black,135,left,up,low,black_low_135_up,white_low_45_up,3,left,0.3263182,1,3,39,1,TRUE,12,1,1,1,TRUE,FALSE,low_6,0.75,-1,3,,,,,,,,,,,165,5,3.2.2021,164.9549838
449,"['high', 2]",2,black,45,right,down,high,black_high_45_down,white_high_135_down,18,right,0.3418052,1,18,46,0,FALSE,23,1,1,1,TRUE,FALSE,high_2,0.75,-1,3,,,,,,,,,,,165,5,3.2.2021,164.9549838
450,"['low', 6]",6,white,135,right,down,low,white_low_135_down,black_low_45_down,2,right,0.4200197,1,2,40,1,FALSE,12,1,1,1,TRUE,FALSE,low_6,0.75,-1,3,,,,,,,,,,,165,5,3.2.2021,164.9549838
451,"['low', 6]",6,black,45,right,up,low,black_low_45_up,white_low_135_up,1,right,0.4421704,1,1,41,1,FALSE,12,1,1,1,TRUE,FALSE,low_6,0.75,-1,3,,,,,,,,,,,165,5,3.2.2021,164.9549838
452,"['low', 3]",3,black,45,right,down,low,black_low_45_down,white_low_135_down,2,right,0.4029038,1,2,45,1,FALSE,20,1,1,1,TRUE,FALSE,low_3,0.75,-1,3,,,,,,,,,,,165,5,3.2.2021,164.9549838
453,"['low', 3]",3,white,45,left,down,low,white_low_45_down,black_low_135_down,1,right,0.5828017,0,1,46,1,FALSE,20,1,1,1,TRUE,FALSE,low_3,0.75,-1,3,,,,,,,,,,,165,5,3.2.2021,164.9549838
454,"['low', 6]",6,black,135,left,down,low,black_low_135_down,white_low_45_down,1,right,0.392823,0,1,42,1,FALSE,12,1,1,1,TRUE,FALSE,low_6,0.75,-1,3,,,,,,,,,,,165,5,3.2.2021,164.9549838
455,"['low', 2]",2,white,135,right,down,low,white_low_135_down,black_low_45_down,14,right,0.308393,1,14,46,0,TRUE,16,1,1,1,TRUE,FALSE,low_2,0.75,-1,3,,,,,,,,,,,165,5,3.2.2021,164.9549838
456,"['high', 4]",4,black,135,left,down,high,black_high_135_down,white_high_45_down,6,right,0.3166535,0,6,38,1,FALSE,13,1,1,1,TRUE,FALSE,high_4,0.75,-1,3,,,,,,,,,,,165,5,3.2.2021,164.9549838
457,"['high', 3]",3,white,45,left,down,high,white_high_45_down,black_high_135_down,7,left,0.269734,1,7,41,1,TRUE,18,1,1,1,TRUE,FALSE,high_3,0.75,-1,3,,,,,,,,,,,165,5,3.2.2021,164.9549838
458,"['high', 4]",4,black,135,left,down,high,black_high_135_down,white_high_45_down,9,right,0.2673789,0,9,39,0,TRUE,14,1,1,1,TRUE,FALSE,high_4,0.75,-1,3,,,,,,,,,,,165,5,3.2.2021,164.9549838
459,"['low', 2]",2,black,45,right,up,low,black_low_45_up,white_low_135_up,13,right,0.3680341,1,13,47,1,TRUE,17,1,1,1,TRUE,FALSE,low_2,0.75,-1,3,,,,,,,,,,,165,5,3.2.2021,164.9549838
460,"['low', 3]",3,black,135,left,up,low,black_low_135_up,white_low_45_up,4,right,0.3366895,0,4,47,0,TRUE,21,1,1,1,TRUE,FALSE,low_3,0.75,-1,3,,,,,,,,,,,165,5,3.2.2021,164.9549838
461,"['high', 2]",2,white,135,right,down,high,white_high_135_down,black_high_45_down,17,right,0.382201,1,17,47,1,TRUE,24,1,1,1,TRUE,FALSE,high_2,0.75,-1,3,,,,,,,,,,,165,5,3.2.2021,164.9549838
462,"['low', 4]",4,white,135,right,down,low,white_low_135_down,black_low_45_down,2,right,0.3486488,1,2,43,1,FALSE,14,1,1,1,TRUE,FALSE,low_4,0.75,-1,3,,,,,,,,,,,165,5,3.2.2021,164.9549838
463,"['low', 6]",6,black,45,right,down,low,black_low_45_down,white_low_135_down,4,right,0.2977304,1,4,43,0,TRUE,13,1,1,1,TRUE,FALSE,low_6,0.75,-1,3,,,,,,,,,,,165,5,3.2.2021,164.9549838
464,"['low', 1]",1,white,45,left,up,low,white_low_45_up,black_low_135_up,25,left,0.3384858,1,25,51,1,TRUE,21,1,1,1,TRUE,FALSE,low_1,0.75,-1,3,,,,,,,,,,,165,5,3.2.2021,164.9549838
465,"['high', 3]",3,white,45,left,up,high,white_high_45_up,black_high_135_up,6,right,0.3324643,0,6,42,1,FALSE,18,1,1,1,TRUE,FALSE,high_3,0.75,-1,3,,,,,,,,,,,165,5,3.2.2021,164.9549838
466,"['low', 3]",3,white,135,right,up,low,white_low_135_up,black_low_45_up,7,right,0.2644974,1,7,48,0,FALSE,21,1,1,1,TRUE,FALSE,low_3,0.75,-1,3,,,,,,,,,,,165,5,3.2.2021,164.9549838
467,"['high', 3]",3,black,45,right,down,high,black_high_45_down,white_high_135_down,9,right,0.2082863,1,9,43,0,TRUE,19,1,1,1,TRUE,FALSE,high_3,0.75,-1,3,,,,,,,,,,,165,5,3.2.2021,164.9549838
468,"['low', 6]",6,black,135,left,down,low,black_low_135_down,white_low_45_down,3,left,0.2440041,1,3,44,1,TRUE,14,1,1,1,TRUE,FALSE,low_6,0.75,-1,3,,,,,,,,,,,165,5,3.2.2021,164.9549838
469,"['low', 4]",4,white,135,right,down,low,white_low_135_down,black_low_45_down,1,right,0.3263705,1,1,44,1,FALSE,14,1,1,1,TRUE,FALSE,low_4,0.75,-1,3,,,,,,,,,,,165,5,3.2.2021,164.9549838
470,"['low', 3]",3,white,45,left,up,low,white_low_45_up,black_low_135_up,6,right,0.2484717,0,6,49,1,TRUE,22,1,1,1,TRUE,FALSE,low_3,0.75,-1,3,,,,,,,,,,,165,5,3.2.2021,164.9549838
471,"['high', 6]",6,white,45,left,up,high,white_high_45_up,black_high_135_up,7,right,0.2358176,0,7,53,1,FALSE,24,1,1,1,TRUE,FALSE,high_6,0.75,-1,3,,,,,,,,,,,165,5,3.2.2021,164.9549838
472,"['low', 3]",3,white,45,left,down,low,white_low_45_down,black_low_135_down,9,left,0.2852044,1,9,50,0,TRUE,23,1,1,1,TRUE,FALSE,low_3,0.75,-1,3,,,,,,,,,,,165,5,3.2.2021,164.9549838
473,"['high', 1]",1,black,135,left,down,high,black_high_135_down,white_high_45_down,26,left,0.3497968,1,26,46,1,TRUE,20,1,1,1,TRUE,FALSE,high_1,0.75,-1,3,,,,,,,,,,,165,5,3.2.2021,164.9549838
474,"['low', 4]",4,black,45,right,up,low,black_low_45_up,white_low_135_up,1,right,0.2871431,1,1,45,1,FALSE,14,1,1,1,TRUE,FALSE,low_4,0.75,-1,3,,,,,,,,,,,165,5,3.2.2021,164.9549838
475,"['high', 2]",2,black,45,right,down,high,black_high_45_down,white_high_135_down,16,right,0.3754607,1,16,48,1,FALSE,24,1,1,1,TRUE,FALSE,high_2,0.75,-1,3,,,,,,,,,,,165,5,3.2.2021,164.9549838
476,"['low', 6]",6,black,45,right,down,low,black_low_45_down,white_low_135_down,2,right,0.3716557,1,2,45,1,FALSE,14,1,1,1,TRUE,FALSE,low_6,0.75,-1,3,,,,,,,,,,,165,5,3.2.2021,164.9549838
477,"['low', 6]",6,white,45,left,down,low,white_low_45_down,black_low_135_down,1,right,0.3231878,0,1,46,1,FALSE,14,1,1,1,TRUE,FALSE,low_6,0.75,-1,3,,,,,,,,,,,165,5,3.2.2021,164.9549838
478,"['high', 3]",3,white,45,left,up,high,white_high_45_up,black_high_135_up,8,right,0.3026779,0,8,44,1,TRUE,20,1,1,1,TRUE,FALSE,high_3,0.75,-1,3,,,,,,,,,,,165,5,3.2.2021,164.9549838
479,"['high', 1]",1,white,45,left,up,high,white_high_45_up,black_high_135_up,25,left,0.2853654,1,25,47,1,FALSE,20,1,1,1,TRUE,FALSE,high_1,0.75,-1,3,,,,,,,,,,,165,5,3.2.2021,164.9549838
480,"['low', 3]",3,black,135,left,down,low,black_low_135_down,white_low_45_down,8,left,0.3337472,1,8,51,1,TRUE,24,1,1,1,TRUE,FALSE,low_3,0.75,-1,3,,,,,,,,,,,165,5,3.2.2021,164.9549838
481,"['high', 2]",2,black,135,left,down,high,black_high_135_down,white_high_45_down,15,left,0.3053118,1,15,49,1,FALSE,24,1,1,1,TRUE,FALSE,high_2,0.75,-1,3,,,,,,,,,,,165,5,3.2.2021,164.9549838
482,"['low', 2]",2,white,135,right,down,low,white_low_135_down,black_low_45_down,12,right,0.3567127,1,12,48,1,FALSE,17,1,1,1,TRUE,FALSE,low_2,0.75,-1,3,,,,,,,,,,,165,5,3.2.2021,164.9549838
483,"['high', 1]",1,white,45,left,up,high,white_high_45_up,black_high_135_up,24,left,0.367749,1,24,48,1,FALSE,20,1,1,1,TRUE,FALSE,high_1,0.75,-1,3,,,,,,,,,,,165,5,3.2.2021,164.9549838
484,"['high', 3]",3,white,45,left,down,high,white_high_45_down,black_high_135_down,11,left,0.2706286,1,11,45,0,TRUE,21,1,1,1,TRUE,FALSE,high_3,0.75,-1,3,,,,,,,,,,,165,5,3.2.2021,164.9549838
485,"['high', 4]",4,white,135,right,down,high,white_high_135_down,black_high_45_down,12,right,0.2563847,1,12,40,0,FALSE,14,1,1,1,TRUE,FALSE,high_4,0.75,-1,3,,,,,,,,,,,165,5,3.2.2021,164.9549838
486,"['low', 4]",4,white,45,left,down,low,white_low_45_down,black_low_135_down,1,left,0.4127219,1,1,46,1,FALSE,14,1,1,1,TRUE,FALSE,low_4,0.75,-1,3,,,,,,,,,,,165,5,3.2.2021,164.9549838
487,"['high', 4]",4,black,135,left,down,high,black_high_135_down,white_high_45_down,11,left,0.3579061,1,11,41,1,TRUE,15,1,1,1,TRUE,FALSE,high_4,0.75,-1,3,,,,,,,,,,,165,5,3.2.2021,164.9549838
488,"['low', 4]",4,white,135,right,down,low,white_low_135_down,black_low_45_down,1,right,0.398634,1,1,47,1,FALSE,14,1,1,1,TRUE,FALSE,low_4,0.75,-1,3,,,,,,,,,,,165,5,3.2.2021,164.9549838
489,"['low', 2]",2,black,135,left,down,low,black_low_135_down,white_low_45_down,11,left,0.2661815,1,11,49,1,FALSE,17,1,1,1,TRUE,FALSE,low_2,0.75,-1,3,,,,,,,,,,,165,5,3.2.2021,164.9549838
490,"['high', 6]",6,black,135,left,up,high,black_high_135_up,white_high_45_up,10,left,0.3438206,1,10,54,0,TRUE,25,1,1,1,TRUE,FALSE,high_6,0.75,-1,3,,,,,,,,,,,165,5,3.2.2021,164.9549838
491,"['high', 4]",4,black,45,right,up,high,black_high_45_up,white_high_135_up,10,right,0.2762455,1,10,42,1,FALSE,15,1,1,1,TRUE,FALSE,high_4,0.75,-1,3,,,,,,,,,,,165,5,3.2.2021,164.9549838
492,"['low', 4]",4,black,45,right,down,low,black_low_45_down,white_low_135_down,1,left,0.3699867,0,1,48,1,FALSE,14,1,1,1,TRUE,FALSE,low_4,0.75,-1,3,,,,,,,,,,,165,5,3.2.2021,164.9549838
493,"['low', 1]",1,white,135,right,up,low,white_low_135_up,black_low_45_up,24,right,0.3481482,1,24,52,1,FALSE,21,1,1,1,TRUE,FALSE,low_1,0.75,-1,3,,,,,,,,,,,165,5,3.2.2021,164.9549838
494,"['high', 2]",2,white,135,right,down,high,white_high_135_down,black_high_45_down,14,right,0.3489754,1,14,50,1,FALSE,24,1,1,1,TRUE,FALSE,high_2,0.75,-1,3,,,,,,,,,,,165,5,3.2.2021,164.9549838
495,"['high', 2]",2,white,135,right,down,high,white_high_135_down,black_high_45_down,13,right,0.364464,1,13,51,1,FALSE,24,1,1,1,TRUE,FALSE,high_2,0.75,-1,3,,,,,,,,,,,165,5,3.2.2021,164.9549838
496,"['high', 1]",1,black,135,left,up,high,black_high_135_up,white_high_45_up,23,left,0.3010442,1,23,49,1,FALSE,20,1,1,1,TRUE,FALSE,high_1,0.75,-1,3,,,,,,,,,,,165,5,3.2.2021,164.9549838
497,"['high', 2]",2,black,45,right,up,high,black_high_45_up,white_high_135_up,12,right,0.3144118,1,12,52,1,FALSE,24,1,1,1,TRUE,FALSE,high_2,0.75,-1,3,,,,,,,,,,,165,5,3.2.2021,164.9549838
498,"['low', 4]",4,white,135,right,up,low,white_low_135_up,black_low_45_up,4,right,0.4373666,1,4,49,0,TRUE,15,1,1,1,TRUE,FALSE,low_4,0.75,-1,3,,,,,,,,,,,165,5,3.2.2021,164.9549838
499,"['low', 6]",6,black,45,right,up,low,black_low_45_up,white_low_135_up,4,right,0.213467,1,4,47,0,TRUE,15,1,1,1,TRUE,FALSE,low_6,0.75,-1,3,,,,,,,,,,,165,5,3.2.2021,164.9549838
500,"['high', 2]",2,black,45,right,down,high,black_high_45_down,white_high_135_down,11,right,0.2150421,1,11,53,1,FALSE,24,1,1,1,TRUE,FALSE,high_2,0.75,-1,3,,,,,,,,,,,165,5,3.2.2021,164.9549838
501,"['high', 1]",1,white,45,left,up,high,white_high_45_up,black_high_135_up,22,left,0.3982019,1,22,50,1,FALSE,20,1,1,1,TRUE,FALSE,high_1,0.75,-1,3,,,,,,,,,,,165,5,3.2.2021,164.9549838
502,"['low', 4]",4,black,45,right,down,low,black_low_45_down,white_low_135_down,3,right,0.3043374,1,3,50,1,TRUE,16,1,1,1,TRUE,FALSE,low_4,0.75,-1,3,,,,,,,,,,,165,5,3.2.2021,164.9549838
503,"['high', 3]",3,white,135,right,up,high,white_high_135_up,black_high_45_up,10,right,0.369904,1,10,46,1,TRUE,22,1,1,1,TRUE,FALSE,high_3,0.75,-1,3,,,,,,,,,,,165,5,3.2.2021,164.9549838
504,"['low', 2]",2,white,135,right,up,low,white_low_135_up,black_low_45_up,10,right,0.320542,1,10,50,1,FALSE,17,1,1,1,TRUE,FALSE,low_2,0.75,-1,3,,,,,,,,,,,165,5,3.2.2021,164.9549838
505,"['high', 4]",4,black,45,right,up,high,black_high_45_up,white_high_135_up,9,right,0.3525048,1,9,43,1,FALSE,15,1,1,1,TRUE,FALSE,high_4,0.75,-1,3,,,,,,,,,,,165,5,3.2.2021,164.9549838
506,"['high', 3]",3,white,135,right,down,high,white_high_135_down,black_high_45_down,9,right,0.2834197,1,9,47,1,FALSE,22,1,1,1,TRUE,FALSE,high_3,0.75,-1,3,,,,,,,,,,,165,5,3.2.2021,164.9549838
507,"['low', 4]",4,white,45,left,up,low,white_low_45_up,black_low_135_up,2,right,0.4430552,0,2,51,1,FALSE,16,1,1,1,TRUE,FALSE,low_4,0.75,-1,3,,,,,,,,,,,165,5,3.2.2021,164.9549838
508,"['high', 3]",3,black,45,right,down,high,black_high_45_down,white_high_135_down,8,right,0.365741,1,8,48,1,FALSE,22,1,1,1,TRUE,FALSE,high_3,0.75,-1,3,,,,,,,,,,,165,5,3.2.2021,164.9549838
509,"['low', 1]",1,black,135,left,down,low,black_low_135_down,white_low_45_down,23,left,0.4364747,1,23,53,1,FALSE,21,1,1,1,TRUE,FALSE,low_1,0.75,-1,3,,,,,,,,,,,165,5,3.2.2021,164.9549838
510,"['low', 6]",6,black,45,right,down,low,black_low_45_down,white_low_135_down,3,right,0.327173,1,3,48,1,TRUE,16,1,1,1,TRUE,FALSE,low_6,0.75,-1,3,,,,,,,,,,,165,5,3.2.2021,164.9549838
511,"['low', 6]",6,black,135,left,down,low,black_low_135_down,white_low_45_down,2,left,0.4402536,1,2,49,1,FALSE,16,1,1,1,TRUE,FALSE,low_6,0.75,-1,3,,,,,,,,,,,165,5,3.2.2021,164.9549838
512,"['high', 3]",3,white,45,left,up,high,white_high_45_up,black_high_135_up,7,left,0.3424237,1,7,49,1,FALSE,22,1,1,1,TRUE,FALSE,high_3,0.75,-1,3,,,,,,,,,,,165,5,3.2.2021,164.9549838
513,"['high', 2]",2,white,45,left,down,high,white_high_45_down,black_high_135_down,10,left,0.253655,1,10,54,1,FALSE,24,1,1,1,TRUE,FALSE,high_2,0.75,-1,3,,,,,,,,,,,165,5,3.2.2021,164.9549838
514,"['high', 6]",6,white,45,left,down,high,white_high_45_down,black_high_135_down,9,left,0.6409214,1,9,55,1,TRUE,26,1,1,1,TRUE,FALSE,high_6,0.75,-1,3,,,,,,,,,,,165,5,3.2.2021,164.9549838
515,"['high', 3]",3,black,45,right,up,high,black_high_45_up,white_high_135_up,6,right,0.2978042,1,6,50,1,FALSE,22,1,1,1,TRUE,FALSE,high_3,0.75,-1,3,,,,,,,,,,,165,5,3.2.2021,164.9549838
516,"['low', 6]",6,white,135,right,up,low,white_low_135_up,black_low_45_up,1,right,0.3413578,1,1,50,1,FALSE,16,1,1,1,TRUE,FALSE,low_6,0.75,-1,3,,,,,,,,,,,165,5,3.2.2021,164.9549838
517,"['low', 4]",4,black,135,left,up,low,black_low_135_up,white_low_45_up,5,left,0.3072866,1,5,52,0,TRUE,17,1,1,1,TRUE,FALSE,low_4,0.75,-1,3,,,,,,,,,,,165,5,3.2.2021,164.9549838
518,"['high', 4]",4,white,135,right,up,high,white_high_135_up,black_high_45_up,8,right,0.2986562,1,8,44,1,FALSE,15,1,1,1,TRUE,FALSE,high_4,0.75,-1,3,,,,,,,,,,,165,5,3.2.2021,164.9549838
519,"['high', 2]",2,black,45,right,down,high,black_high_45_down,white_high_135_down,9,left,0.3241105,0,9,55,1,FALSE,24,1,1,1,TRUE,FALSE,high_2,0.75,-1,3,,,,,,,,,,,165,5,3.2.2021,164.9549838
520,"['high', 4]",4,black,45,right,down,high,black_high_45_down,white_high_135_down,7,right,0.2629686,1,7,45,1,FALSE,15,1,1,1,TRUE,FALSE,high_4,0.75,-1,3,,,,,,,,,,,165,5,3.2.2021,164.9549838
521,"['low', 6]",6,black,135,left,up,low,black_low_135_up,white_low_45_up,1,left,0.3106289,1,1,51,1,FALSE,16,1,1,1,TRUE,FALSE,low_6,0.75,-1,3,,,,,,,,,,,165,5,3.2.2021,164.9549838
522,"['high', 1]",1,white,135,right,up,high,white_high_135_up,black_high_45_up,21,left,0.5493792,0,21,51,1,FALSE,20,1,1,1,TRUE,FALSE,high_1,0.75,-1,3,,,,,,,,,,,165,5,3.2.2021,164.9549838
523,"['high', 6]",6,black,45,right,down,high,black_high_45_down,white_high_135_down,8,right,0.285346,1,8,56,1,FALSE,26,1,1,1,TRUE,FALSE,high_6,0.75,-1,3,,,,,,,,,,,165,5,3.2.2021,164.9549838
524,"['low', 2]",2,black,135,left,down,low,black_low_135_down,white_low_45_down,9,left,0.3250957,1,9,51,1,FALSE,17,1,1,1,TRUE,FALSE,low_2,0.75,-1,3,,,,,,,,,,,165,5,3.2.2021,164.9549838
525,"['high', 4]",4,white,45,left,up,high,white_high_45_up,black_high_135_up,6,left,1.1218398,1,6,46,1,FALSE,15,1,1,1,TRUE,FALSE,high_4,0.75,-1,3,,,,,,,,,,,165,5,3.2.2021,164.9549838
526,"['high', 4]",4,white,45,left,down,high,white_high_45_down,black_high_135_down,5,left,1.3819289,1,5,47,1,FALSE,15,1,1,1,TRUE,FALSE,high_4,0.75,-1,3,,,,,,,,,,,165,5,3.2.2021,164.9549838
527,"['high', 3]",3,white,45,left,up,high,white_high_45_up,black_high_135_up,5,right,1.3114919,0,5,51,1,FALSE,22,1,1,1,TRUE,FALSE,high_3,0.75,-1,3,,,,,,,,,,,165,5,3.2.2021,164.9549838
528,"['low', 3]",3,white,45,left,down,low,white_low_45_down,black_low_135_down,7,left,0.078986,1,7,52,1,FALSE,24,1,1,1,TRUE,FALSE,low_3,0.75,-1,3,,,,,,,,,,,165,5,3.2.2021,164.9549838
529,"['low', 2]",2,white,135,right,down,low,white_low_135_down,black_low_45_down,8,right,0.4500386,1,8,52,1,FALSE,17,1,1,1,TRUE,FALSE,low_2,0.75,-1,3,,,,,,,,,,,165,5,3.2.2021,164.9549838
530,"['high', 2]",2,black,135,left,up,high,black_high_135_up,white_high_45_up,12,left,0.375947,1,12,56,0,TRUE,25,1,1,1,TRUE,FALSE,high_2,0.75,-1,3,,,,,,,,,,,165,5,3.2.2021,164.9549838
531,"['high', 4]",4,black,45,right,up,high,black_high_45_up,white_high_135_up,4,left,0.1937817,0,4,48,1,FALSE,15,1,1,1,TRUE,FALSE,high_4,0.75,-1,3,,,,,,,,,,,165,5,3.2.2021,164.9549838
532,"['high', 1]",1,black,45,right,up,high,black_high_45_up,white_high_135_up,24,right,0.3007318,1,24,52,0,TRUE,21,1,1,1,TRUE,FALSE,high_1,0.75,-1,3,,,,,,,,,,,165,5,3.2.2021,164.9549838
533,"['high', 6]",6,black,45,right,down,high,black_high_45_down,white_high_135_down,7,left,0.2953974,0,7,57,1,FALSE,26,1,1,1,TRUE,FALSE,high_6,0.75,-1,3,,,,,,,,,,,165,5,3.2.2021,164.9549838
534,"['high', 6]",6,black,45,right,down,high,black_high_45_down,white_high_135_down,10,left,0.2635626,0,10,58,0,TRUE,27,1,1,1,TRUE,FALSE,high_6,0.75,-1,3,,,,,,,,,,,165,5,3.2.2021,164.9549838
