trial_number,trial_type,cycle_number,first_color,first_orientation,correct_response,visual_field,spatial_frequency,first_stim,second_stim,stimulus_frame_duration,answer,rt,accuracy,staircase_dv,staircase_trial_num,staircase_previous_correct,staircase_reversal,staircase_reversal_num,staircase_phase,staircase_step_size,staircase_powers_law,staircase_siam,staircase_over,staircase_name,staircase_conv_p,staircase_step_hit,staircase_step_miss,threshold_low1,threshold_low2,threshold_low3,threshold_low4,threshold_low6,threshold_high1,threshold_high2,threshold_high3,threshold_high4,threshold_high6,frame_rate,participant,psychopyVersion,frame_rate_detected
0,"['low', 2]",2,black,135,left,up,low,black_low_135_up,white_low_45_up,4,left,0.304162,1,4,0,None,FALSE,0,0,1,1,TRUE,FALSE,low_2,0.75,-1,3,,,,,,,,,,,165,2,3.2.2021,164.8921523
1,"['high', 6]",6,black,45,right,up,high,black_high_45_up,white_high_135_up,8,left,0.1917586,0,8,0,None,FALSE,0,0,1,1,TRUE,FALSE,high_6,0.75,-1,3,,,,,,,,,,,165,2,3.2.2021,164.8921523
2,"['low', 1]",1,white,135,right,up,low,white_low_135_up,black_low_45_up,8,right,0.1751815,1,8,0,None,FALSE,0,0,1,1,TRUE,FALSE,low_1,0.75,-1,3,,,,,,,,,,,165,2,3.2.2021,164.8921523
3,"['low', 4]",4,black,135,left,up,low,black_low_135_up,white_low_45_up,3,left,0.2671999,1,3,0,None,FALSE,0,0,1,1,TRUE,FALSE,low_4,0.75,-1,3,,,,,,,,,,,165,2,3.2.2021,164.8921523
4,"['low', 3]",3,white,45,left,up,low,white_low_45_up,black_low_135_up,3,left,0.0380545,1,3,0,None,FALSE,0,0,1,1,TRUE,FALSE,low_3,0.75,-1,3,,,,,,,,,,,165,2,3.2.2021,164.8921523
5,"['high', 2]",2,white,45,left,down,high,white_high_45_down,black_high_135_down,8,left,0.6804936,1,8,0,None,FALSE,0,0,1,1,TRUE,FALSE,high_2,0.75,-1,3,,,,,,,,,,,165,2,3.2.2021,164.8921523
6,"['high', 2]",2,black,45,right,up,high,black_high_45_up,white_high_135_up,7,left,0.2602114,0,7,1,1,FALSE,0,0,1,1,TRUE,FALSE,high_2,0.75,-1,3,,,,,,,,,,,165,2,3.2.2021,164.8921523
7,"['low', 3]",3,black,45,right,up,low,black_low_45_up,white_low_135_up,2,right,0.4035823,1,2,1,1,FALSE,0,0,1,1,TRUE,FALSE,low_3,0.75,-1,3,,,,,,,,,,,165,2,3.2.2021,164.8921523
8,"['low', 6]",6,black,135,left,up,low,black_low_135_up,white_low_45_up,3,left,0.0253334,1,3,0,None,FALSE,0,0,1,1,TRUE,FALSE,low_6,0.75,-1,3,,,,,,,,,,,165,2,3.2.2021,164.8921523
9,"['high', 4]",4,black,135,left,down,high,black_high_135_down,white_high_45_down,8,left,0.0067592,1,8,0,None,FALSE,0,0,1,1,TRUE,FALSE,high_4,0.75,-1,3,,,,,,,,,,,165,2,3.2.2021,164.8921523
10,"['high', 3]",3,black,135,left,down,high,black_high_135_down,white_high_45_down,8,left,0.7434015,1,8,0,None,FALSE,0,0,1,1,TRUE,FALSE,high_3,0.75,-1,3,,,,,,,,,,,165,2,3.2.2021,164.8921523
11,"['low', 1]",1,white,135,right,up,low,white_low_135_up,black_low_45_up,7,right,0.1586818,1,7,1,1,FALSE,0,0,1,1,TRUE,FALSE,low_1,0.75,-1,3,,,,,,,,,,,165,2,3.2.2021,164.8921523
12,"['low', 6]",6,white,135,right,down,low,white_low_135_down,black_low_45_down,2,left,0.0646958,0,2,1,1,FALSE,0,0,1,1,TRUE,FALSE,low_6,0.75,-1,3,,,,,,,,,,,165,2,3.2.2021,164.8921523
13,"['low', 4]",4,white,135,right,down,low,white_low_135_down,black_low_45_down,2,left,0.4703274,0,2,1,1,FALSE,0,0,1,1,TRUE,FALSE,low_4,0.75,-1,3,,,,,,,,,,,165,2,3.2.2021,164.8921523
14,"['low', 3]",3,black,135,left,down,low,black_low_135_down,white_low_45_down,1,left,0.4346588,1,1,2,1,FALSE,0,0,1,1,TRUE,FALSE,low_3,0.75,-1,3,,,,,,,,,,,165,2,3.2.2021,164.8921523
15,"['low', 4]",4,black,45,right,down,low,black_low_45_down,white_low_135_down,5,left,0.1990315,0,5,2,0,TRUE,1,0,1,1,TRUE,FALSE,low_4,0.75,-1,3,,,,,,,,,,,165,2,3.2.2021,164.8921523
16,"['high', 2]",2,white,135,right,up,high,white_high_135_up,black_high_45_up,10,left,0.1414482,0,10,2,0,TRUE,1,0,1,1,TRUE,FALSE,high_2,0.75,-1,3,,,,,,,,,,,165,2,3.2.2021,164.8921523
17,"['low', 4]",4,white,135,right,down,low,white_low_135_down,black_low_45_down,8,left,0.2367717,0,8,3,0,FALSE,1,0,1,1,TRUE,FALSE,low_4,0.75,-1,3,,,,,,,,,,,165,2,3.2.2021,164.8921523
18,"['low', 4]",4,white,135,right,down,low,white_low_135_down,black_low_45_down,11,right,0.365172,1,11,4,0,FALSE,1,0,1,1,TRUE,FALSE,low_4,0.75,-1,3,,,,,,,,,,,165,2,3.2.2021,164.8921523
19,"['high', 4]",4,black,135,left,up,high,black_high_135_up,white_high_45_up,7,left,0.209787,1,7,1,1,FALSE,0,0,1,1,TRUE,FALSE,high_4,0.75,-1,3,,,,,,,,,,,165,2,3.2.2021,164.8921523
20,"['high', 4]",4,white,135,right,up,high,white_high_135_up,black_high_45_up,6,right,0.3009419,1,6,2,1,FALSE,0,0,1,1,TRUE,FALSE,high_4,0.75,-1,3,,,,,,,,,,,165,2,3.2.2021,164.8921523
21,"['high', 6]",6,black,135,left,down,high,black_high_135_down,white_high_45_down,11,left,0.5220911,1,11,1,0,FALSE,0,0,1,1,TRUE,FALSE,high_6,0.75,-1,3,,,,,,,,,,,165,2,3.2.2021,164.8921523
22,"['high', 1]",1,white,135,right,up,high,white_high_135_up,black_high_45_up,12,right,0.3113483,1,12,0,None,FALSE,0,0,1,1,TRUE,FALSE,high_1,0.75,-1,3,,,,,,,,,,,165,2,3.2.2021,164.8921523
23,"['high', 6]",6,white,45,left,up,high,white_high_45_up,black_high_135_up,10,left,0.1205544,1,10,2,1,TRUE,1,0,1,1,TRUE,FALSE,high_6,0.75,-1,3,,,,,,,,,,,165,2,3.2.2021,164.8921523
24,"['high', 4]",4,black,135,left,down,high,black_high_135_down,white_high_45_down,5,left,0.3437498,1,5,3,1,FALSE,0,0,1,1,TRUE,FALSE,high_4,0.75,-1,3,,,,,,,,,,,165,2,3.2.2021,164.8921523
25,"['low', 2]",2,white,135,right,down,low,white_low_135_down,black_low_45_down,3,left,0.2720294,0,3,1,1,FALSE,0,0,1,1,TRUE,FALSE,low_2,0.75,-1,3,,,,,,,,,,,165,2,3.2.2021,164.8921523
26,"['low', 3]",3,black,45,right,down,low,black_low_45_down,white_low_135_down,1,left,0.1574409,0,1,3,1,FALSE,0,0,1,1,TRUE,FALSE,low_3,0.75,-1,3,,,,,,,,,,,165,2,3.2.2021,164.8921523
27,"['low', 1]",1,white,135,right,up,low,white_low_135_up,black_low_45_up,6,right,0.3335378,1,6,2,1,FALSE,0,0,1,1,TRUE,FALSE,low_1,0.75,-1,3,,,,,,,,,,,165,2,3.2.2021,164.8921523
28,"['low', 6]",6,black,45,right,down,low,black_low_45_down,white_low_135_down,5,right,0.2982454,1,5,2,0,TRUE,1,0,1,1,TRUE,FALSE,low_6,0.75,-1,3,,,,,,,,,,,165,2,3.2.2021,164.8921523
29,"['high', 1]",1,black,45,right,down,high,black_high_45_down,white_high_135_down,11,left,0.3034848,0,11,1,1,FALSE,0,0,1,1,TRUE,FALSE,high_1,0.75,-1,3,,,,,,,,,,,165,2,3.2.2021,164.8921523
30,"['high', 2]",2,black,45,right,down,high,black_high_45_down,white_high_135_down,13,left,0.370035,0,13,3,0,FALSE,1,0,1,1,TRUE,FALSE,high_2,0.75,-1,3,,,,,,,,,,,165,2,3.2.2021,164.8921523
31,"['high', 2]",2,white,135,right,down,high,white_high_135_down,black_high_45_down,16,right,0.067843,1,16,4,0,FALSE,1,0,1,1,TRUE,FALSE,high_2,0.75,-1,3,,,,,,,,,,,165,2,3.2.2021,164.8921523
32,"['low', 4]",4,white,45,left,up,low,white_low_45_up,black_low_135_up,10,left,0.0659224,1,10,5,1,TRUE,2,0,1,1,TRUE,FALSE,low_4,0.75,-1,3,,,,,,,,,,,165,2,3.2.2021,164.8921523
33,"['low', 2]",2,white,45,left,down,low,white_low_45_down,black_low_135_down,6,left,0.4832064,1,6,2,0,TRUE,1,0,1,1,TRUE,FALSE,low_2,0.75,-1,3,,,,,,,,,,,165,2,3.2.2021,164.8921523
34,"['low', 3]",3,white,135,right,up,low,white_low_135_up,black_low_45_up,4,right,0.4493012,1,4,4,0,TRUE,1,0,1,1,TRUE,FALSE,low_3,0.75,-1,3,,,,,,,,,,,165,2,3.2.2021,164.8921523
35,"['low', 1]",1,black,135,left,up,low,black_low_135_up,white_low_45_up,5,right,0.3633304,0,5,3,1,FALSE,0,0,1,1,TRUE,FALSE,low_1,0.75,-1,3,,,,,,,,,,,165,2,3.2.2021,164.8921523
36,"['high', 2]",2,white,135,right,up,high,white_high_135_up,black_high_45_up,15,right,0.055414,1,15,5,1,TRUE,2,0,1,1,TRUE,FALSE,high_2,0.75,-1,3,,,,,,,,,,,165,2,3.2.2021,164.8921523
37,"['low', 3]",3,white,45,left,up,low,white_low_45_up,black_low_135_up,3,left,0.3607357,1,3,5,1,TRUE,2,0,1,1,TRUE,FALSE,low_3,0.75,-1,3,,,,,,,,,,,165,2,3.2.2021,164.8921523
38,"['low', 1]",1,white,135,right,down,low,white_low_135_down,black_low_45_down,8,right,0.2338104,1,8,4,0,TRUE,1,0,1,1,TRUE,FALSE,low_1,0.75,-1,3,,,,,,,,,,,165,2,3.2.2021,164.8921523
39,"['high', 6]",6,white,135,right,up,high,white_high_135_up,black_high_45_up,9,right,0.1120448,1,9,3,1,FALSE,1,0,1,1,TRUE,FALSE,high_6,0.75,-1,3,,,,,,,,,,,165,2,3.2.2021,164.8921523
40,"['high', 4]",4,white,135,right,up,high,white_high_135_up,black_high_45_up,4,right,0.3030323,1,4,4,1,FALSE,0,0,1,1,TRUE,FALSE,high_4,0.75,-1,3,,,,,,,,,,,165,2,3.2.2021,164.8921523
41,"['high', 1]",1,white,45,left,up,high,white_high_45_up,black_high_135_up,14,left,0.2775907,1,14,2,0,TRUE,1,0,1,1,TRUE,FALSE,high_1,0.75,-1,3,,,,,,,,,,,165,2,3.2.2021,164.8921523
42,"['low', 6]",6,black,135,left,up,low,black_low_135_up,white_low_45_up,4,left,0.2322694,1,4,3,1,TRUE,2,0,1,1,TRUE,FALSE,low_6,0.75,-1,3,,,,,,,,,,,165,2,3.2.2021,164.8921523
43,"['low', 2]",2,black,135,left,up,low,black_low_135_up,white_low_45_up,5,left,0.3234733,1,5,3,1,TRUE,2,0,1,1,TRUE,FALSE,low_2,0.75,-1,3,,,,,,,,,,,165,2,3.2.2021,164.8921523
44,"['low', 3]",3,white,135,right,down,low,white_low_135_down,black_low_45_down,2,right,0.3054608,1,2,6,1,FALSE,2,0,1,1,TRUE,FALSE,low_3,0.75,-1,3,,,,,,,,,,,165,2,3.2.2021,164.8921523
45,"['low', 6]",6,black,45,right,down,low,black_low_45_down,white_low_135_down,3,right,0.3149406,1,3,4,1,FALSE,2,0,1,1,TRUE,FALSE,low_6,0.75,-1,3,,,,,,,,,,,165,2,3.2.2021,164.8921523
46,"['high', 6]",6,white,135,right,up,high,white_high_135_up,black_high_45_up,8,right,0.6199828,1,8,4,1,FALSE,1,0,1,1,TRUE,FALSE,high_6,0.75,-1,3,,,,,,,,,,,165,2,3.2.2021,164.8921523
47,"['high', 1]",1,black,45,right,up,high,black_high_45_up,white_high_135_up,13,left,0.3640684,0,13,3,1,TRUE,2,0,1,1,TRUE,FALSE,high_1,0.75,-1,3,,,,,,,,,,,165,2,3.2.2021,164.8921523
48,"['high', 1]",1,black,45,right,up,high,black_high_45_up,white_high_135_up,16,right,0.7969408,1,16,4,0,TRUE,3,0,1,1,TRUE,FALSE,high_1,0.75,-1,3,,,,,,,,,,,165,2,3.2.2021,164.8921523
49,"['low', 6]",6,white,135,right,up,low,white_low_135_up,black_low_45_up,2,right,0.3931252,1,2,5,1,FALSE,2,0,1,1,TRUE,FALSE,low_6,0.75,-1,3,,,,,,,,,,,165,2,3.2.2021,164.8921523
50,"['low', 6]",6,black,45,right,down,low,black_low_45_down,white_low_135_down,1,right,0.3706472,1,1,6,1,FALSE,2,0,1,1,TRUE,FALSE,low_6,0.75,-1,3,,,,,,,,,,,165,2,3.2.2021,164.8921523
51,"['low', 2]",2,black,135,left,down,low,black_low_135_down,white_low_45_down,4,right,0.7767944,0,4,4,1,FALSE,2,0,1,1,TRUE,FALSE,low_2,0.75,-1,3,,,,,,,,,,,165,2,3.2.2021,164.8921523
52,"['low', 3]",3,black,135,left,down,low,black_low_135_down,white_low_45_down,1,right,0.7432277,0,1,7,1,FALSE,2,0,1,1,TRUE,FALSE,low_3,0.75,-1,3,,,,,,,,,,,165,2,3.2.2021,164.8921523
53,"['high', 3]",3,black,45,right,up,high,black_high_45_up,white_high_135_up,7,right,0.3652269,1,7,1,1,FALSE,0,0,1,1,TRUE,FALSE,high_3,0.75,-1,3,,,,,,,,,,,165,2,3.2.2021,164.8921523
54,"['low', 4]",4,white,135,right,down,low,white_low_135_down,black_low_45_down,9,right,0.0876244,1,9,6,1,FALSE,2,0,1,1,TRUE,FALSE,low_4,0.75,-1,3,,,,,,,,,,,165,2,3.2.2021,164.8921523
55,"['high', 4]",4,white,45,left,down,high,white_high_45_down,black_high_135_down,3,left,0.4773462,1,3,5,1,FALSE,0,0,1,1,TRUE,FALSE,high_4,0.75,-1,3,,,,,,,,,,,165,2,3.2.2021,164.8921523
56,"['high', 1]",1,black,45,right,down,high,black_high_45_down,white_high_135_down,15,left,1.3701372,0,15,5,1,TRUE,4,0,1,1,TRUE,FALSE,high_1,0.75,-1,3,,,,,,,,,,,165,2,3.2.2021,164.8921523
57,"['high', 3]",3,black,45,right,down,high,black_high_45_down,white_high_135_down,6,right,0.5403361,1,6,2,1,FALSE,0,0,1,1,TRUE,FALSE,high_3,0.75,-1,3,,,,,,,,,,,165,2,3.2.2021,164.8921523
58,"['low', 3]",3,black,135,left,down,low,black_low_135_down,white_low_45_down,4,left,0.2810489,1,4,8,0,TRUE,3,0,1,1,TRUE,FALSE,low_3,0.75,-1,3,,,,,,,,,,,165,2,3.2.2021,164.8921523
59,"['high', 4]",4,black,135,left,up,high,black_high_135_up,white_high_45_up,2,right,1.0383911,0,2,6,1,FALSE,0,0,1,1,TRUE,FALSE,high_4,0.75,-1,3,,,,,,,,,,,165,2,3.2.2021,164.8921523
60,"['high', 1]",1,black,45,right,down,high,black_high_45_down,white_high_135_down,18,right,0.5128115,1,18,6,0,TRUE,5,1,1,1,TRUE,FALSE,high_1,0.75,-1,3,,,,,,,,,,,165,2,3.2.2021,164.8921523
61,"['low', 6]",6,black,135,left,up,low,black_low_135_up,white_low_45_up,1,right,0.6711393,0,1,7,1,FALSE,2,0,1,1,TRUE,FALSE,low_6,0.75,-1,3,,,,,,,,,,,165,2,3.2.2021,164.8921523
62,"['high', 1]",1,black,135,left,up,high,black_high_135_up,white_high_45_up,17,left,0.6825443,1,17,7,1,TRUE,6,1,1,1,TRUE,FALSE,high_1,0.75,-1,3,,,,,,,,,,,165,2,3.2.2021,164.8921523
63,"['low', 2]",2,black,135,left,up,low,black_low_135_up,white_low_45_up,7,right,0.8531961,0,7,5,0,TRUE,3,0,1,1,TRUE,FALSE,low_2,0.75,-1,3,,,,,,,,,,,165,2,3.2.2021,164.8921523
64,"['low', 2]",2,white,135,right,down,low,white_low_135_down,black_low_45_down,10,right,1.5101654,1,10,6,0,FALSE,3,0,1,1,TRUE,FALSE,low_2,0.75,-1,3,,,,,,,,,,,165,2,3.2.2021,164.8921523
65,"['high', 6]",6,black,45,right,down,high,black_high_45_down,white_high_135_down,7,right,0.4712116,1,7,5,1,FALSE,1,0,1,1,TRUE,FALSE,high_6,0.75,-1,3,,,,,,,,,,,165,2,3.2.2021,164.8921523
66,"['high', 3]",3,black,135,left,up,high,black_high_135_up,white_high_45_up,5,left,1.7296274,1,5,3,1,FALSE,0,0,1,1,TRUE,FALSE,high_3,0.75,-1,3,,,,,,,,,,,165,2,3.2.2021,164.8921523
67,"['high', 3]",3,black,45,right,up,high,black_high_45_up,white_high_135_up,4,right,0.5662511,1,4,4,1,FALSE,0,0,1,1,TRUE,FALSE,high_3,0.75,-1,3,,,,,,,,,,,165,2,3.2.2021,164.8921523
68,"['high', 4]",4,black,45,right,down,high,black_high_45_down,white_high_135_down,5,right,0.5207673,1,5,7,0,TRUE,1,0,1,1,TRUE,FALSE,high_4,0.75,-1,3,,,,,,,,,,,165,2,3.2.2021,164.8921523
69,"['low', 3]",3,black,45,right,up,low,black_low_45_up,white_low_135_up,3,right,0.3481794,1,3,9,1,TRUE,4,0,1,1,TRUE,FALSE,low_3,0.75,-1,3,,,,,,,,,,,165,2,3.2.2021,164.8921523
70,"['high', 1]",1,white,45,left,up,high,white_high_45_up,black_high_135_up,16,left,0.5578111,1,16,8,1,FALSE,6,1,1,1,TRUE,FALSE,high_1,0.75,-1,3,,,,,,,,,,,165,2,3.2.2021,164.8921523
71,"['low', 1]",1,white,45,left,up,low,white_low_45_up,black_low_135_up,7,right,0.4012087,0,7,5,1,TRUE,2,0,1,1,TRUE,FALSE,low_1,0.75,-1,3,,,,,,,,,,,165,2,3.2.2021,164.8921523
72,"['low', 4]",4,white,45,left,down,low,white_low_45_down,black_low_135_down,8,left,0.1977555,1,8,7,1,FALSE,2,0,1,1,TRUE,FALSE,low_4,0.75,-1,3,,,,,,,,,,,165,2,3.2.2021,164.8921523
73,"['high', 4]",4,white,135,right,up,high,white_high_135_up,black_high_45_up,4,right,0.4902123,1,4,8,1,TRUE,2,0,1,1,TRUE,FALSE,high_4,0.75,-1,3,,,,,,,,,,,165,2,3.2.2021,164.8921523
74,"['low', 3]",3,white,45,left,down,low,white_low_45_down,black_low_135_down,2,right,0.7731096,0,2,10,1,FALSE,4,0,1,1,TRUE,FALSE,low_3,0.75,-1,3,,,,,,,,,,,165,2,3.2.2021,164.8921523
75,"['low', 4]",4,white,45,left,up,low,white_low_45_up,black_low_135_up,7,left,0.3310884,1,7,8,1,FALSE,2,0,1,1,TRUE,FALSE,low_4,0.75,-1,3,,,,,,,,,,,165,2,3.2.2021,164.8921523
76,"['low', 1]",1,white,135,right,up,low,white_low_135_up,black_low_45_up,10,right,0.4213985,1,10,6,0,TRUE,3,0,1,1,TRUE,FALSE,low_1,0.75,-1,3,,,,,,,,,,,165,2,3.2.2021,164.8921523
77,"['low', 4]",4,black,45,right,down,low,black_low_45_down,white_low_135_down,6,right,0.9614735,1,6,9,1,FALSE,2,0,1,1,TRUE,FALSE,low_4,0.75,-1,3,,,,,,,,,,,165,2,3.2.2021,164.8921523
78,"['low', 3]",3,white,45,left,up,low,white_low_45_up,black_low_135_up,5,left,0.6048978,1,5,11,0,TRUE,5,1,1,1,TRUE,FALSE,low_3,0.75,-1,3,,,,,,,,,,,165,2,3.2.2021,164.8921523
79,"['low', 4]",4,black,135,left,down,low,black_low_135_down,white_low_45_down,5,left,0.3914595,1,5,10,1,FALSE,2,0,1,1,TRUE,FALSE,low_4,0.75,-1,3,,,,,,,,,,,165,2,3.2.2021,164.8921523
80,"['low', 6]",6,white,135,right,up,low,white_low_135_up,black_low_45_up,4,right,0.2838236,1,4,8,0,TRUE,3,0,1,1,TRUE,FALSE,low_6,0.75,-1,3,,,,,,,,,,,165,2,3.2.2021,164.8921523
81,"['high', 4]",4,black,135,left,down,high,black_high_135_down,white_high_45_down,3,left,0.5916431,1,3,9,1,FALSE,2,0,1,1,TRUE,FALSE,high_4,0.75,-1,3,,,,,,,,,,,165,2,3.2.2021,164.8921523
82,"['high', 4]",4,black,135,left,down,high,black_high_135_down,white_high_45_down,2,right,0.5475966,0,2,10,1,FALSE,2,0,1,1,TRUE,FALSE,high_4,0.75,-1,3,,,,,,,,,,,165,2,3.2.2021,164.8921523
83,"['high', 2]",2,white,45,left,up,high,white_high_45_up,black_high_135_up,14,right,1.1100286,0,14,6,1,FALSE,2,0,1,1,TRUE,FALSE,high_2,0.75,-1,3,,,,,,,,,,,165,2,3.2.2021,164.8921523
84,"['low', 2]",2,white,135,right,down,low,white_low_135_down,black_low_45_down,9,right,0.6305737,1,9,7,1,TRUE,4,0,1,1,TRUE,FALSE,low_2,0.75,-1,3,,,,,,,,,,,165,2,3.2.2021,164.8921523
85,"['high', 4]",4,white,45,left,down,high,white_high_45_down,black_high_135_down,5,left,0.357278,1,5,11,0,TRUE,3,0,1,1,TRUE,FALSE,high_4,0.75,-1,3,,,,,,,,,,,165,2,3.2.2021,164.8921523
86,"['low', 4]",4,white,45,left,up,low,white_low_45_up,black_low_135_up,4,left,0.3068956,1,4,11,1,FALSE,2,0,1,1,TRUE,FALSE,low_4,0.75,-1,3,,,,,,,,,,,165,2,3.2.2021,164.8921523
87,"['high', 1]",1,black,45,right,up,high,black_high_45_up,white_high_135_up,15,right,2.1096484,1,15,9,1,FALSE,6,1,1,1,TRUE,FALSE,high_1,0.75,-1,3,,,,,,,,,,,165,2,3.2.2021,164.8921523
88,"['low', 6]",6,white,45,left,up,low,white_low_45_up,black_low_135_up,3,left,0.2639754,1,3,9,1,TRUE,4,0,1,1,TRUE,FALSE,low_6,0.75,-1,3,,,,,,,,,,,165,2,3.2.2021,164.8921523
89,"['low', 1]",1,white,45,left,down,low,white_low_45_down,black_low_135_down,9,left,0.2065814,1,9,7,1,TRUE,4,0,1,1,TRUE,FALSE,low_1,0.75,-1,3,,,,,,,,,,,165,2,3.2.2021,164.8921523
90,"['high', 6]",6,black,135,left,down,high,black_high_135_down,white_high_45_down,6,left,0.2168282,1,6,6,1,FALSE,1,0,1,1,TRUE,FALSE,high_6,0.75,-1,3,,,,,,,,,,,165,2,3.2.2021,164.8921523
91,"['low', 3]",3,black,45,right,down,low,black_low_45_down,white_low_135_down,4,right,0.2440086,1,4,12,1,TRUE,6,1,1,1,TRUE,FALSE,low_3,0.75,-1,3,,,,,,,,,,,165,2,3.2.2021,164.8921523
92,"['low', 6]",6,white,135,right,up,low,white_low_135_up,black_low_45_up,2,right,0.0535257,1,2,10,1,FALSE,4,0,1,1,TRUE,FALSE,low_6,0.75,-1,3,,,,,,,,,,,165,2,3.2.2021,164.8921523
93,"['high', 3]",3,black,135,left,up,high,black_high_135_up,white_high_45_up,3,left,1.1656072,1,3,5,1,FALSE,0,0,1,1,TRUE,FALSE,high_3,0.75,-1,3,,,,,,,,,,,165,2,3.2.2021,164.8921523
94,"['high', 6]",6,black,45,right,down,high,black_high_45_down,white_high_135_down,5,right,0.4149865,1,5,7,1,FALSE,1,0,1,1,TRUE,FALSE,high_6,0.75,-1,3,,,,,,,,,,,165,2,3.2.2021,164.8921523
95,"['low', 1]",1,black,45,right,down,low,black_low_45_down,white_low_135_down,8,right,0.4603461,1,8,8,1,FALSE,4,0,1,1,TRUE,FALSE,low_1,0.75,-1,3,,,,,,,,,,,165,2,3.2.2021,164.8921523
96,"['low', 2]",2,white,45,left,down,low,white_low_45_down,black_low_135_down,8,right,0.6223991,0,8,8,1,FALSE,4,0,1,1,TRUE,FALSE,low_2,0.75,-1,3,,,,,,,,,,,165,2,3.2.2021,164.8921523
97,"['low', 6]",6,white,135,right,down,low,white_low_135_down,black_low_45_down,1,right,0.4836096,1,1,11,1,FALSE,4,0,1,1,TRUE,FALSE,low_6,0.75,-1,3,,,,,,,,,,,165,2,3.2.2021,164.8921523
98,"['low', 3]",3,black,135,left,up,low,black_low_135_up,white_low_45_up,3,right,1.3683671,0,3,13,1,FALSE,6,1,1,1,TRUE,FALSE,low_3,0.75,-1,3,,,,,,,,,,,165,2,3.2.2021,164.8921523
99,"['low', 4]",4,black,45,right,down,low,black_low_45_down,white_low_135_down,3,right,0.1984502,1,3,12,1,FALSE,2,0,1,1,TRUE,FALSE,low_4,0.75,-1,3,,,,,,,,,,,165,2,3.2.2021,164.8921523
100,"['high', 1]",1,black,135,left,down,high,black_high_135_down,white_high_45_down,14,right,0.524458,0,14,10,1,FALSE,6,1,1,1,TRUE,FALSE,high_1,0.75,-1,3,,,,,,,,,,,165,2,3.2.2021,164.8921523
101,"['high', 6]",6,black,45,right,up,high,black_high_45_up,white_high_135_up,4,right,0.3255587,1,4,8,1,FALSE,1,0,1,1,TRUE,FALSE,high_6,0.75,-1,3,,,,,,,,,,,165,2,3.2.2021,164.8921523
102,"['low', 4]",4,black,45,right,up,low,black_low_45_up,white_low_135_up,2,right,0.0826631,1,2,13,1,FALSE,2,0,1,1,TRUE,FALSE,low_4,0.75,-1,3,,,,,,,,,,,165,2,3.2.2021,164.8921523
103,"['low', 4]",4,black,135,left,up,low,black_low_135_up,white_low_45_up,1,right,0.1457828,0,1,14,1,FALSE,2,0,1,1,TRUE,FALSE,low_4,0.75,-1,3,,,,,,,,,,,165,2,3.2.2021,164.8921523
104,"['high', 3]",3,black,135,left,up,high,black_high_135_up,white_high_45_up,2,right,0.0922294,0,2,6,1,FALSE,0,0,1,1,TRUE,FALSE,high_3,0.75,-1,3,,,,,,,,,,,165,2,3.2.2021,164.8921523
105,"['high', 4]",4,black,135,left,down,high,black_high_135_down,white_high_45_down,4,right,0.1858525,0,4,12,1,TRUE,4,0,1,1,TRUE,FALSE,high_4,0.75,-1,3,,,,,,,,,,,165,2,3.2.2021,164.8921523
106,"['low', 1]",1,white,45,left,down,low,white_low_45_down,black_low_135_down,7,right,0.2358146,0,7,9,1,FALSE,4,0,1,1,TRUE,FALSE,low_1,0.75,-1,3,,,,,,,,,,,165,2,3.2.2021,164.8921523
107,"['high', 4]",4,black,135,left,up,high,black_high_135_up,white_high_45_up,7,right,0.2350167,0,7,13,0,TRUE,5,1,1,1,TRUE,FALSE,high_4,0.75,-1,3,,,,,,,,,,,165,2,3.2.2021,164.8921523
108,"['high', 4]",4,white,45,left,up,high,white_high_45_up,black_high_135_up,10,left,0.2461726,1,10,14,0,FALSE,5,1,1,1,TRUE,FALSE,high_4,0.75,-1,3,,,,,,,,,,,165,2,3.2.2021,164.8921523
109,"['low', 6]",6,black,45,right,up,low,black_low_45_up,white_low_135_up,1,right,0.1688272,1,1,12,1,FALSE,4,0,1,1,TRUE,FALSE,low_6,0.75,-1,3,,,,,,,,,,,165,2,3.2.2021,164.8921523
110,"['high', 6]",6,black,45,right,up,high,black_high_45_up,white_high_135_up,3,right,0.205396,1,3,9,1,FALSE,1,0,1,1,TRUE,FALSE,high_6,0.75,-1,3,,,,,,,,,,,165,2,3.2.2021,164.8921523
111,"['low', 2]",2,white,135,right,down,low,white_low_135_down,black_low_45_down,11,right,0.21387,1,11,9,0,TRUE,5,1,1,1,TRUE,FALSE,low_2,0.75,-1,3,,,,,,,,,,,165,2,3.2.2021,164.8921523
112,"['low', 2]",2,white,45,left,up,low,white_low_45_up,black_low_135_up,10,left,0.1557449,1,10,10,1,TRUE,6,1,1,1,TRUE,FALSE,low_2,0.75,-1,3,,,,,,,,,,,165,2,3.2.2021,164.8921523
113,"['high', 6]",6,white,45,left,up,high,white_high_45_up,black_high_135_up,2,right,0.1794193,0,2,10,1,FALSE,1,0,1,1,TRUE,FALSE,high_6,0.75,-1,3,,,,,,,,,,,165,2,3.2.2021,164.8921523
114,"['low', 6]",6,black,45,right,down,low,black_low_45_down,white_low_135_down,1,right,0.1121004,1,1,13,1,FALSE,4,0,1,1,TRUE,FALSE,low_6,0.75,-1,3,,,,,,,,,,,165,2,3.2.2021,164.8921523
115,"['low', 1]",1,white,45,left,down,low,white_low_45_down,black_low_135_down,10,left,0.3226224,1,10,10,0,TRUE,5,1,1,1,TRUE,FALSE,low_1,0.75,-1,3,,,,,,,,,,,165,2,3.2.2021,164.8921523
116,"['low', 2]",2,white,45,left,down,low,white_low_45_down,black_low_135_down,9,right,0.4709963,0,9,11,1,FALSE,6,1,1,1,TRUE,FALSE,low_2,0.75,-1,3,,,,,,,,,,,165,2,3.2.2021,164.8921523
117,"['low', 3]",3,black,135,left,up,low,black_low_135_up,white_low_45_up,6,left,0.3239084,1,6,14,0,TRUE,7,1,1,1,TRUE,FALSE,low_3,0.75,-1,3,,,,,,,,,,,165,2,3.2.2021,164.8921523
118,"['low', 2]",2,black,45,right,up,low,black_low_45_up,white_low_135_up,12,right,0.3552357,1,12,12,0,TRUE,7,1,1,1,TRUE,FALSE,low_2,0.75,-1,3,,,,,,,,,,,165,2,3.2.2021,164.8921523
119,"['high', 2]",2,black,135,left,down,high,black_high_135_down,white_high_45_down,17,right,0.3539778,0,17,7,0,TRUE,3,0,1,1,TRUE,FALSE,high_2,0.75,-1,3,,,,,,,,,,,165,2,3.2.2021,164.8921523
120,"['low', 1]",1,white,135,right,up,low,white_low_135_up,black_low_45_up,9,right,0.0616996,1,9,11,1,TRUE,6,1,1,1,TRUE,FALSE,low_1,0.75,-1,3,,,,,,,,,,,165,2,3.2.2021,164.8921523
121,"['low', 4]",4,white,45,left,up,low,white_low_45_up,black_low_135_up,4,left,0.1204234,1,4,15,0,TRUE,3,0,1,1,TRUE,FALSE,low_4,0.75,-1,3,,,,,,,,,,,165,2,3.2.2021,164.8921523
122,"['high', 2]",2,black,135,left,up,high,black_high_135_up,white_high_45_up,20,left,0.737352,1,20,8,0,FALSE,3,0,1,1,TRUE,FALSE,high_2,0.75,-1,3,,,,,,,,,,,165,2,3.2.2021,164.8921523
123,"['high', 3]",3,black,135,left,up,high,black_high_135_up,white_high_45_up,5,right,0.4051663,0,5,7,0,TRUE,1,0,1,1,TRUE,FALSE,high_3,0.75,-1,3,,,,,,,,,,,165,2,3.2.2021,164.8921523
124,"['low', 1]",1,white,135,right,down,low,white_low_135_down,black_low_45_down,8,right,0.4620264,1,8,12,1,FALSE,6,1,1,1,TRUE,FALSE,low_1,0.75,-1,3,,,,,,,,,,,165,2,3.2.2021,164.8921523
125,"['low', 1]",1,black,45,right,up,low,black_low_45_up,white_low_135_up,7,right,0.7910635,1,7,13,1,FALSE,6,1,1,1,TRUE,FALSE,low_1,0.75,-1,3,,,,,,,,,,,165,2,3.2.2021,164.8921523
126,"['high', 3]",3,black,45,right,down,high,black_high_45_down,white_high_135_down,8,right,0.5676537,1,8,8,0,FALSE,1,0,1,1,TRUE,FALSE,high_3,0.75,-1,3,,,,,,,,,,,165,2,3.2.2021,164.8921523
127,"['high', 2]",2,white,135,right,down,high,white_high_135_down,black_high_45_down,19,right,0.4514795,1,19,9,1,TRUE,4,0,1,1,TRUE,FALSE,high_2,0.75,-1,3,,,,,,,,,,,165,2,3.2.2021,164.8921523
128,"['low', 1]",1,black,135,left,up,low,black_low_135_up,white_low_45_up,6,left,2.0252044,1,6,14,1,FALSE,6,1,1,1,TRUE,FALSE,low_1,0.75,-1,3,,,,,,,,,,,165,2,3.2.2021,164.8921523
129,"['high', 2]",2,white,135,right,down,high,white_high_135_down,black_high_45_down,18,right,0.3304823,1,18,10,1,FALSE,4,0,1,1,TRUE,FALSE,high_2,0.75,-1,3,,,,,,,,,,,165,2,3.2.2021,164.8921523
130,"['low', 1]",1,black,135,left,down,low,black_low_135_down,white_low_45_down,5,right,0.5197579,0,5,15,1,FALSE,6,1,1,1,TRUE,FALSE,low_1,0.75,-1,3,,,,,,,,,,,165,2,3.2.2021,164.8921523
131,"['high', 1]",1,black,135,left,down,high,black_high_135_down,white_high_45_down,17,right,0.4619321,0,17,11,0,TRUE,7,1,1,1,TRUE,FALSE,high_1,0.75,-1,3,,,,,,,,,,,165,2,3.2.2021,164.8921523
132,"['high', 4]",4,white,45,left,up,high,white_high_45_up,black_high_135_up,9,left,0.2670778,1,9,15,1,TRUE,6,1,1,1,TRUE,FALSE,high_4,0.75,-1,3,,,,,,,,,,,165,2,3.2.2021,164.8921523
133,"['high', 4]",4,black,45,right,down,high,black_high_45_down,white_high_135_down,8,right,0.2553439,1,8,16,1,FALSE,6,1,1,1,TRUE,FALSE,high_4,0.75,-1,3,,,,,,,,,,,165,2,3.2.2021,164.8921523
134,"['high', 6]",6,black,45,right,up,high,black_high_45_up,white_high_135_up,5,right,0.2433535,1,5,11,0,TRUE,2,0,1,1,TRUE,FALSE,high_6,0.75,-1,3,,,,,,,,,,,165,2,3.2.2021,164.8921523
135,"['low', 6]",6,black,135,left,down,low,black_low_135_down,white_low_45_down,1,right,0.595793,0,1,14,1,FALSE,4,0,1,1,TRUE,FALSE,low_6,0.75,-1,3,,,,,,,,,,,165,2,3.2.2021,164.8921523
136,"['high', 4]",4,black,45,right,up,high,black_high_45_up,white_high_135_up,7,right,0.3123497,1,7,17,1,FALSE,6,1,1,1,TRUE,FALSE,high_4,0.75,-1,3,,,,,,,,,,,165,2,3.2.2021,164.8921523
137,"['low', 6]",6,white,45,left,down,low,white_low_45_down,black_low_135_down,4,left,0.1928763,1,4,15,0,TRUE,5,1,1,1,TRUE,FALSE,low_6,0.75,-1,3,,,,,,,,,,,165,2,3.2.2021,164.8921523
138,"['low', 3]",3,white,45,left,down,low,white_low_45_down,black_low_135_down,5,left,0.425452,1,5,15,1,TRUE,8,1,1,1,TRUE,FALSE,low_3,0.75,-1,3,,,,,,,,,,,165,2,3.2.2021,164.8921523
139,"['high', 1]",1,black,135,left,up,high,black_high_135_up,white_high_45_up,20,right,0.3963461,0,20,12,0,FALSE,7,1,1,1,TRUE,FALSE,high_1,0.75,-1,3,,,,,,,,,,,165,2,3.2.2021,164.8921523
140,"['high', 6]",6,white,45,left,down,high,white_high_45_down,black_high_135_down,4,left,0.2459154,1,4,12,1,TRUE,3,0,1,1,TRUE,FALSE,high_6,0.75,-1,3,,,,,,,,,,,165,2,3.2.2021,164.8921523
141,"['high', 6]",6,black,135,left,up,high,black_high_135_up,white_high_45_up,3,right,1.5032658,0,3,13,1,FALSE,3,0,1,1,TRUE,FALSE,high_6,0.75,-1,3,,,,,,,,,,,165,2,3.2.2021,164.8921523
142,"['high', 2]",2,white,45,left,up,high,white_high_45_up,black_high_135_up,17,left,0.2481526,1,17,11,1,FALSE,4,0,1,1,TRUE,FALSE,high_2,0.75,-1,3,,,,,,,,,,,165,2,3.2.2021,164.8921523
143,"['high', 2]",2,white,45,left,up,high,white_high_45_up,black_high_135_up,16,left,0.1971705,1,16,12,1,FALSE,4,0,1,1,TRUE,FALSE,high_2,0.75,-1,3,,,,,,,,,,,165,2,3.2.2021,164.8921523
144,"['high', 6]",6,white,45,left,up,high,white_high_45_up,black_high_135_up,6,left,0.5432043,1,6,14,0,TRUE,4,0,1,1,TRUE,FALSE,high_6,0.75,-1,3,,,,,,,,,,,165,2,3.2.2021,164.8921523
145,"['low', 1]",1,black,135,left,down,low,black_low_135_down,white_low_45_down,8,right,0.4548688,0,8,16,0,TRUE,7,1,1,1,TRUE,FALSE,low_1,0.75,-1,3,,,,,,,,,,,165,2,3.2.2021,164.8921523
146,"['high', 1]",1,black,45,right,up,high,black_high_45_up,white_high_135_up,23,right,0.9280233,1,23,13,0,FALSE,7,1,1,1,TRUE,FALSE,high_1,0.75,-1,3,,,,,,,,,,,165,2,3.2.2021,164.8921523
147,"['high', 4]",4,black,45,right,down,high,black_high_45_down,white_high_135_down,6,right,0.8827549,1,6,18,1,FALSE,6,1,1,1,TRUE,FALSE,high_4,0.75,-1,3,,,,,,,,,,,165,2,3.2.2021,164.8921523
148,"['high', 6]",6,white,135,right,down,high,white_high_135_down,black_high_45_down,5,right,0.03198,1,5,15,1,TRUE,5,1,1,1,TRUE,FALSE,high_6,0.75,-1,3,,,,,,,,,,,165,2,3.2.2021,164.8921523
149,"['high', 2]",2,white,45,left,down,high,white_high_45_down,black_high_135_down,15,left,0.0717361,1,15,13,1,FALSE,4,0,1,1,TRUE,FALSE,high_2,0.75,-1,3,,,,,,,,,,,165,2,3.2.2021,164.8921523
150,"['high', 3]",3,white,45,left,down,high,white_high_45_down,black_high_135_down,7,left,0.0412638,1,7,9,1,TRUE,2,0,1,1,TRUE,FALSE,high_3,0.75,-1,3,,,,,,,,,,,165,2,3.2.2021,164.8921523
151,"['low', 2]",2,black,135,left,down,low,black_low_135_down,white_low_45_down,11,left,0.1016184,1,11,13,1,TRUE,8,1,1,1,TRUE,FALSE,low_2,0.75,-1,3,,,,,,,,,,,165,2,3.2.2021,164.8921523
152,"['high', 1]",1,black,135,left,down,high,black_high_135_down,white_high_45_down,22,left,1.1960901,1,22,14,1,TRUE,8,1,1,1,TRUE,FALSE,high_1,0.75,-1,3,,,,,,,,,,,165,2,3.2.2021,164.8921523
153,"['low', 6]",6,black,135,left,up,low,black_low_135_up,white_low_45_up,3,left,0.3127678,1,3,16,1,TRUE,6,1,1,1,TRUE,FALSE,low_6,0.75,-1,3,,,,,,,,,,,165,2,3.2.2021,164.8921523
154,"['high', 2]",2,black,135,left,down,high,black_high_135_down,white_high_45_down,14,left,0.3699887,1,14,14,1,FALSE,4,0,1,1,TRUE,FALSE,high_2,0.75,-1,3,,,,,,,,,,,165,2,3.2.2021,164.8921523
155,"['high', 2]",2,black,135,left,up,high,black_high_135_up,white_high_45_up,13,left,0.6519991,1,13,15,1,FALSE,4,0,1,1,TRUE,FALSE,high_2,0.75,-1,3,,,,,,,,,,,165,2,3.2.2021,164.8921523
156,"['low', 4]",4,white,45,left,up,low,white_low_45_up,black_low_135_up,3,left,0.2733723,1,3,16,1,TRUE,4,0,1,1,TRUE,FALSE,low_4,0.75,-1,3,,,,,,,,,,,165,2,3.2.2021,164.8921523
157,"['low', 6]",6,black,135,left,up,low,black_low_135_up,white_low_45_up,2,left,0.5563487,1,2,17,1,FALSE,6,1,1,1,TRUE,FALSE,low_6,0.75,-1,3,,,,,,,,,,,165,2,3.2.2021,164.8921523
158,"['low', 6]",6,black,135,left,up,low,black_low_135_up,white_low_45_up,1,left,0.1516611,1,1,18,1,FALSE,6,1,1,1,TRUE,FALSE,low_6,0.75,-1,3,,,,,,,,,,,165,2,3.2.2021,164.8921523
159,"['low', 2]",2,white,45,left,up,low,white_low_45_up,black_low_135_up,10,left,0.1017942,1,10,14,1,FALSE,8,1,1,1,TRUE,FALSE,low_2,0.75,-1,3,,,,,,,,,,,165,2,3.2.2021,164.8921523
160,"['high', 3]",3,white,135,right,down,high,white_high_135_down,black_high_45_down,6,left,0.1592471,0,6,10,1,FALSE,2,0,1,1,TRUE,FALSE,high_3,0.75,-1,3,,,,,,,,,,,165,2,3.2.2021,164.8921523
161,"['low', 1]",1,white,135,right,up,low,white_low_135_up,black_low_45_up,11,right,0.1032679,1,11,17,0,FALSE,7,1,1,1,TRUE,FALSE,low_1,0.75,-1,3,,,,,,,,,,,165,2,3.2.2021,164.8921523
162,"['high', 3]",3,black,45,right,up,high,black_high_45_up,white_high_135_up,9,right,0.384686,1,9,11,0,TRUE,3,0,1,1,TRUE,FALSE,high_3,0.75,-1,3,,,,,,,,,,,165,2,3.2.2021,164.8921523
163,"['high', 3]",3,black,45,right,up,high,black_high_45_up,white_high_135_up,8,left,1.1714834,0,8,12,1,TRUE,4,0,1,1,TRUE,FALSE,high_3,0.75,-1,3,,,,,,,,,,,165,2,3.2.2021,164.8921523
164,"['low', 6]",6,black,45,right,down,low,black_low_45_down,white_low_135_down,1,right,0.4328929,1,1,19,1,FALSE,6,1,1,1,TRUE,FALSE,low_6,0.75,-1,3,,,,,,,,,,,165,2,3.2.2021,164.8921523
165,"['low', 2]",2,black,45,right,down,low,black_low_45_down,white_low_135_down,9,right,0.3409495,1,9,15,1,FALSE,8,1,1,1,TRUE,FALSE,low_2,0.75,-1,3,,,,,,,,,,,165,2,3.2.2021,164.8921523
166,"['high', 3]",3,white,135,right,up,high,white_high_135_up,black_high_45_up,11,right,0.4048709,1,11,13,0,TRUE,5,1,1,1,TRUE,FALSE,high_3,0.75,-1,3,,,,,,,,,,,165,2,3.2.2021,164.8921523
167,"['high', 6]",6,black,135,left,down,high,black_high_135_down,white_high_45_down,4,left,1.0672689,1,4,16,1,FALSE,5,1,1,1,TRUE,FALSE,high_6,0.75,-1,3,,,,,,,,,,,165,2,3.2.2021,164.8921523
168,"['high', 1]",1,black,135,left,down,high,black_high_135_down,white_high_45_down,21,left,0.5155197,1,21,15,1,FALSE,8,1,1,1,TRUE,FALSE,high_1,0.75,-1,3,,,,,,,,,,,165,2,3.2.2021,164.8921523
169,"['high', 6]",6,black,135,left,up,high,black_high_135_up,white_high_45_up,3,right,0.337105,0,3,17,1,FALSE,5,1,1,1,TRUE,FALSE,high_6,0.75,-1,3,,,,,,,,,,,165,2,3.2.2021,164.8921523
170,"['low', 6]",6,white,135,right,up,low,white_low_135_up,black_low_45_up,1,right,0.206654,1,1,20,1,FALSE,6,1,1,1,TRUE,FALSE,low_6,0.75,-1,3,,,,,,,,,,,165,2,3.2.2021,164.8921523
171,"['high', 3]",3,white,45,left,up,high,white_high_45_up,black_high_135_up,10,left,0.0493879,1,10,14,1,TRUE,6,1,1,1,TRUE,FALSE,high_3,0.75,-1,3,,,,,,,,,,,165,2,3.2.2021,164.8921523
172,"['high', 6]",6,black,45,right,up,high,black_high_45_up,white_high_135_up,6,right,0.5289587,1,6,18,0,TRUE,6,1,1,1,TRUE,FALSE,high_6,0.75,-1,3,,,,,,,,,,,165,2,3.2.2021,164.8921523
173,"['low', 1]",1,black,45,right,down,low,black_low_45_down,white_low_135_down,10,right,0.075495,1,10,18,1,TRUE,8,1,1,1,TRUE,FALSE,low_1,0.75,-1,3,,,,,,,,,,,165,2,3.2.2021,164.8921523
174,"['low', 1]",1,black,45,right,up,low,black_low_45_up,white_low_135_up,9,right,0.1343432,1,9,19,1,FALSE,8,1,1,1,TRUE,FALSE,low_1,0.75,-1,3,,,,,,,,,,,165,2,3.2.2021,164.8921523
175,"['low', 2]",2,white,135,right,up,low,white_low_135_up,black_low_45_up,8,right,0.2645226,1,8,16,1,FALSE,8,1,1,1,TRUE,FALSE,low_2,0.75,-1,3,,,,,,,,,,,165,2,3.2.2021,164.8921523
176,"['low', 6]",6,white,45,left,up,low,white_low_45_up,black_low_135_up,1,left,0.0704665,1,1,21,1,FALSE,6,1,1,1,TRUE,FALSE,low_6,0.75,-1,3,,,,,,,,,,,165,2,3.2.2021,164.8921523
177,"['high', 3]",3,white,45,left,down,high,white_high_45_down,black_high_135_down,9,left,0.4303175,1,9,15,1,FALSE,6,1,1,1,TRUE,FALSE,high_3,0.75,-1,3,,,,,,,,,,,165,2,3.2.2021,164.8921523
178,"['low', 2]",2,white,135,right,down,low,white_low_135_down,black_low_45_down,7,left,0.3436797,0,7,17,1,FALSE,8,1,1,1,TRUE,FALSE,low_2,0.75,-1,3,,,,,,,,,,,165,2,3.2.2021,164.8921523
179,"['high', 1]",1,white,45,left,up,high,white_high_45_up,black_high_135_up,20,left,0.2148953,1,20,16,1,FALSE,8,1,1,1,TRUE,FALSE,high_1,0.75,-1,3,,,,,,,,,,,165,2,3.2.2021,164.8921523
180,"['low', 4]",4,black,45,right,up,low,black_low_45_up,white_low_135_up,2,right,0.0321681,1,2,17,1,FALSE,4,0,1,1,TRUE,FALSE,low_4,0.75,-1,3,,,,,,,,,,,165,2,3.2.2021,164.8921523
181,"['high', 3]",3,black,45,right,down,high,black_high_45_down,white_high_135_down,8,right,0.1812736,1,8,16,1,FALSE,6,1,1,1,TRUE,FALSE,high_3,0.75,-1,3,,,,,,,,,,,165,2,3.2.2021,164.8921523
182,"['high', 2]",2,black,45,right,up,high,black_high_45_up,white_high_135_up,12,right,0.1662333,1,12,16,1,FALSE,4,0,1,1,TRUE,FALSE,high_2,0.75,-1,3,,,,,,,,,,,165,2,3.2.2021,164.8921523
183,"['high', 1]",1,black,45,right,down,high,black_high_45_down,white_high_135_down,19,right,0.8274912,1,19,17,1,FALSE,8,1,1,1,TRUE,FALSE,high_1,0.75,-1,3,,,,,,,,,,,165,2,3.2.2021,164.8921523
184,"['low', 3]",3,black,45,right,down,low,black_low_45_down,white_low_135_down,4,right,0.0867501,1,4,16,1,FALSE,8,1,1,1,TRUE,FALSE,low_3,0.75,-1,3,,,,,,,,,,,165,2,3.2.2021,164.8921523
185,"['high', 4]",4,white,45,left,down,high,white_high_45_down,black_high_135_down,5,left,1.0296478,1,5,19,1,FALSE,6,1,1,1,TRUE,FALSE,high_4,0.75,-1,3,,,,,,,,,,,165,2,3.2.2021,164.8921523
186,"['low', 3]",3,black,135,left,down,low,black_low_135_down,white_low_45_down,3,left,0.1478641,1,3,17,1,FALSE,8,1,1,1,TRUE,FALSE,low_3,0.75,-1,3,,,,,,,,,,,165,2,3.2.2021,164.8921523
187,"['low', 2]",2,black,135,left,down,low,black_low_135_down,white_low_45_down,10,left,0.0165339,1,10,18,0,TRUE,9,1,1,1,TRUE,FALSE,low_2,0.75,-1,3,,,,,,,,,,,165,2,3.2.2021,164.8921523
188,"['high', 6]",6,white,45,left,up,high,white_high_45_up,black_high_135_up,5,left,0.0132504,1,5,19,1,TRUE,7,1,1,1,TRUE,FALSE,high_6,0.75,-1,3,,,,,,,,,,,165,2,3.2.2021,164.8921523
189,"['low', 2]",2,white,45,left,up,low,white_low_45_up,black_low_135_up,9,left,0.0080983,1,9,19,1,TRUE,10,1,1,1,TRUE,FALSE,low_2,0.75,-1,3,,,,,,,,,,,165,2,3.2.2021,164.8921523
190,"['low', 6]",6,white,135,right,down,low,white_low_135_down,black_low_45_down,1,right,0.2617349,1,1,22,1,FALSE,6,1,1,1,TRUE,FALSE,low_6,0.75,-1,3,,,,,,,,,,,165,2,3.2.2021,164.8921523
191,"['low', 4]",4,white,45,left,up,low,white_low_45_up,black_low_135_up,1,left,0.3091018,1,1,18,1,FALSE,4,0,1,1,TRUE,FALSE,low_4,0.75,-1,3,,,,,,,,,,,165,2,3.2.2021,164.8921523
192,"['low', 1]",1,black,135,left,down,low,black_low_135_down,white_low_45_down,8,left,0.2849795,1,8,20,1,FALSE,8,1,1,1,TRUE,FALSE,low_1,0.75,-1,3,,,,,,,,,,,165,2,3.2.2021,164.8921523
193,"['high', 3]",3,black,45,right,up,high,black_high_45_up,white_high_135_up,7,left,0.0962263,0,7,17,1,FALSE,6,1,1,1,TRUE,FALSE,high_3,0.75,-1,3,,,,,,,,,,,165,2,3.2.2021,164.8921523
194,"['low', 2]",2,black,45,right,up,low,black_low_45_up,white_low_135_up,8,right,0.8750627,1,8,20,1,FALSE,10,1,1,1,TRUE,FALSE,low_2,0.75,-1,3,,,,,,,,,,,165,2,3.2.2021,164.8921523
195,"['low', 3]",3,white,135,right,down,low,white_low_135_down,black_low_45_down,2,right,0.0769196,1,2,18,1,FALSE,8,1,1,1,TRUE,FALSE,low_3,0.75,-1,3,,,,,,,,,,,165,2,3.2.2021,164.8921523
196,"['high', 6]",6,black,135,left,down,high,black_high_135_down,white_high_45_down,4,left,0.3864708,1,4,20,1,FALSE,7,1,1,1,TRUE,FALSE,high_6,0.75,-1,3,,,,,,,,,,,165,2,3.2.2021,164.8921523
197,"['high', 6]",6,white,45,left,down,high,white_high_45_down,black_high_135_down,3,left,0.0421187,1,3,21,1,FALSE,7,1,1,1,TRUE,FALSE,high_6,0.75,-1,3,,,,,,,,,,,165,2,3.2.2021,164.8921523
198,"['high', 2]",2,black,135,left,down,high,black_high_135_down,white_high_45_down,11,left,0.1564459,1,11,17,1,FALSE,4,0,1,1,TRUE,FALSE,high_2,0.75,-1,3,,,,,,,,,,,165,2,3.2.2021,164.8921523
199,"['high', 1]",1,white,45,left,down,high,white_high_45_down,black_high_135_down,18,right,0.2252761,0,18,18,1,FALSE,8,1,1,1,TRUE,FALSE,high_1,0.75,-1,3,,,,,,,,,,,165,2,3.2.2021,164.8921523
200,"['high', 3]",3,white,135,right,up,high,white_high_135_up,black_high_45_up,10,right,0.4204639,1,10,18,0,TRUE,7,1,1,1,TRUE,FALSE,high_3,0.75,-1,3,,,,,,,,,,,165,2,3.2.2021,164.8921523
201,"['low', 2]",2,black,135,left,up,low,black_low_135_up,white_low_45_up,7,right,0.5337086,0,7,21,1,FALSE,10,1,1,1,TRUE,FALSE,low_2,0.75,-1,3,,,,,,,,,,,165,2,3.2.2021,164.8921523
202,"['high', 2]",2,white,45,left,up,high,white_high_45_up,black_high_135_up,10,left,0.3205948,1,10,18,1,FALSE,4,0,1,1,TRUE,FALSE,high_2,0.75,-1,3,,,,,,,,,,,165,2,3.2.2021,164.8921523
203,"['low', 2]",2,white,45,left,down,low,white_low_45_down,black_low_135_down,10,left,0.2050536,1,10,22,0,TRUE,11,1,1,1,TRUE,FALSE,low_2,0.75,-1,3,,,,,,,,,,,165,2,3.2.2021,164.8921523
204,"['low', 4]",4,white,135,right,up,low,white_low_135_up,black_low_45_up,1,right,0.2908537,1,1,19,1,FALSE,4,0,1,1,TRUE,FALSE,low_4,0.75,-1,3,,,,,,,,,,,165,2,3.2.2021,164.8921523
205,"['high', 6]",6,black,45,right,up,high,black_high_45_up,white_high_135_up,2,left,0.4310224,0,2,22,1,FALSE,7,1,1,1,TRUE,FALSE,high_6,0.75,-1,3,,,,,,,,,,,165,2,3.2.2021,164.8921523
206,"['high', 6]",6,black,135,left,down,high,black_high_135_down,white_high_45_down,5,left,0.0564609,1,5,23,0,TRUE,8,1,1,1,TRUE,FALSE,high_6,0.75,-1,3,,,,,,,,,,,165,2,3.2.2021,164.8921523
207,"['high', 1]",1,white,135,right,down,high,white_high_135_down,black_high_45_down,21,right,0.1534773,1,21,19,0,TRUE,9,1,1,1,TRUE,FALSE,high_1,0.75,-1,3,,,,,,,,,,,165,2,3.2.2021,164.8921523
208,"['low', 4]",4,white,45,left,down,low,white_low_45_down,black_low_135_down,1,left,0.1231492,1,1,20,1,FALSE,4,0,1,1,TRUE,FALSE,low_4,0.75,-1,3,,,,,,,,,,,165,2,3.2.2021,164.8921523
209,"['high', 6]",6,white,45,left,up,high,white_high_45_up,black_high_135_up,4,left,0.3834096,1,4,24,1,TRUE,9,1,1,1,TRUE,FALSE,high_6,0.75,-1,3,,,,,,,,,,,165,2,3.2.2021,164.8921523
210,"['low', 1]",1,black,45,right,up,low,black_low_45_up,white_low_135_up,7,left,0.3875857,0,7,21,1,FALSE,8,1,1,1,TRUE,FALSE,low_1,0.75,-1,3,,,,,,,,,,,165,2,3.2.2021,164.8921523
211,"['low', 4]",4,black,45,right,down,low,black_low_45_down,white_low_135_down,1,right,0.3153102,1,1,21,1,FALSE,4,0,1,1,TRUE,FALSE,low_4,0.75,-1,3,,,,,,,,,,,165,2,3.2.2021,164.8921523
212,"['high', 2]",2,white,135,right,up,high,white_high_135_up,black_high_45_up,9,left,0.2641094,0,9,19,1,FALSE,4,0,1,1,TRUE,FALSE,high_2,0.75,-1,3,,,,,,,,,,,165,2,3.2.2021,164.8921523
213,"['low', 6]",6,white,135,right,down,low,white_low_135_down,black_low_45_down,1,right,0.0766863,1,1,23,1,FALSE,6,1,1,1,TRUE,FALSE,low_6,0.75,-1,3,,,,,,,,,,,165,2,3.2.2021,164.8921523
214,"['high', 6]",6,white,45,left,down,high,white_high_45_down,black_high_135_down,3,left,0.345097,1,3,25,1,FALSE,9,1,1,1,TRUE,FALSE,high_6,0.75,-1,3,,,,,,,,,,,165,2,3.2.2021,164.8921523
215,"['high', 2]",2,white,135,right,down,high,white_high_135_down,black_high_45_down,12,right,0.0713873,1,12,20,0,TRUE,5,1,1,1,TRUE,FALSE,high_2,0.75,-1,3,,,,,,,,,,,165,2,3.2.2021,164.8921523
216,"['low', 1]",1,white,45,left,down,low,white_low_45_down,black_low_135_down,10,left,0.341779,1,10,22,0,TRUE,9,1,1,1,TRUE,FALSE,low_1,0.75,-1,3,,,,,,,,,,,165,2,3.2.2021,164.8921523
217,"['low', 3]",3,black,45,right,down,low,black_low_45_down,white_low_135_down,1,right,0.1262477,1,1,19,1,FALSE,8,1,1,1,TRUE,FALSE,low_3,0.75,-1,3,,,,,,,,,,,165,2,3.2.2021,164.8921523
218,"['high', 3]",3,black,135,left,up,high,black_high_135_up,white_high_45_up,9,left,0.5809647,1,9,19,1,TRUE,8,1,1,1,TRUE,FALSE,high_3,0.75,-1,3,,,,,,,,,,,165,2,3.2.2021,164.8921523
219,"['low', 4]",4,white,135,right,down,low,white_low_135_down,black_low_45_down,1,right,0.2619066,1,1,22,1,FALSE,4,0,1,1,TRUE,FALSE,low_4,0.75,-1,3,,,,,,,,,,,165,2,3.2.2021,164.8921523
220,"['low', 1]",1,black,45,right,down,low,black_low_45_down,white_low_135_down,9,right,0.314799,1,9,23,1,TRUE,10,1,1,1,TRUE,FALSE,low_1,0.75,-1,3,,,,,,,,,,,165,2,3.2.2021,164.8921523
221,"['low', 6]",6,white,135,right,down,low,white_low_135_down,black_low_45_down,1,right,0.2282286,1,1,24,1,FALSE,6,1,1,1,TRUE,FALSE,low_6,0.75,-1,3,,,,,,,,,,,165,2,3.2.2021,164.8921523
222,"['high', 2]",2,black,135,left,down,high,black_high_135_down,white_high_45_down,11,right,0.0908223,0,11,21,1,TRUE,6,1,1,1,TRUE,FALSE,high_2,0.75,-1,3,,,,,,,,,,,165,2,3.2.2021,164.8921523
223,"['high', 4]",4,black,45,right,down,high,black_high_45_down,white_high_135_down,4,right,0.3662194,1,4,20,1,FALSE,6,1,1,1,TRUE,FALSE,high_4,0.75,-1,3,,,,,,,,,,,165,2,3.2.2021,164.8921523
224,"['high', 4]",4,white,135,right,down,high,white_high_135_down,black_high_45_down,3,right,0.0789138,1,3,21,1,FALSE,6,1,1,1,TRUE,FALSE,high_4,0.75,-1,3,,,,,,,,,,,165,2,3.2.2021,164.8921523
225,"['low', 4]",4,black,135,left,up,low,black_low_135_up,white_low_45_up,1,left,0.5020823,1,1,23,1,FALSE,4,0,1,1,TRUE,FALSE,low_4,0.75,-1,3,,,,,,,,,,,165,2,3.2.2021,164.8921523
226,"['low', 3]",3,white,135,right,up,low,white_low_135_up,black_low_45_up,1,right,0.1292111,1,1,20,1,FALSE,8,1,1,1,TRUE,FALSE,low_3,0.75,-1,3,,,,,,,,,,,165,2,3.2.2021,164.8921523
227,"['low', 3]",3,black,135,left,up,low,black_low_135_up,white_low_45_up,1,right,0.4137338,0,1,21,1,FALSE,8,1,1,1,TRUE,FALSE,low_3,0.75,-1,3,,,,,,,,,,,165,2,3.2.2021,164.8921523
228,"['low', 1]",1,black,135,left,down,low,black_low_135_down,white_low_45_down,8,right,0.3963001,0,8,24,1,FALSE,10,1,1,1,TRUE,FALSE,low_1,0.75,-1,3,,,,,,,,,,,165,2,3.2.2021,164.8921523
229,"['low', 2]",2,white,45,left,down,low,white_low_45_down,black_low_135_down,9,left,0.1271514,1,9,23,1,TRUE,12,1,1,1,TRUE,FALSE,low_2,0.75,-1,3,,,,,,,,,,,165,2,3.2.2021,164.8921523
230,"['high', 6]",6,black,135,left,down,high,black_high_135_down,white_high_45_down,2,left,0.1524401,1,2,26,1,FALSE,9,1,1,1,TRUE,FALSE,high_6,0.75,-1,3,,,,,,,,,,,165,2,3.2.2021,164.8921523
231,"['low', 3]",3,white,135,right,down,low,white_low_135_down,black_low_45_down,4,right,0.1074283,1,4,22,0,TRUE,9,1,1,1,TRUE,FALSE,low_3,0.75,-1,3,,,,,,,,,,,165,2,3.2.2021,164.8921523
232,"['low', 6]",6,white,135,right,up,low,white_low_135_up,black_low_45_up,1,right,0.1582602,1,1,25,1,FALSE,6,1,1,1,TRUE,FALSE,low_6,0.75,-1,3,,,,,,,,,,,165,2,3.2.2021,164.8921523
233,"['high', 2]",2,black,45,right,down,high,black_high_45_down,white_high_135_down,14,right,0.3079518,1,14,22,0,TRUE,7,1,1,1,TRUE,FALSE,high_2,0.75,-1,3,,,,,,,,,,,165,2,3.2.2021,164.8921523
234,"['high', 1]",1,black,135,left,down,high,black_high_135_down,white_high_45_down,20,left,0.3713602,1,20,20,1,TRUE,10,1,1,1,TRUE,FALSE,high_1,0.75,-1,3,,,,,,,,,,,165,2,3.2.2021,164.8921523
235,"['low', 6]",6,white,135,right,up,low,white_low_135_up,black_low_45_up,1,right,0.2491326,1,1,26,1,FALSE,6,1,1,1,TRUE,FALSE,low_6,0.75,-1,3,,,,,,,,,,,165,2,3.2.2021,164.8921523
236,"['low', 3]",3,black,45,right,down,low,black_low_45_down,white_low_135_down,3,right,0.4176213,1,3,23,1,TRUE,10,1,1,1,TRUE,FALSE,low_3,0.75,-1,3,,,,,,,,,,,165,2,3.2.2021,164.8921523
237,"['high', 1]",1,black,45,right,down,high,black_high_45_down,white_high_135_down,19,right,0.066133,1,19,21,1,FALSE,10,1,1,1,TRUE,FALSE,high_1,0.75,-1,3,,,,,,,,,,,165,2,3.2.2021,164.8921523
238,"['high', 4]",4,white,45,left,up,high,white_high_45_up,black_high_135_up,2,right,0.2147762,0,2,22,1,FALSE,6,1,1,1,TRUE,FALSE,high_4,0.75,-1,3,,,,,,,,,,,165,2,3.2.2021,164.8921523
239,"['low', 4]",4,white,45,left,up,low,white_low_45_up,black_low_135_up,1,right,0.2918506,0,1,24,1,FALSE,4,0,1,1,TRUE,FALSE,low_4,0.75,-1,3,,,,,,,,,,,165,2,3.2.2021,164.8921523
240,"['high', 1]",1,white,135,right,up,high,white_high_135_up,black_high_45_up,18,right,0.361747,1,18,22,1,FALSE,10,1,1,1,TRUE,FALSE,high_1,0.75,-1,3,,,,,,,,,,,165,2,3.2.2021,164.8921523
241,"['high', 1]",1,white,45,left,up,high,white_high_45_up,black_high_135_up,17,right,0.7721675,0,17,23,1,FALSE,10,1,1,1,TRUE,FALSE,high_1,0.75,-1,3,,,,,,,,,,,165,2,3.2.2021,164.8921523
242,"['high', 4]",4,black,135,left,up,high,black_high_135_up,white_high_45_up,5,right,0.274625,0,5,23,0,TRUE,7,1,1,1,TRUE,FALSE,high_4,0.75,-1,3,,,,,,,,,,,165,2,3.2.2021,164.8921523
243,"['high', 1]",1,black,45,right,up,high,black_high_45_up,white_high_135_up,20,right,0.0952586,1,20,24,0,TRUE,11,1,1,1,TRUE,FALSE,high_1,0.75,-1,3,,,,,,,,,,,165,2,3.2.2021,164.8921523
244,"['low', 2]",2,white,45,left,up,low,white_low_45_up,black_low_135_up,8,left,0.1638983,1,8,24,1,FALSE,12,1,1,1,TRUE,FALSE,low_2,0.75,-1,3,,,,,,,,,,,165,2,3.2.2021,164.8921523
245,"['high', 4]",4,white,45,left,up,high,white_high_45_up,black_high_135_up,8,left,0.2433011,1,8,24,0,FALSE,7,1,1,1,TRUE,FALSE,high_4,0.75,-1,3,,,,,,,,,,,165,2,3.2.2021,164.8921523
246,"['low', 3]",3,white,45,left,down,low,white_low_45_down,black_low_135_down,2,right,0.2234134,0,2,24,1,FALSE,10,1,1,1,TRUE,FALSE,low_3,0.75,-1,3,,,,,,,,,,,165,2,3.2.2021,164.8921523
247,"['low', 3]",3,white,45,left,down,low,white_low_45_down,black_low_135_down,5,left,0.1434163,1,5,25,0,TRUE,11,1,1,1,TRUE,FALSE,low_3,0.75,-1,3,,,,,,,,,,,165,2,3.2.2021,164.8921523
248,"['low', 1]",1,white,45,left,up,low,white_low_45_up,black_low_135_up,11,left,0.2155582,1,11,25,0,TRUE,11,1,1,1,TRUE,FALSE,low_1,0.75,-1,3,,,,,,,,,,,165,2,3.2.2021,164.8921523
249,"['high', 1]",1,black,45,right,down,high,black_high_45_down,white_high_135_down,19,right,0.1074706,1,19,25,1,TRUE,12,1,1,1,TRUE,FALSE,high_1,0.75,-1,3,,,,,,,,,,,165,2,3.2.2021,164.8921523
250,"['low', 3]",3,white,45,left,down,low,white_low_45_down,black_low_135_down,4,left,0.582639,1,4,26,1,TRUE,12,1,1,1,TRUE,FALSE,low_3,0.75,-1,3,,,,,,,,,,,165,2,3.2.2021,164.8921523
251,"['high', 6]",6,black,45,right,down,high,black_high_45_down,white_high_135_down,1,right,0.1061395,1,1,27,1,FALSE,9,1,1,1,TRUE,FALSE,high_6,0.75,-1,3,,,,,,,,,,,165,2,3.2.2021,164.8921523
252,"['low', 2]",2,black,135,left,up,low,black_low_135_up,white_low_45_up,7,left,0.2886931,1,7,25,1,FALSE,12,1,1,1,TRUE,FALSE,low_2,0.75,-1,3,,,,,,,,,,,165,2,3.2.2021,164.8921523
253,"['high', 6]",6,black,135,left,down,high,black_high_135_down,white_high_45_down,1,right,0.3021745,0,1,28,1,FALSE,9,1,1,1,TRUE,FALSE,high_6,0.75,-1,3,,,,,,,,,,,165,2,3.2.2021,164.8921523
254,"['low', 2]",2,black,135,left,up,low,black_low_135_up,white_low_45_up,6,left,0.1564129,1,6,26,1,FALSE,12,1,1,1,TRUE,FALSE,low_2,0.75,-1,3,,,,,,,,,,,165,2,3.2.2021,164.8921523
255,"['high', 6]",6,black,45,right,up,high,black_high_45_up,white_high_135_up,4,right,0.128728,1,4,29,0,TRUE,10,1,1,1,TRUE,FALSE,high_6,0.75,-1,3,,,,,,,,,,,165,2,3.2.2021,164.8921523
256,"['high', 4]",4,black,135,left,up,high,black_high_135_up,white_high_45_up,7,left,0.2659176,1,7,25,1,TRUE,8,1,1,1,TRUE,FALSE,high_4,0.75,-1,3,,,,,,,,,,,165,2,3.2.2021,164.8921523
257,"['high', 4]",4,white,45,left,up,high,white_high_45_up,black_high_135_up,6,left,0.231799,1,6,26,1,FALSE,8,1,1,1,TRUE,FALSE,high_4,0.75,-1,3,,,,,,,,,,,165,2,3.2.2021,164.8921523
258,"['low', 3]",3,black,135,left,up,low,black_low_135_up,white_low_45_up,3,left,0.276868,1,3,27,1,FALSE,12,1,1,1,TRUE,FALSE,low_3,0.75,-1,3,,,,,,,,,,,165,2,3.2.2021,164.8921523
259,"['low', 2]",2,white,135,right,down,low,white_low_135_down,black_low_45_down,5,left,0.062462,0,5,27,1,FALSE,12,1,1,1,TRUE,FALSE,low_2,0.75,-1,3,,,,,,,,,,,165,2,3.2.2021,164.8921523
260,"['low', 2]",2,black,135,left,down,low,black_low_135_down,white_low_45_down,8,left,0.3849692,1,8,28,0,TRUE,13,1,1,1,TRUE,FALSE,low_2,0.75,-1,3,,,,,,,,,,,165,2,3.2.2021,164.8921523
261,"['high', 6]",6,white,135,right,down,high,white_high_135_down,black_high_45_down,3,right,0.1435702,1,3,30,1,TRUE,11,1,1,1,TRUE,FALSE,high_6,0.75,-1,3,,,,,,,,,,,165,2,3.2.2021,164.8921523
262,"['low', 4]",4,black,135,left,down,low,black_low_135_down,white_low_45_down,4,right,0.3112685,0,4,25,0,TRUE,5,1,1,1,TRUE,FALSE,low_4,0.75,-1,3,,,,,,,,,,,165,2,3.2.2021,164.8921523
263,"['low', 6]",6,black,45,right,down,low,black_low_45_down,white_low_135_down,1,right,0.1934488,1,1,27,1,FALSE,6,1,1,1,TRUE,FALSE,low_6,0.75,-1,3,,,,,,,,,,,165,2,3.2.2021,164.8921523
264,"['high', 4]",4,black,45,right,down,high,black_high_45_down,white_high_135_down,5,right,0.2236137,1,5,27,1,FALSE,8,1,1,1,TRUE,FALSE,high_4,0.75,-1,3,,,,,,,,,,,165,2,3.2.2021,164.8921523
265,"['high', 6]",6,black,45,right,up,high,black_high_45_up,white_high_135_up,2,right,0.2195314,1,2,31,1,FALSE,11,1,1,1,TRUE,FALSE,high_6,0.75,-1,3,,,,,,,,,,,165,2,3.2.2021,164.8921523
266,"['high', 6]",6,black,45,right,up,high,black_high_45_up,white_high_135_up,1,right,0.5443495,1,1,32,1,FALSE,11,1,1,1,TRUE,FALSE,high_6,0.75,-1,3,,,,,,,,,,,165,2,3.2.2021,164.8921523
267,"['high', 1]",1,black,135,left,up,high,black_high_135_up,white_high_45_up,18,left,0.3390341,1,18,26,1,FALSE,12,1,1,1,TRUE,FALSE,high_1,0.75,-1,3,,,,,,,,,,,165,2,3.2.2021,164.8921523
268,"['low', 6]",6,black,135,left,down,low,black_low_135_down,white_low_45_down,1,left,0.0618327,1,1,28,1,FALSE,6,1,1,1,TRUE,FALSE,low_6,0.75,-1,3,,,,,,,,,,,165,2,3.2.2021,164.8921523
269,"['high', 1]",1,white,135,right,up,high,white_high_135_up,black_high_45_up,17,right,0.3464576,1,17,27,1,FALSE,12,1,1,1,TRUE,FALSE,high_1,0.75,-1,3,,,,,,,,,,,165,2,3.2.2021,164.8921523
270,"['high', 2]",2,white,45,left,down,high,white_high_45_down,black_high_135_down,13,left,0.1477743,1,13,23,1,TRUE,8,1,1,1,TRUE,FALSE,high_2,0.75,-1,3,,,,,,,,,,,165,2,3.2.2021,164.8921523
271,"['high', 1]",1,black,45,right,down,high,black_high_45_down,white_high_135_down,16,left,0.3693679,0,16,28,1,FALSE,12,1,1,1,TRUE,FALSE,high_1,0.75,-1,3,,,,,,,,,,,165,2,3.2.2021,164.8921523
272,"['low', 4]",4,white,135,right,up,low,white_low_135_up,black_low_45_up,7,right,0.1908888,1,7,26,0,FALSE,5,1,1,1,TRUE,FALSE,low_4,0.75,-1,3,,,,,,,,,,,165,2,3.2.2021,164.8921523
273,"['high', 1]",1,white,135,right,down,high,white_high_135_down,black_high_45_down,19,right,0.0674591,1,19,29,0,TRUE,13,1,1,1,TRUE,FALSE,high_1,0.75,-1,3,,,,,,,,,,,165,2,3.2.2021,164.8921523
274,"['high', 6]",6,black,45,right,up,high,black_high_45_up,white_high_135_up,1,right,0.1822763,1,1,33,1,FALSE,11,1,1,1,TRUE,FALSE,high_6,0.75,-1,3,,,,,,,,,,,165,2,3.2.2021,164.8921523
275,"['low', 6]",6,black,45,right,up,low,black_low_45_up,white_low_135_up,1,right,0.0877428,1,1,29,1,FALSE,6,1,1,1,TRUE,FALSE,low_6,0.75,-1,3,,,,,,,,,,,165,2,3.2.2021,164.8921523
276,"['high', 2]",2,white,45,left,down,high,white_high_45_down,black_high_135_down,12,right,0.3036212,0,12,24,1,FALSE,8,1,1,1,TRUE,FALSE,high_2,0.75,-1,3,,,,,,,,,,,165,2,3.2.2021,164.8921523
277,"['high', 2]",2,white,45,left,up,high,white_high_45_up,black_high_135_up,15,left,0.1066501,1,15,25,0,TRUE,9,1,1,1,TRUE,FALSE,high_2,0.75,-1,3,,,,,,,,,,,165,2,3.2.2021,164.8921523
278,"['low', 3]",3,black,135,left,down,low,black_low_135_down,white_low_45_down,2,right,0.0132939,0,2,28,1,FALSE,12,1,1,1,TRUE,FALSE,low_3,0.75,-1,3,,,,,,,,,,,165,2,3.2.2021,164.8921523
279,"['low', 1]",1,white,135,right,down,low,white_low_135_down,black_low_45_down,10,right,0.4673368,1,10,26,1,TRUE,12,1,1,1,TRUE,FALSE,low_1,0.75,-1,3,,,,,,,,,,,165,2,3.2.2021,164.8921523
280,"['low', 3]",3,black,45,right,down,low,black_low_45_down,white_low_135_down,5,right,0.4383392,1,5,29,0,TRUE,13,1,1,1,TRUE,FALSE,low_3,0.75,-1,3,,,,,,,,,,,165,2,3.2.2021,164.8921523
281,"['low', 2]",2,white,135,right,down,low,white_low_135_down,black_low_45_down,7,right,0.394539,1,7,29,1,TRUE,14,1,1,1,TRUE,FALSE,low_2,0.75,-1,3,,,,,,,,,,,165,2,3.2.2021,164.8921523
282,"['high', 6]",6,white,135,right,down,high,white_high_135_down,black_high_45_down,1,right,0.1037365,1,1,34,1,FALSE,11,1,1,1,TRUE,FALSE,high_6,0.75,-1,3,,,,,,,,,,,165,2,3.2.2021,164.8921523
283,"['low', 4]",4,white,135,right,down,low,white_low_135_down,black_low_45_down,6,right,0.4293069,1,6,27,1,TRUE,6,1,1,1,TRUE,FALSE,low_4,0.75,-1,3,,,,,,,,,,,165,2,3.2.2021,164.8921523
284,"['high', 4]",4,black,135,left,up,high,black_high_135_up,white_high_45_up,4,right,0.2161939,0,4,28,1,FALSE,8,1,1,1,TRUE,FALSE,high_4,0.75,-1,3,,,,,,,,,,,165,2,3.2.2021,164.8921523
285,"['low', 6]",6,black,45,right,down,low,black_low_45_down,white_low_135_down,1,right,0.0160579,1,1,30,1,FALSE,6,1,1,1,TRUE,FALSE,low_6,0.75,-1,3,,,,,,,,,,,165,2,3.2.2021,164.8921523
286,"['high', 2]",2,white,45,left,up,high,white_high_45_up,black_high_135_up,14,left,0.3967659,1,14,26,1,TRUE,10,1,1,1,TRUE,FALSE,high_2,0.75,-1,3,,,,,,,,,,,165,2,3.2.2021,164.8921523
287,"['high', 3]",3,white,135,right,up,high,white_high_135_up,black_high_45_up,8,right,0.1887227,1,8,20,1,FALSE,8,1,1,1,TRUE,FALSE,high_3,0.75,-1,3,,,,,,,,,,,165,2,3.2.2021,164.8921523
288,"['high', 3]",3,white,135,right,up,high,white_high_135_up,black_high_45_up,7,right,0.2650959,1,7,21,1,FALSE,8,1,1,1,TRUE,FALSE,high_3,0.75,-1,3,,,,,,,,,,,165,2,3.2.2021,164.8921523
289,"['low', 3]",3,black,135,left,up,low,black_low_135_up,white_low_45_up,4,left,0.2664603,1,4,30,1,TRUE,14,1,1,1,TRUE,FALSE,low_3,0.75,-1,3,,,,,,,,,,,165,2,3.2.2021,164.8921523
290,"['high', 3]",3,white,135,right,up,high,white_high_135_up,black_high_45_up,6,right,0.063027,1,6,22,1,FALSE,8,1,1,1,TRUE,FALSE,high_3,0.75,-1,3,,,,,,,,,,,165,2,3.2.2021,164.8921523
291,"['low', 2]",2,white,135,right,down,low,white_low_135_down,black_low_45_down,6,right,0.0839773,1,6,30,1,FALSE,14,1,1,1,TRUE,FALSE,low_2,0.75,-1,3,,,,,,,,,,,165,2,3.2.2021,164.8921523
292,"['low', 4]",4,black,135,left,up,low,black_low_135_up,white_low_45_up,5,left,0.2394612,1,5,28,1,FALSE,6,1,1,1,TRUE,FALSE,low_4,0.75,-1,3,,,,,,,,,,,165,2,3.2.2021,164.8921523
293,"['low', 1]",1,black,135,left,down,low,black_low_135_down,white_low_45_down,9,left,0.2094199,1,9,27,1,FALSE,12,1,1,1,TRUE,FALSE,low_1,0.75,-1,3,,,,,,,,,,,165,2,3.2.2021,164.8921523
294,"['low', 6]",6,white,45,left,down,low,white_low_45_down,black_low_135_down,1,left,0.031025,1,1,31,1,FALSE,6,1,1,1,TRUE,FALSE,low_6,0.75,-1,3,,,,,,,,,,,165,2,3.2.2021,164.8921523
295,"['low', 4]",4,white,45,left,up,low,white_low_45_up,black_low_135_up,4,left,0.2341809,1,4,29,1,FALSE,6,1,1,1,TRUE,FALSE,low_4,0.75,-1,3,,,,,,,,,,,165,2,3.2.2021,164.8921523
296,"['low', 3]",3,white,135,right,down,low,white_low_135_down,black_low_45_down,3,right,0.1465044,1,3,31,1,FALSE,14,1,1,1,TRUE,FALSE,low_3,0.75,-1,3,,,,,,,,,,,165,2,3.2.2021,164.8921523
297,"['low', 2]",2,white,135,right,up,low,white_low_135_up,black_low_45_up,5,right,0.0719948,1,5,31,1,FALSE,14,1,1,1,TRUE,FALSE,low_2,0.75,-1,3,,,,,,,,,,,165,2,3.2.2021,164.8921523
298,"['low', 6]",6,white,135,right,down,low,white_low_135_down,black_low_45_down,1,right,0.0054995,1,1,32,1,FALSE,6,1,1,1,TRUE,FALSE,low_6,0.75,-1,3,,,,,,,,,,,165,2,3.2.2021,164.8921523
299,"['low', 2]",2,black,45,right,down,low,black_low_45_down,white_low_135_down,4,right,0.1866098,1,4,32,1,FALSE,14,1,1,1,TRUE,FALSE,low_2,0.75,-1,3,,,,,,,,,,,165,2,3.2.2021,164.8921523
300,"['high', 4]",4,white,135,right,up,high,white_high_135_up,black_high_45_up,7,right,0.1718896,1,7,29,0,TRUE,9,1,1,1,TRUE,FALSE,high_4,0.75,-1,3,,,,,,,,,,,165,2,3.2.2021,164.8921523
301,"['high', 6]",6,black,135,left,down,high,black_high_135_down,white_high_45_down,1,right,0.0699879,0,1,35,1,FALSE,11,1,1,1,TRUE,FALSE,high_6,0.75,-1,3,,,,,,,,,,,165,2,3.2.2021,164.8921523
302,"['high', 4]",4,black,45,right,up,high,black_high_45_up,white_high_135_up,6,right,0.2220482,1,6,30,1,TRUE,10,1,1,1,TRUE,FALSE,high_4,0.75,-1,3,,,,,,,,,,,165,2,3.2.2021,164.8921523
303,"['low', 1]",1,black,135,left,down,low,black_low_135_down,white_low_45_down,8,left,0.5056544,1,8,28,1,FALSE,12,1,1,1,TRUE,FALSE,low_1,0.75,-1,3,,,,,,,,,,,165,2,3.2.2021,164.8921523
304,"['low', 1]",1,black,135,left,down,low,black_low_135_down,white_low_45_down,7,left,0.3010279,1,7,29,1,FALSE,12,1,1,1,TRUE,FALSE,low_1,0.75,-1,3,,,,,,,,,,,165,2,3.2.2021,164.8921523
305,"['high', 6]",6,white,45,left,up,high,white_high_45_up,black_high_135_up,4,left,1.1739375,1,4,36,0,TRUE,12,1,1,1,TRUE,FALSE,high_6,0.75,-1,3,,,,,,,,,,,165,2,3.2.2021,164.8921523
306,"['high', 4]",4,white,135,right,down,high,white_high_135_down,black_high_45_down,5,right,0.3795683,1,5,31,1,FALSE,10,1,1,1,TRUE,FALSE,high_4,0.75,-1,3,,,,,,,,,,,165,2,3.2.2021,164.8921523
307,"['low', 6]",6,white,45,left,down,low,white_low_45_down,black_low_135_down,1,left,0.1618,1,1,33,1,FALSE,6,1,1,1,TRUE,FALSE,low_6,0.75,-1,3,,,,,,,,,,,165,2,3.2.2021,164.8921523
308,"['high', 1]",1,black,135,left,up,high,black_high_135_up,white_high_45_up,18,left,0.2506542,1,18,30,1,TRUE,14,1,1,1,TRUE,FALSE,high_1,0.75,-1,3,,,,,,,,,,,165,2,3.2.2021,164.8921523
309,"['low', 3]",3,white,135,right,down,low,white_low_135_down,black_low_45_down,2,right,0.4556502,1,2,32,1,FALSE,14,1,1,1,TRUE,FALSE,low_3,0.75,-1,3,,,,,,,,,,,165,2,3.2.2021,164.8921523
310,"['high', 4]",4,black,45,right,down,high,black_high_45_down,white_high_135_down,4,left,0.4123526,0,4,32,1,FALSE,10,1,1,1,TRUE,FALSE,high_4,0.75,-1,3,,,,,,,,,,,165,2,3.2.2021,164.8921523
311,"['high', 6]",6,white,45,left,up,high,white_high_45_up,black_high_135_up,3,left,0.0386776,1,3,37,1,TRUE,13,1,1,1,TRUE,FALSE,high_6,0.75,-1,3,,,,,,,,,,,165,2,3.2.2021,164.8921523
312,"['low', 1]",1,white,45,left,up,low,white_low_45_up,black_low_135_up,6,left,0.0083177,1,6,30,1,FALSE,12,1,1,1,TRUE,FALSE,low_1,0.75,-1,3,,,,,,,,,,,165,2,3.2.2021,164.8921523
313,"['high', 3]",3,black,45,right,up,high,black_high_45_up,white_high_135_up,5,right,0.7473123,1,5,23,1,FALSE,8,1,1,1,TRUE,FALSE,high_3,0.75,-1,3,,,,,,,,,,,165,2,3.2.2021,164.8921523
314,"['high', 1]",1,white,135,right,down,high,white_high_135_down,black_high_45_down,17,left,0.2573212,0,17,31,1,FALSE,14,1,1,1,TRUE,FALSE,high_1,0.75,-1,3,,,,,,,,,,,165,2,3.2.2021,164.8921523
315,"['low', 3]",3,black,135,left,up,low,black_low_135_up,white_low_45_up,1,left,0.2133185,1,1,33,1,FALSE,14,1,1,1,TRUE,FALSE,low_3,0.75,-1,3,,,,,,,,,,,165,2,3.2.2021,164.8921523
316,"['high', 4]",4,white,45,left,down,high,white_high_45_down,black_high_135_down,7,left,0.3781356,1,7,33,0,TRUE,11,1,1,1,TRUE,FALSE,high_4,0.75,-1,3,,,,,,,,,,,165,2,3.2.2021,164.8921523
317,"['low', 6]",6,black,45,right,down,low,black_low_45_down,white_low_135_down,1,right,0.4176658,1,1,34,1,FALSE,6,1,1,1,TRUE,FALSE,low_6,0.75,-1,3,,,,,,,,,,,165,2,3.2.2021,164.8921523
318,"['low', 3]",3,black,45,right,down,low,black_low_45_down,white_low_135_down,1,right,0.0574508,1,1,34,1,FALSE,14,1,1,1,TRUE,FALSE,low_3,0.75,-1,3,,,,,,,,,,,165,2,3.2.2021,164.8921523
319,"['high', 3]",3,black,135,left,down,high,black_high_135_down,white_high_45_down,4,left,0.030826,1,4,24,1,FALSE,8,1,1,1,TRUE,FALSE,high_3,0.75,-1,3,,,,,,,,,,,165,2,3.2.2021,164.8921523
320,"['high', 3]",3,black,135,left,up,high,black_high_135_up,white_high_45_up,3,left,0.0763186,1,3,25,1,FALSE,8,1,1,1,TRUE,FALSE,high_3,0.75,-1,3,,,,,,,,,,,165,2,3.2.2021,164.8921523
321,"['low', 4]",4,white,135,right,up,low,white_low_135_up,black_low_45_up,3,right,0.3549458,1,3,30,1,FALSE,6,1,1,1,TRUE,FALSE,low_4,0.75,-1,3,,,,,,,,,,,165,2,3.2.2021,164.8921523
322,"['low', 6]",6,white,45,left,up,low,white_low_45_up,black_low_135_up,1,left,0.3066882,1,1,35,1,FALSE,6,1,1,1,TRUE,FALSE,low_6,0.75,-1,3,,,,,,,,,,,165,2,3.2.2021,164.8921523
323,"['low', 2]",2,white,135,right,down,low,white_low_135_down,black_low_45_down,3,right,0.2179943,1,3,33,1,FALSE,14,1,1,1,TRUE,FALSE,low_2,0.75,-1,3,,,,,,,,,,,165,2,3.2.2021,164.8921523
324,"['high', 3]",3,black,45,right,down,high,black_high_45_down,white_high_135_down,2,left,0.2936332,0,2,26,1,FALSE,8,1,1,1,TRUE,FALSE,high_3,0.75,-1,3,,,,,,,,,,,165,2,3.2.2021,164.8921523
325,"['low', 1]",1,black,45,right,up,low,black_low_45_up,white_low_135_up,5,left,0.3635081,0,5,31,1,FALSE,12,1,1,1,TRUE,FALSE,low_1,0.75,-1,3,,,,,,,,,,,165,2,3.2.2021,164.8921523
326,"['high', 4]",4,white,45,left,down,high,white_high_45_down,black_high_135_down,6,left,0.0529644,1,6,34,1,TRUE,12,1,1,1,TRUE,FALSE,high_4,0.75,-1,3,,,,,,,,,,,165,2,3.2.2021,164.8921523
327,"['low', 1]",1,white,135,right,up,low,white_low_135_up,black_low_45_up,8,right,0.2454556,1,8,32,0,TRUE,13,1,1,1,TRUE,FALSE,low_1,0.75,-1,3,,,,,,,,,,,165,2,3.2.2021,164.8921523
328,"['low', 1]",1,black,135,left,down,low,black_low_135_down,white_low_45_down,7,right,0.2754676,0,7,33,1,TRUE,14,1,1,1,TRUE,FALSE,low_1,0.75,-1,3,,,,,,,,,,,165,2,3.2.2021,164.8921523
329,"['high', 3]",3,black,135,left,down,high,black_high_135_down,white_high_45_down,5,left,0.3483684,1,5,27,0,TRUE,9,1,1,1,TRUE,FALSE,high_3,0.75,-1,3,,,,,,,,,,,165,2,3.2.2021,164.8921523
330,"['high', 2]",2,white,135,right,up,high,white_high_135_up,black_high_45_up,13,right,0.3091717,1,13,27,1,FALSE,10,1,1,1,TRUE,FALSE,high_2,0.75,-1,3,,,,,,,,,,,165,2,3.2.2021,164.8921523
331,"['high', 3]",3,white,45,left,down,high,white_high_45_down,black_high_135_down,4,right,0.3641078,0,4,28,1,TRUE,10,1,1,1,TRUE,FALSE,high_3,0.75,-1,3,,,,,,,,,,,165,2,3.2.2021,164.8921523
332,"['low', 4]",4,white,45,left,up,low,white_low_45_up,black_low_135_up,2,left,0.2795742,1,2,31,1,FALSE,6,1,1,1,TRUE,FALSE,low_4,0.75,-1,3,,,,,,,,,,,165,2,3.2.2021,164.8921523
333,"['high', 4]",4,white,135,right,down,high,white_high_135_down,black_high_45_down,5,right,0.6046922,1,5,35,1,FALSE,12,1,1,1,TRUE,FALSE,high_4,0.75,-1,3,,,,,,,,,,,165,2,3.2.2021,164.8921523
334,"['high', 2]",2,white,45,left,up,high,white_high_45_up,black_high_135_up,12,left,0.4023873,1,12,28,1,FALSE,10,1,1,1,TRUE,FALSE,high_2,0.75,-1,3,,,,,,,,,,,165,2,3.2.2021,164.8921523
335,"['high', 3]",3,white,135,right,up,high,white_high_135_up,black_high_45_up,7,right,0.0555782,1,7,29,0,TRUE,11,1,1,1,TRUE,FALSE,high_3,0.75,-1,3,,,,,,,,,,,165,2,3.2.2021,164.8921523
336,"['low', 2]",2,black,45,right,up,low,black_low_45_up,white_low_135_up,2,right,0.0189093,1,2,34,1,FALSE,14,1,1,1,TRUE,FALSE,low_2,0.75,-1,3,,,,,,,,,,,165,2,3.2.2021,164.8921523
337,"['high', 3]",3,black,45,right,up,high,black_high_45_up,white_high_135_up,6,left,0.6655293,0,6,30,1,TRUE,12,1,1,1,TRUE,FALSE,high_3,0.75,-1,3,,,,,,,,,,,165,2,3.2.2021,164.8921523
338,"['low', 1]",1,white,45,left,down,low,white_low_45_down,black_low_135_down,10,left,0.0718349,1,10,34,0,TRUE,15,1,1,1,TRUE,FALSE,low_1,0.75,-1,3,,,,,,,,,,,165,2,3.2.2021,164.8921523
339,"['high', 2]",2,black,45,right,down,high,black_high_45_down,white_high_135_down,11,left,0.13462,0,11,29,1,FALSE,10,1,1,1,TRUE,FALSE,high_2,0.75,-1,3,,,,,,,,,,,165,2,3.2.2021,164.8921523
340,"['high', 4]",4,white,45,left,up,high,white_high_45_up,black_high_135_up,4,left,0.0779575,1,4,36,1,FALSE,12,1,1,1,TRUE,FALSE,high_4,0.75,-1,3,,,,,,,,,,,165,2,3.2.2021,164.8921523
341,"['low', 4]",4,black,45,right,up,low,black_low_45_up,white_low_135_up,1,right,0.4808382,1,1,32,1,FALSE,6,1,1,1,TRUE,FALSE,low_4,0.75,-1,3,,,,,,,,,,,165,2,3.2.2021,164.8921523
342,"['high', 1]",1,white,135,right,down,high,white_high_135_down,black_high_45_down,20,right,0.0357801,1,20,32,0,TRUE,15,1,1,1,TRUE,FALSE,high_1,0.75,-1,3,,,,,,,,,,,165,2,3.2.2021,164.8921523
343,"['high', 4]",4,black,135,left,down,high,black_high_135_down,white_high_45_down,3,left,0.1102962,1,3,37,1,FALSE,12,1,1,1,TRUE,FALSE,high_4,0.75,-1,3,,,,,,,,,,,165,2,3.2.2021,164.8921523
344,"['low', 4]",4,white,45,left,up,low,white_low_45_up,black_low_135_up,1,left,0.2562888,1,1,33,1,FALSE,6,1,1,1,TRUE,FALSE,low_4,0.75,-1,3,,,,,,,,,,,165,2,3.2.2021,164.8921523
345,"['high', 3]",3,black,135,left,down,high,black_high_135_down,white_high_45_down,9,left,0.1016742,1,9,31,0,TRUE,13,1,1,1,TRUE,FALSE,high_3,0.75,-1,3,,,,,,,,,,,165,2,3.2.2021,164.8921523
346,"['low', 2]",2,black,135,left,down,low,black_low_135_down,white_low_45_down,1,right,0.2936296,0,1,35,1,FALSE,14,1,1,1,TRUE,FALSE,low_2,0.75,-1,3,,,,,,,,,,,165,2,3.2.2021,164.8921523
347,"['low', 4]",4,black,135,left,down,low,black_low_135_down,white_low_45_down,1,left,0.4756173,1,1,34,1,FALSE,6,1,1,1,TRUE,FALSE,low_4,0.75,-1,3,,,,,,,,,,,165,2,3.2.2021,164.8921523
348,"['low', 1]",1,white,135,right,down,low,white_low_135_down,black_low_45_down,9,right,0.2661182,1,9,35,1,TRUE,16,1,1,1,TRUE,FALSE,low_1,0.75,-1,3,,,,,,,,,,,165,2,3.2.2021,164.8921523
349,"['low', 2]",2,black,135,left,down,low,black_low_135_down,white_low_45_down,4,left,0.1459718,1,4,36,0,TRUE,15,1,1,1,TRUE,FALSE,low_2,0.75,-1,3,,,,,,,,,,,165,2,3.2.2021,164.8921523
350,"['low', 2]",2,white,45,left,up,low,white_low_45_up,black_low_135_up,3,right,0.4708428,0,3,37,1,TRUE,16,1,1,1,TRUE,FALSE,low_2,0.75,-1,3,,,,,,,,,,,165,2,3.2.2021,164.8921523
351,"['high', 1]",1,white,45,left,down,high,white_high_45_down,black_high_135_down,19,left,0.0783848,1,19,33,1,TRUE,16,1,1,1,TRUE,FALSE,high_1,0.75,-1,3,,,,,,,,,,,165,2,3.2.2021,164.8921523
352,"['low', 6]",6,white,135,right,down,low,white_low_135_down,black_low_45_down,1,right,0.3252539,1,1,36,1,FALSE,6,1,1,1,TRUE,FALSE,low_6,0.75,-1,3,,,,,,,,,,,165,2,3.2.2021,164.8921523
353,"['high', 2]",2,black,135,left,down,high,black_high_135_down,white_high_45_down,14,left,0.3802237,1,14,30,0,TRUE,11,1,1,1,TRUE,FALSE,high_2,0.75,-1,3,,,,,,,,,,,165,2,3.2.2021,164.8921523
354,"['high', 2]",2,black,45,right,up,high,black_high_45_up,white_high_135_up,13,right,0.3394919,1,13,31,1,TRUE,12,1,1,1,TRUE,FALSE,high_2,0.75,-1,3,,,,,,,,,,,165,2,3.2.2021,164.8921523
355,"['low', 4]",4,black,135,left,down,low,black_low_135_down,white_low_45_down,1,left,0.0570448,1,1,35,1,FALSE,6,1,1,1,TRUE,FALSE,low_4,0.75,-1,3,,,,,,,,,,,165,2,3.2.2021,164.8921523
356,"['low', 1]",1,white,135,right,up,low,white_low_135_up,black_low_45_up,8,right,0.296396,1,8,36,1,FALSE,16,1,1,1,TRUE,FALSE,low_1,0.75,-1,3,,,,,,,,,,,165,2,3.2.2021,164.8921523
357,"['low', 2]",2,black,45,right,down,low,black_low_45_down,white_low_135_down,6,right,0.2240911,1,6,38,0,TRUE,17,1,1,1,TRUE,FALSE,low_2,0.75,-1,3,,,,,,,,,,,165,2,3.2.2021,164.8921523
358,"['high', 2]",2,white,135,right,down,high,white_high_135_down,black_high_45_down,12,right,0.3554055,1,12,32,1,FALSE,12,1,1,1,TRUE,FALSE,high_2,0.75,-1,3,,,,,,,,,,,165,2,3.2.2021,164.8921523
359,"['high', 1]",1,white,45,left,down,high,white_high_45_down,black_high_135_down,18,right,0.1667492,0,18,34,1,FALSE,16,1,1,1,TRUE,FALSE,high_1,0.75,-1,3,,,,,,,,,,,165,2,3.2.2021,164.8921523
360,"['low', 2]",2,black,45,right,up,low,black_low_45_up,white_low_135_up,5,left,0.253368,0,5,39,1,TRUE,18,1,1,1,TRUE,FALSE,low_2,0.75,-1,3,,,,,,,,,,,165,2,3.2.2021,164.8921523
361,"['high', 4]",4,white,45,left,up,high,white_high_45_up,black_high_135_up,2,left,0.263714,1,2,38,1,FALSE,12,1,1,1,TRUE,FALSE,high_4,0.75,-1,3,,,,,,,,,,,165,2,3.2.2021,164.8921523
362,"['low', 2]",2,white,45,left,down,low,white_low_45_down,black_low_135_down,8,left,0.0890486,1,8,40,0,TRUE,19,1,1,1,TRUE,FALSE,low_2,0.75,-1,3,,,,,,,,,,,165,2,3.2.2021,164.8921523
363,"['low', 2]",2,white,45,left,up,low,white_low_45_up,black_low_135_up,7,left,0.2059185,1,7,41,1,TRUE,20,1,1,1,TRUE,FALSE,low_2,0.75,-1,3,,,,,,,,,,,165,2,3.2.2021,164.8921523
364,"['low', 4]",4,black,45,right,up,low,black_low_45_up,white_low_135_up,1,right,0.0438115,1,1,36,1,FALSE,6,1,1,1,TRUE,FALSE,low_4,0.75,-1,3,,,,,,,,,,,165,2,3.2.2021,164.8921523
365,"['low', 4]",4,black,135,left,up,low,black_low_135_up,white_low_45_up,1,left,0.3505555,1,1,37,1,FALSE,6,1,1,1,TRUE,FALSE,low_4,0.75,-1,3,,,,,,,,,,,165,2,3.2.2021,164.8921523
366,"['high', 1]",1,white,45,left,down,high,white_high_45_down,black_high_135_down,21,left,0.0299465,1,21,35,0,TRUE,17,1,1,1,TRUE,FALSE,high_1,0.75,-1,3,,,,,,,,,,,165,2,3.2.2021,164.8921523
367,"['high', 4]",4,black,45,right,up,high,black_high_45_up,white_high_135_up,1,right,0.3882578,1,1,39,1,FALSE,12,1,1,1,TRUE,FALSE,high_4,0.75,-1,3,,,,,,,,,,,165,2,3.2.2021,164.8921523
368,"['high', 4]",4,black,135,left,down,high,black_high_135_down,white_high_45_down,1,right,0.5930344,0,1,40,1,FALSE,12,1,1,1,TRUE,FALSE,high_4,0.75,-1,3,,,,,,,,,,,165,2,3.2.2021,164.8921523
369,"['low', 2]",2,white,135,right,down,low,white_low_135_down,black_low_45_down,6,right,0.1697909,1,6,42,1,FALSE,20,1,1,1,TRUE,FALSE,low_2,0.75,-1,3,,,,,,,,,,,165,2,3.2.2021,164.8921523
370,"['high', 2]",2,black,135,left,up,high,black_high_135_up,white_high_45_up,11,left,0.2560767,1,11,33,1,FALSE,12,1,1,1,TRUE,FALSE,high_2,0.75,-1,3,,,,,,,,,,,165,2,3.2.2021,164.8921523
371,"['high', 6]",6,black,135,left,up,high,black_high_135_up,white_high_45_up,2,left,0.3527445,1,2,38,1,FALSE,13,1,1,1,TRUE,FALSE,high_6,0.75,-1,3,,,,,,,,,,,165,2,3.2.2021,164.8921523
372,"['high', 1]",1,black,45,right,down,high,black_high_45_down,white_high_135_down,20,right,0.2726443,1,20,36,1,TRUE,18,1,1,1,TRUE,FALSE,high_1,0.75,-1,3,,,,,,,,,,,165,2,3.2.2021,164.8921523
373,"['low', 1]",1,black,45,right,down,low,black_low_45_down,white_low_135_down,7,right,0.6551617,1,7,37,1,FALSE,16,1,1,1,TRUE,FALSE,low_1,0.75,-1,3,,,,,,,,,,,165,2,3.2.2021,164.8921523
374,"['high', 1]",1,black,135,left,down,high,black_high_135_down,white_high_45_down,19,right,0.6172948,0,19,37,1,FALSE,18,1,1,1,TRUE,FALSE,high_1,0.75,-1,3,,,,,,,,,,,165,2,3.2.2021,164.8921523
375,"['high', 6]",6,black,45,right,down,high,black_high_45_down,white_high_135_down,1,right,0.4351829,1,1,39,1,FALSE,13,1,1,1,TRUE,FALSE,high_6,0.75,-1,3,,,,,,,,,,,165,2,3.2.2021,164.8921523
376,"['high', 6]",6,black,45,right,down,high,black_high_45_down,white_high_135_down,1,right,0.3673581,1,1,40,1,FALSE,13,1,1,1,TRUE,FALSE,high_6,0.75,-1,3,,,,,,,,,,,165,2,3.2.2021,164.8921523
377,"['low', 4]",4,white,45,left,down,low,white_low_45_down,black_low_135_down,1,left,0.3110202,1,1,38,1,FALSE,6,1,1,1,TRUE,FALSE,low_4,0.75,-1,3,,,,,,,,,,,165,2,3.2.2021,164.8921523
378,"['high', 2]",2,black,135,left,up,high,black_high_135_up,white_high_45_up,10,right,0.450709,0,10,34,1,FALSE,12,1,1,1,TRUE,FALSE,high_2,0.75,-1,3,,,,,,,,,,,165,2,3.2.2021,164.8921523
379,"['high', 4]",4,black,135,left,down,high,black_high_135_down,white_high_45_down,4,right,0.3334856,0,4,41,0,TRUE,13,1,1,1,TRUE,FALSE,high_4,0.75,-1,3,,,,,,,,,,,165,2,3.2.2021,164.8921523
380,"['low', 3]",3,white,135,right,down,low,white_low_135_down,black_low_45_down,1,left,0.4255442,0,1,35,1,FALSE,14,1,1,1,TRUE,FALSE,low_3,0.75,-1,3,,,,,,,,,,,165,2,3.2.2021,164.8921523
381,"['low', 6]",6,white,135,right,down,low,white_low_135_down,black_low_45_down,1,right,0.2496604,1,1,37,1,FALSE,6,1,1,1,TRUE,FALSE,low_6,0.75,-1,3,,,,,,,,,,,165,2,3.2.2021,164.8921523
382,"['high', 1]",1,black,135,left,down,high,black_high_135_down,white_high_45_down,22,left,0.2753972,1,22,38,0,TRUE,19,1,1,1,TRUE,FALSE,high_1,0.75,-1,3,,,,,,,,,,,165,2,3.2.2021,164.8921523
383,"['high', 2]",2,black,135,left,down,high,black_high_135_down,white_high_45_down,13,left,0.3011444,1,13,35,0,TRUE,13,1,1,1,TRUE,FALSE,high_2,0.75,-1,3,,,,,,,,,,,165,2,3.2.2021,164.8921523
384,"['low', 4]",4,white,45,left,down,low,white_low_45_down,black_low_135_down,1,right,0.3824161,0,1,39,1,FALSE,6,1,1,1,TRUE,FALSE,low_4,0.75,-1,3,,,,,,,,,,,165,2,3.2.2021,164.8921523
385,"['high', 6]",6,white,135,right,up,high,white_high_135_up,black_high_45_up,1,left,1.1419146,0,1,41,1,FALSE,13,1,1,1,TRUE,FALSE,high_6,0.75,-1,3,,,,,,,,,,,165,2,3.2.2021,164.8921523
386,"['high', 1]",1,black,135,left,down,high,black_high_135_down,white_high_45_down,21,left,0.4267536,1,21,39,1,TRUE,20,1,1,1,TRUE,FALSE,high_1,0.75,-1,3,,,,,,,,,,,165,2,3.2.2021,164.8921523
387,"['low', 6]",6,black,45,right,down,low,black_low_45_down,white_low_135_down,1,right,0.2481423,1,1,38,1,FALSE,6,1,1,1,TRUE,FALSE,low_6,0.75,-1,3,,,,,,,,,,,165,2,3.2.2021,164.8921523
388,"['high', 4]",4,white,135,right,down,high,white_high_135_down,black_high_45_down,7,right,0.2123507,1,7,42,0,FALSE,13,1,1,1,TRUE,FALSE,high_4,0.75,-1,3,,,,,,,,,,,165,2,3.2.2021,164.8921523
389,"['low', 3]",3,black,45,right,up,low,black_low_45_up,white_low_135_up,4,right,0.5328,1,4,36,0,TRUE,15,1,1,1,TRUE,FALSE,low_3,0.75,-1,3,,,,,,,,,,,165,2,3.2.2021,164.8921523
390,"['high', 3]",3,black,135,left,up,high,black_high_135_up,white_high_45_up,8,left,0.5160418,1,8,32,1,TRUE,14,1,1,1,TRUE,FALSE,high_3,0.75,-1,3,,,,,,,,,,,165,2,3.2.2021,164.8921523
391,"['low', 4]",4,black,45,right,down,low,black_low_45_down,white_low_135_down,4,right,0.4081351,1,4,40,0,TRUE,7,1,1,1,TRUE,FALSE,low_4,0.75,-1,3,,,,,,,,,,,165,2,3.2.2021,164.8921523
392,"['high', 2]",2,white,135,right,up,high,white_high_135_up,black_high_45_up,12,right,0.1305754,1,12,36,1,TRUE,14,1,1,1,TRUE,FALSE,high_2,0.75,-1,3,,,,,,,,,,,165,2,3.2.2021,164.8921523
393,"['low', 3]",3,black,135,left,down,low,black_low_135_down,white_low_45_down,3,right,0.3268703,0,3,37,1,TRUE,16,1,1,1,TRUE,FALSE,low_3,0.75,-1,3,,,,,,,,,,,165,2,3.2.2021,164.8921523
394,"['low', 4]",4,white,135,right,up,low,white_low_135_up,black_low_45_up,3,right,0.3449012,1,3,41,1,TRUE,8,1,1,1,TRUE,FALSE,low_4,0.75,-1,3,,,,,,,,,,,165,2,3.2.2021,164.8921523
395,"['low', 3]",3,white,135,right,down,low,white_low_135_down,black_low_45_down,6,right,0.2233602,1,6,38,0,TRUE,17,1,1,1,TRUE,FALSE,low_3,0.75,-1,3,,,,,,,,,,,165,2,3.2.2021,164.8921523
396,"['low', 1]",1,white,135,right,up,low,white_low_135_up,black_low_45_up,6,right,0.1245634,1,6,38,1,FALSE,16,1,1,1,TRUE,FALSE,low_1,0.75,-1,3,,,,,,,,,,,165,2,3.2.2021,164.8921523
397,"['high', 3]",3,black,45,right,down,high,black_high_45_down,white_high_135_down,7,right,0.1073064,1,7,33,1,FALSE,14,1,1,1,TRUE,FALSE,high_3,0.75,-1,3,,,,,,,,,,,165,2,3.2.2021,164.8921523
398,"['high', 6]",6,white,45,left,down,high,white_high_45_down,black_high_135_down,4,left,0.3227352,1,4,42,0,TRUE,14,1,1,1,TRUE,FALSE,high_6,0.75,-1,3,,,,,,,,,,,165,2,3.2.2021,164.8921523
399,"['high', 1]",1,black,135,left,up,high,black_high_135_up,white_high_45_up,20,left,0.2293431,1,20,40,1,FALSE,20,1,1,1,TRUE,FALSE,high_1,0.75,-1,3,,,,,,,,,,,165,2,3.2.2021,164.8921523
400,"['high', 6]",6,black,45,right,up,high,black_high_45_up,white_high_135_up,3,right,0.2600666,1,3,43,1,TRUE,15,1,1,1,TRUE,FALSE,high_6,0.75,-1,3,,,,,,,,,,,165,2,3.2.2021,164.8921523
401,"['low', 1]",1,white,45,left,down,low,white_low_45_down,black_low_135_down,5,right,0.3366864,0,5,39,1,FALSE,16,1,1,1,TRUE,FALSE,low_1,0.75,-1,3,,,,,,,,,,,165,2,3.2.2021,164.8921523
402,"['low', 1]",1,white,45,left,up,low,white_low_45_up,black_low_135_up,8,left,0.2342575,1,8,40,0,TRUE,17,1,1,1,TRUE,FALSE,low_1,0.75,-1,3,,,,,,,,,,,165,2,3.2.2021,164.8921523
403,"['low', 1]",1,white,45,left,down,low,white_low_45_down,black_low_135_down,7,left,0.2654734,1,7,41,1,TRUE,18,1,1,1,TRUE,FALSE,low_1,0.75,-1,3,,,,,,,,,,,165,2,3.2.2021,164.8921523
404,"['high', 2]",2,white,45,left,down,high,white_high_45_down,black_high_135_down,11,left,0.2028148,1,11,37,1,FALSE,14,1,1,1,TRUE,FALSE,high_2,0.75,-1,3,,,,,,,,,,,165,2,3.2.2021,164.8921523
405,"['high', 6]",6,white,135,right,up,high,white_high_135_up,black_high_45_up,2,right,0.1979295,1,2,44,1,FALSE,15,1,1,1,TRUE,FALSE,high_6,0.75,-1,3,,,,,,,,,,,165,2,3.2.2021,164.8921523
406,"['high', 2]",2,white,135,right,up,high,white_high_135_up,black_high_45_up,10,right,0.1862679,1,10,38,1,FALSE,14,1,1,1,TRUE,FALSE,high_2,0.75,-1,3,,,,,,,,,,,165,2,3.2.2021,164.8921523
407,"['high', 2]",2,black,45,right,down,high,black_high_45_down,white_high_135_down,9,left,0.3966006,0,9,39,1,FALSE,14,1,1,1,TRUE,FALSE,high_2,0.75,-1,3,,,,,,,,,,,165,2,3.2.2021,164.8921523
408,"['low', 6]",6,black,135,left,down,low,black_low_135_down,white_low_45_down,1,left,0.1998815,1,1,39,1,FALSE,6,1,1,1,TRUE,FALSE,low_6,0.75,-1,3,,,,,,,,,,,165,2,3.2.2021,164.8921523
409,"['high', 3]",3,white,135,right,up,high,white_high_135_up,black_high_45_up,6,right,0.2299122,1,6,34,1,FALSE,14,1,1,1,TRUE,FALSE,high_3,0.75,-1,3,,,,,,,,,,,165,2,3.2.2021,164.8921523
410,"['low', 3]",3,white,135,right,down,low,white_low_135_down,black_low_45_down,5,right,0.1837181,1,5,39,1,TRUE,18,1,1,1,TRUE,FALSE,low_3,0.75,-1,3,,,,,,,,,,,165,2,3.2.2021,164.8921523
411,"['high', 1]",1,white,45,left,up,high,white_high_45_up,black_high_135_up,19,left,0.1245629,1,19,41,1,FALSE,20,1,1,1,TRUE,FALSE,high_1,0.75,-1,3,,,,,,,,,,,165,2,3.2.2021,164.8921523
412,"['high', 3]",3,white,135,right,up,high,white_high_135_up,black_high_45_up,5,right,0.3698253,1,5,35,1,FALSE,14,1,1,1,TRUE,FALSE,high_3,0.75,-1,3,,,,,,,,,,,165,2,3.2.2021,164.8921523
413,"['high', 2]",2,white,135,right,down,high,white_high_135_down,black_high_45_down,12,right,0.2526994,1,12,40,0,TRUE,15,1,1,1,TRUE,FALSE,high_2,0.75,-1,3,,,,,,,,,,,165,2,3.2.2021,164.8921523
414,"['low', 4]",4,black,45,right,up,low,black_low_45_up,white_low_135_up,2,right,0.2081954,1,2,42,1,FALSE,8,1,1,1,TRUE,FALSE,low_4,0.75,-1,3,,,,,,,,,,,165,2,3.2.2021,164.8921523
415,"['low', 1]",1,black,135,left,down,low,black_low_135_down,white_low_45_down,6,right,0.1721003,0,6,42,1,FALSE,18,1,1,1,TRUE,FALSE,low_1,0.75,-1,3,,,,,,,,,,,165,2,3.2.2021,164.8921523
416,"['high', 1]",1,black,135,left,down,high,black_high_135_down,white_high_45_down,18,right,0.0944033,0,18,42,1,FALSE,20,1,1,1,TRUE,FALSE,high_1,0.75,-1,3,,,,,,,,,,,165,2,3.2.2021,164.8921523
417,"['low', 2]",2,white,45,left,up,low,white_low_45_up,black_low_135_up,5,left,0.1735796,1,5,43,1,FALSE,20,1,1,1,TRUE,FALSE,low_2,0.75,-1,3,,,,,,,,,,,165,2,3.2.2021,164.8921523
418,"['high', 1]",1,white,45,left,down,high,white_high_45_down,black_high_135_down,21,left,0.1540179,1,21,43,0,TRUE,21,1,1,1,TRUE,FALSE,high_1,0.75,-1,3,,,,,,,,,,,165,2,3.2.2021,164.8921523
419,"['high', 1]",1,white,45,left,down,high,white_high_45_down,black_high_135_down,20,left,0.2868962,1,20,44,1,TRUE,22,1,1,1,TRUE,FALSE,high_1,0.75,-1,3,,,,,,,,,,,165,2,3.2.2021,164.8921523
420,"['high', 2]",2,black,135,left,up,high,black_high_135_up,white_high_45_up,11,right,0.9940296,0,11,41,1,TRUE,16,1,1,1,TRUE,FALSE,high_2,0.75,-1,3,,,,,,,,,,,165,2,3.2.2021,164.8921523
421,"['high', 2]",2,white,45,left,up,high,white_high_45_up,black_high_135_up,14,left,0.2089759,1,14,42,0,TRUE,17,1,1,1,TRUE,FALSE,high_2,0.75,-1,3,,,,,,,,,,,165,2,3.2.2021,164.8921523
422,"['high', 6]",6,black,45,right,up,high,black_high_45_up,white_high_135_up,1,right,0.4247533,1,1,45,1,FALSE,15,1,1,1,TRUE,FALSE,high_6,0.75,-1,3,,,,,,,,,,,165,2,3.2.2021,164.8921523
423,"['high', 2]",2,white,135,right,up,high,white_high_135_up,black_high_45_up,13,right,0.3745239,1,13,43,1,TRUE,18,1,1,1,TRUE,FALSE,high_2,0.75,-1,3,,,,,,,,,,,165,2,3.2.2021,164.8921523
424,"['high', 4]",4,white,135,right,down,high,white_high_135_down,black_high_45_down,6,right,0.1932653,1,6,43,1,TRUE,14,1,1,1,TRUE,FALSE,high_4,0.75,-1,3,,,,,,,,,,,165,2,3.2.2021,164.8921523
425,"['low', 6]",6,white,135,right,down,low,white_low_135_down,black_low_45_down,1,right,0.3782361,1,1,40,1,FALSE,6,1,1,1,TRUE,FALSE,low_6,0.75,-1,3,,,,,,,,,,,165,2,3.2.2021,164.8921523
426,"['low', 1]",1,white,45,left,up,low,white_low_45_up,black_low_135_up,9,left,0.0746491,1,9,43,0,TRUE,19,1,1,1,TRUE,FALSE,low_1,0.75,-1,3,,,,,,,,,,,165,2,3.2.2021,164.8921523
427,"['high', 6]",6,black,45,right,down,high,black_high_45_down,white_high_135_down,1,right,0.1401684,1,1,46,1,FALSE,15,1,1,1,TRUE,FALSE,high_6,0.75,-1,3,,,,,,,,,,,165,2,3.2.2021,164.8921523
428,"['low', 2]",2,black,45,right,up,low,black_low_45_up,white_low_135_up,4,right,0.2249666,1,4,44,1,FALSE,20,1,1,1,TRUE,FALSE,low_2,0.75,-1,3,,,,,,,,,,,165,2,3.2.2021,164.8921523
429,"['low', 4]",4,white,135,right,up,low,white_low_135_up,black_low_45_up,1,right,0.0989446,1,1,43,1,FALSE,8,1,1,1,TRUE,FALSE,low_4,0.75,-1,3,,,,,,,,,,,165,2,3.2.2021,164.8921523
430,"['high', 2]",2,black,135,left,down,high,black_high_135_down,white_high_45_down,12,right,0.084785,0,12,44,1,FALSE,18,1,1,1,TRUE,FALSE,high_2,0.75,-1,3,,,,,,,,,,,165,2,3.2.2021,164.8921523
431,"['low', 3]",3,black,135,left,down,low,black_low_135_down,white_low_45_down,4,left,0.3991813,1,4,40,1,FALSE,18,1,1,1,TRUE,FALSE,low_3,0.75,-1,3,,,,,,,,,,,165,2,3.2.2021,164.8921523
432,"['high', 6]",6,white,135,right,down,high,white_high_135_down,black_high_45_down,1,left,1.1831972,0,1,47,1,FALSE,15,1,1,1,TRUE,FALSE,high_6,0.75,-1,3,,,,,,,,,,,165,2,3.2.2021,164.8921523
433,"['low', 3]",3,black,135,left,down,low,black_low_135_down,white_low_45_down,3,left,0.3446286,1,3,41,1,FALSE,18,1,1,1,TRUE,FALSE,low_3,0.75,-1,3,,,,,,,,,,,165,2,3.2.2021,164.8921523
434,"['high', 4]",4,black,45,right,down,high,black_high_45_down,white_high_135_down,5,right,0.1616195,1,5,44,1,FALSE,14,1,1,1,TRUE,FALSE,high_4,0.75,-1,3,,,,,,,,,,,165,2,3.2.2021,164.8921523
435,"['high', 3]",3,black,135,left,up,high,black_high_135_up,white_high_45_up,4,left,0.1700944,1,4,36,1,FALSE,14,1,1,1,TRUE,FALSE,high_3,0.75,-1,3,,,,,,,,,,,165,2,3.2.2021,164.8921523
436,"['low', 3]",3,black,45,right,up,low,black_low_45_up,white_low_135_up,2,right,0.3409839,1,2,42,1,FALSE,18,1,1,1,TRUE,FALSE,low_3,0.75,-1,3,,,,,,,,,,,165,2,3.2.2021,164.8921523
437,"['high', 2]",2,white,45,left,down,high,white_high_45_down,black_high_135_down,15,right,1.0499699,0,15,45,0,TRUE,19,1,1,1,TRUE,FALSE,high_2,0.75,-1,3,,,,,,,,,,,165,2,3.2.2021,164.8921523
438,"['high', 6]",6,white,135,right,down,high,white_high_135_down,black_high_45_down,4,right,0.0711872,1,4,48,0,TRUE,16,1,1,1,TRUE,FALSE,high_6,0.75,-1,3,,,,,,,,,,,165,2,3.2.2021,164.8921523
439,"['low', 3]",3,white,45,left,up,low,white_low_45_up,black_low_135_up,1,left,0.7623765,1,1,43,1,FALSE,18,1,1,1,TRUE,FALSE,low_3,0.75,-1,3,,,,,,,,,,,165,2,3.2.2021,164.8921523
440,"['high', 1]",1,black,135,left,up,high,black_high_135_up,white_high_45_up,19,left,0.2245687,1,19,45,1,FALSE,22,1,1,1,TRUE,FALSE,high_1,0.75,-1,3,,,,,,,,,,,165,2,3.2.2021,164.8921523
441,"['low', 4]",4,white,135,right,down,low,white_low_135_down,black_low_45_down,1,right,0.3112154,1,1,44,1,FALSE,8,1,1,1,TRUE,FALSE,low_4,0.75,-1,3,,,,,,,,,,,165,2,3.2.2021,164.8921523
442,"['low', 2]",2,black,135,left,up,low,black_low_135_up,white_low_45_up,3,left,0.3563482,1,3,45,1,FALSE,20,1,1,1,TRUE,FALSE,low_2,0.75,-1,3,,,,,,,,,,,165,2,3.2.2021,164.8921523
443,"['high', 1]",1,white,45,left,down,high,white_high_45_down,black_high_135_down,18,right,0.3600099,0,18,46,1,FALSE,22,1,1,1,TRUE,FALSE,high_1,0.75,-1,3,,,,,,,,,,,165,2,3.2.2021,164.8921523
444,"['high', 6]",6,white,45,left,down,high,white_high_45_down,black_high_135_down,3,left,0.1501163,1,3,49,1,TRUE,17,1,1,1,TRUE,FALSE,high_6,0.75,-1,3,,,,,,,,,,,165,2,3.2.2021,164.8921523
445,"['low', 1]",1,white,45,left,down,low,white_low_45_down,black_low_135_down,8,left,0.2980771,1,8,44,1,TRUE,20,1,1,1,TRUE,FALSE,low_1,0.75,-1,3,,,,,,,,,,,165,2,3.2.2021,164.8921523
446,"['low', 1]",1,black,135,left,down,low,black_low_135_down,white_low_45_down,7,left,0.2327878,1,7,45,1,FALSE,20,1,1,1,TRUE,FALSE,low_1,0.75,-1,3,,,,,,,,,,,165,2,3.2.2021,164.8921523
447,"['low', 6]",6,black,135,left,down,low,black_low_135_down,white_low_45_down,1,left,0.1083168,1,1,41,1,FALSE,6,1,1,1,TRUE,FALSE,low_6,0.75,-1,3,,,,,,,,,,,165,2,3.2.2021,164.8921523
448,"['high', 2]",2,black,45,right,down,high,black_high_45_down,white_high_135_down,18,right,0.4565965,1,18,46,0,FALSE,19,1,1,1,TRUE,FALSE,high_2,0.75,-1,3,,,,,,,,,,,165,2,3.2.2021,164.8921523
449,"['low', 3]",3,white,45,left,up,low,white_low_45_up,black_low_135_up,1,right,0.2996461,0,1,44,1,FALSE,18,1,1,1,TRUE,FALSE,low_3,0.75,-1,3,,,,,,,,,,,165,2,3.2.2021,164.8921523
450,"['low', 6]",6,black,135,left,up,low,black_low_135_up,white_low_45_up,1,left,0.1334129,1,1,42,1,FALSE,6,1,1,1,TRUE,FALSE,low_6,0.75,-1,3,,,,,,,,,,,165,2,3.2.2021,164.8921523
451,"['low', 1]",1,black,45,right,up,low,black_low_45_up,white_low_135_up,6,left,0.3235693,0,6,46,1,FALSE,20,1,1,1,TRUE,FALSE,low_1,0.75,-1,3,,,,,,,,,,,165,2,3.2.2021,164.8921523
452,"['low', 1]",1,white,45,left,up,low,white_low_45_up,black_low_135_up,9,left,0.7197413,1,9,47,0,TRUE,21,1,1,1,TRUE,FALSE,low_1,0.75,-1,3,,,,,,,,,,,165,2,3.2.2021,164.8921523
453,"['low', 6]",6,black,135,left,up,low,black_low_135_up,white_low_45_up,1,left,0.0972245,1,1,43,1,FALSE,6,1,1,1,TRUE,FALSE,low_6,0.75,-1,3,,,,,,,,,,,165,2,3.2.2021,164.8921523
454,"['low', 1]",1,black,135,left,down,low,black_low_135_down,white_low_45_down,8,left,0.2290959,1,8,48,1,TRUE,22,1,1,1,TRUE,FALSE,low_1,0.75,-1,3,,,,,,,,,,,165,2,3.2.2021,164.8921523
455,"['high', 4]",4,white,135,right,down,high,white_high_135_down,black_high_45_down,4,right,0.1533888,1,4,45,1,FALSE,14,1,1,1,TRUE,FALSE,high_4,0.75,-1,3,,,,,,,,,,,165,2,3.2.2021,164.8921523
456,"['low', 1]",1,black,135,left,down,low,black_low_135_down,white_low_45_down,7,right,0.2413972,0,7,49,1,FALSE,22,1,1,1,TRUE,FALSE,low_1,0.75,-1,3,,,,,,,,,,,165,2,3.2.2021,164.8921523
457,"['high', 3]",3,black,135,left,up,high,black_high_135_up,white_high_45_up,3,left,0.1260991,1,3,37,1,FALSE,14,1,1,1,TRUE,FALSE,high_3,0.75,-1,3,,,,,,,,,,,165,2,3.2.2021,164.8921523
458,"['high', 1]",1,white,135,right,up,high,white_high_135_up,black_high_45_up,21,right,0.2140265,1,21,47,0,TRUE,23,1,1,1,TRUE,FALSE,high_1,0.75,-1,3,,,,,,,,,,,165,2,3.2.2021,164.8921523
459,"['low', 4]",4,black,135,left,down,low,black_low_135_down,white_low_45_down,1,left,0.3308807,1,1,45,1,FALSE,8,1,1,1,TRUE,FALSE,low_4,0.75,-1,3,,,,,,,,,,,165,2,3.2.2021,164.8921523
460,"['low', 6]",6,white,135,right,up,low,white_low_135_up,black_low_45_up,1,right,0.457377,1,1,44,1,FALSE,6,1,1,1,TRUE,FALSE,low_6,0.75,-1,3,,,,,,,,,,,165,2,3.2.2021,164.8921523
461,"['low', 3]",3,black,45,right,up,low,black_low_45_up,white_low_135_up,4,right,0.4750355,1,4,45,0,TRUE,19,1,1,1,TRUE,FALSE,low_3,0.75,-1,3,,,,,,,,,,,165,2,3.2.2021,164.8921523
462,"['low', 4]",4,black,45,right,up,low,black_low_45_up,white_low_135_up,1,right,0.2629514,1,1,46,1,FALSE,8,1,1,1,TRUE,FALSE,low_4,0.75,-1,3,,,,,,,,,,,165,2,3.2.2021,164.8921523
463,"['high', 6]",6,black,135,left,up,high,black_high_135_up,white_high_45_up,2,right,0.1353411,0,2,50,1,FALSE,17,1,1,1,TRUE,FALSE,high_6,0.75,-1,3,,,,,,,,,,,165,2,3.2.2021,164.8921523
464,"['high', 6]",6,black,45,right,up,high,black_high_45_up,white_high_135_up,5,right,0.098011,1,5,51,0,TRUE,18,1,1,1,TRUE,FALSE,high_6,0.75,-1,3,,,,,,,,,,,165,2,3.2.2021,164.8921523
465,"['low', 3]",3,black,135,left,down,low,black_low_135_down,white_low_45_down,3,left,0.1900976,1,3,46,1,TRUE,20,1,1,1,TRUE,FALSE,low_3,0.75,-1,3,,,,,,,,,,,165,2,3.2.2021,164.8921523
466,"['low', 3]",3,black,45,right,down,low,black_low_45_down,white_low_135_down,2,right,0.2001785,1,2,47,1,FALSE,20,1,1,1,TRUE,FALSE,low_3,0.75,-1,3,,,,,,,,,,,165,2,3.2.2021,164.8921523
467,"['low', 4]",4,white,135,right,down,low,white_low_135_down,black_low_45_down,1,right,0.0198241,1,1,47,1,FALSE,8,1,1,1,TRUE,FALSE,low_4,0.75,-1,3,,,,,,,,,,,165,2,3.2.2021,164.8921523
468,"['high', 6]",6,white,135,right,down,high,white_high_135_down,black_high_45_down,4,right,0.8686345,1,4,52,1,TRUE,19,1,1,1,TRUE,FALSE,high_6,0.75,-1,3,,,,,,,,,,,165,2,3.2.2021,164.8921523
469,"['low', 3]",3,black,45,right,up,low,black_low_45_up,white_low_135_up,1,left,0.4012301,0,1,48,1,FALSE,20,1,1,1,TRUE,FALSE,low_3,0.75,-1,3,,,,,,,,,,,165,2,3.2.2021,164.8921523
470,"['low', 4]",4,white,45,left,down,low,white_low_45_down,black_low_135_down,1,left,0.1413713,1,1,48,1,FALSE,8,1,1,1,TRUE,FALSE,low_4,0.75,-1,3,,,,,,,,,,,165,2,3.2.2021,164.8921523
471,"['high', 1]",1,black,135,left,up,high,black_high_135_up,white_high_45_up,20,left,0.1748497,1,20,48,1,TRUE,24,1,1,1,TRUE,FALSE,high_1,0.75,-1,3,,,,,,,,,,,165,2,3.2.2021,164.8921523
472,"['low', 3]",3,black,45,right,up,low,black_low_45_up,white_low_135_up,4,right,0.4126882,1,4,49,0,TRUE,21,1,1,1,TRUE,FALSE,low_3,0.75,-1,3,,,,,,,,,,,165,2,3.2.2021,164.8921523
473,"['low', 2]",2,white,135,right,up,low,white_low_135_up,black_low_45_up,2,right,0.4133925,1,2,46,1,FALSE,20,1,1,1,TRUE,FALSE,low_2,0.75,-1,3,,,,,,,,,,,165,2,3.2.2021,164.8921523
474,"['low', 3]",3,black,135,left,up,low,black_low_135_up,white_low_45_up,3,right,0.049748,0,3,50,1,TRUE,22,1,1,1,TRUE,FALSE,low_3,0.75,-1,3,,,,,,,,,,,165,2,3.2.2021,164.8921523
475,"['high', 4]",4,white,135,right,down,high,white_high_135_down,black_high_45_down,3,right,0.0541387,1,3,46,1,FALSE,14,1,1,1,TRUE,FALSE,high_4,0.75,-1,3,,,,,,,,,,,165,2,3.2.2021,164.8921523
476,"['high', 6]",6,white,135,right,up,high,white_high_135_up,black_high_45_up,3,right,0.1708101,1,3,53,1,FALSE,19,1,1,1,TRUE,FALSE,high_6,0.75,-1,3,,,,,,,,,,,165,2,3.2.2021,164.8921523
477,"['high', 3]",3,white,135,right,down,high,white_high_135_down,black_high_45_down,2,right,0.1574549,1,2,38,1,FALSE,14,1,1,1,TRUE,FALSE,high_3,0.75,-1,3,,,,,,,,,,,165,2,3.2.2021,164.8921523
478,"['low', 6]",6,white,45,left,down,low,white_low_45_down,black_low_135_down,1,left,0.321379,1,1,45,1,FALSE,6,1,1,1,TRUE,FALSE,low_6,0.75,-1,3,,,,,,,,,,,165,2,3.2.2021,164.8921523
479,"['low', 1]",1,white,135,right,down,low,white_low_135_down,black_low_45_down,10,right,0.3351321,1,10,50,0,TRUE,23,1,1,1,TRUE,FALSE,low_1,0.75,-1,3,,,,,,,,,,,165,2,3.2.2021,164.8921523
480,"['low', 2]",2,white,45,left,down,low,white_low_45_down,black_low_135_down,1,right,0.2272668,0,1,47,1,FALSE,20,1,1,1,TRUE,FALSE,low_2,0.75,-1,3,,,,,,,,,,,165,2,3.2.2021,164.8921523
481,"['high', 3]",3,white,45,left,down,high,white_high_45_down,black_high_135_down,1,right,0.2720929,0,1,39,1,FALSE,14,1,1,1,TRUE,FALSE,high_3,0.75,-1,3,,,,,,,,,,,165,2,3.2.2021,164.8921523
482,"['high', 2]",2,black,135,left,down,high,black_high_135_down,white_high_45_down,17,left,0.3143381,1,17,47,1,TRUE,20,1,1,1,TRUE,FALSE,high_2,0.75,-1,3,,,,,,,,,,,165,2,3.2.2021,164.8921523
483,"['low', 1]",1,black,45,right,down,low,black_low_45_down,white_low_135_down,9,right,0.2876704,1,9,51,1,TRUE,24,1,1,1,TRUE,FALSE,low_1,0.75,-1,3,,,,,,,,,,,165,2,3.2.2021,164.8921523
484,"['low', 2]",2,black,45,right,up,low,black_low_45_up,white_low_135_up,4,right,0.1121441,1,4,48,0,TRUE,21,1,1,1,TRUE,FALSE,low_2,0.75,-1,3,,,,,,,,,,,165,2,3.2.2021,164.8921523
485,"['low', 6]",6,white,135,right,up,low,white_low_135_up,black_low_45_up,1,right,0.2773873,1,1,46,1,FALSE,6,1,1,1,TRUE,FALSE,low_6,0.75,-1,3,,,,,,,,,,,165,2,3.2.2021,164.8921523
486,"['low', 2]",2,white,135,right,down,low,white_low_135_down,black_low_45_down,3,right,0.0269609,1,3,49,1,TRUE,22,1,1,1,TRUE,FALSE,low_2,0.75,-1,3,,,,,,,,,,,165,2,3.2.2021,164.8921523
487,"['low', 4]",4,white,135,right,down,low,white_low_135_down,black_low_45_down,1,right,0.2568641,1,1,49,1,FALSE,8,1,1,1,TRUE,FALSE,low_4,0.75,-1,3,,,,,,,,,,,165,2,3.2.2021,164.8921523
488,"['low', 6]",6,black,45,right,up,low,black_low_45_up,white_low_135_up,1,right,0.0299719,1,1,47,1,FALSE,6,1,1,1,TRUE,FALSE,low_6,0.75,-1,3,,,,,,,,,,,165,2,3.2.2021,164.8921523
489,"['high', 6]",6,black,135,left,up,high,black_high_135_up,white_high_45_up,2,right,0.3607145,0,2,54,1,FALSE,19,1,1,1,TRUE,FALSE,high_6,0.75,-1,3,,,,,,,,,,,165,2,3.2.2021,164.8921523
490,"['high', 6]",6,black,45,right,up,high,black_high_45_up,white_high_135_up,5,right,0.0608306,1,5,55,0,TRUE,20,1,1,1,TRUE,FALSE,high_6,0.75,-1,3,,,,,,,,,,,165,2,3.2.2021,164.8921523
491,"['high', 3]",3,white,45,left,down,high,white_high_45_down,black_high_135_down,4,left,0.4740575,1,4,40,0,TRUE,15,1,1,1,TRUE,FALSE,high_3,0.75,-1,3,,,,,,,,,,,165,2,3.2.2021,164.8921523
492,"['low', 2]",2,white,45,left,up,low,white_low_45_up,black_low_135_up,2,left,0.3042655,1,2,50,1,FALSE,22,1,1,1,TRUE,FALSE,low_2,0.75,-1,3,,,,,,,,,,,165,2,3.2.2021,164.8921523
493,"['low', 3]",3,white,45,left,down,low,white_low_45_down,black_low_135_down,6,left,0.601002,1,6,51,0,TRUE,23,1,1,1,TRUE,FALSE,low_3,0.75,-1,3,,,,,,,,,,,165,2,3.2.2021,164.8921523
494,"['high', 6]",6,black,45,right,down,high,black_high_45_down,white_high_135_down,4,right,0.1957343,1,4,56,1,TRUE,21,1,1,1,TRUE,FALSE,high_6,0.75,-1,3,,,,,,,,,,,165,2,3.2.2021,164.8921523
495,"['high', 2]",2,black,45,right,down,high,black_high_45_down,white_high_135_down,16,right,0.2082958,1,16,48,1,FALSE,20,1,1,1,TRUE,FALSE,high_2,0.75,-1,3,,,,,,,,,,,165,2,3.2.2021,164.8921523
496,"['high', 1]",1,white,135,right,up,high,white_high_135_up,black_high_45_up,19,right,0.3343857,1,19,49,1,FALSE,24,1,1,1,TRUE,FALSE,high_1,0.75,-1,3,,,,,,,,,,,165,2,3.2.2021,164.8921523
497,"['high', 4]",4,black,135,left,down,high,black_high_135_down,white_high_45_down,2,left,0.2618841,1,2,47,1,FALSE,14,1,1,1,TRUE,FALSE,high_4,0.75,-1,3,,,,,,,,,,,165,2,3.2.2021,164.8921523
498,"['high', 2]",2,white,135,right,up,high,white_high_135_up,black_high_45_up,15,right,0.4032373,1,15,49,1,FALSE,20,1,1,1,TRUE,FALSE,high_2,0.75,-1,3,,,,,,,,,,,165,2,3.2.2021,164.8921523
499,"['high', 1]",1,black,135,left,down,high,black_high_135_down,white_high_45_down,18,left,0.2622646,1,18,50,1,FALSE,24,1,1,1,TRUE,FALSE,high_1,0.75,-1,3,,,,,,,,,,,165,2,3.2.2021,164.8921523
500,"['high', 3]",3,black,45,right,down,high,black_high_45_down,white_high_135_down,3,right,0.2936794,1,3,41,1,TRUE,16,1,1,1,TRUE,FALSE,high_3,0.75,-1,3,,,,,,,,,,,165,2,3.2.2021,164.8921523
501,"['high', 4]",4,black,45,right,down,high,black_high_45_down,white_high_135_down,1,left,0.52779,0,1,48,1,FALSE,14,1,1,1,TRUE,FALSE,high_4,0.75,-1,3,,,,,,,,,,,165,2,3.2.2021,164.8921523
502,"['high', 4]",4,black,45,right,down,high,black_high_45_down,white_high_135_down,4,right,0.3281594,1,4,49,0,TRUE,15,1,1,1,TRUE,FALSE,high_4,0.75,-1,3,,,,,,,,,,,165,2,3.2.2021,164.8921523
503,"['high', 2]",2,white,45,left,up,high,white_high_45_up,black_high_135_up,14,left,0.3957555,1,14,50,1,FALSE,20,1,1,1,TRUE,FALSE,high_2,0.75,-1,3,,,,,,,,,,,165,2,3.2.2021,164.8921523
504,"['high', 6]",6,white,45,left,down,high,white_high_45_down,black_high_135_down,3,left,1.2740095,1,3,57,1,FALSE,21,1,1,1,TRUE,FALSE,high_6,0.75,-1,3,,,,,,,,,,,165,2,3.2.2021,164.8921523
505,"['high', 6]",6,black,45,right,up,high,black_high_45_up,white_high_135_up,2,left,0.2388253,0,2,58,1,FALSE,21,1,1,1,TRUE,FALSE,high_6,0.75,-1,3,,,,,,,,,,,165,2,3.2.2021,164.8921523
506,"['low', 6]",6,black,135,left,down,low,black_low_135_down,white_low_45_down,1,left,0.0242518,1,1,48,1,FALSE,6,1,1,1,TRUE,FALSE,low_6,0.75,-1,3,,,,,,,,,,,165,2,3.2.2021,164.8921523
507,"['high', 6]",6,black,45,right,down,high,black_high_45_down,white_high_135_down,5,right,1.2403017,1,5,59,0,TRUE,22,1,1,1,TRUE,FALSE,high_6,0.75,-1,3,,,,,,,,,,,165,2,3.2.2021,164.8921523
508,"['high', 1]",1,white,45,left,up,high,white_high_45_up,black_high_135_up,17,left,0.0331358,1,17,51,1,FALSE,24,1,1,1,TRUE,FALSE,high_1,0.75,-1,3,,,,,,,,,,,165,2,3.2.2021,164.8921523
509,"['high', 3]",3,black,135,left,down,high,black_high_135_down,white_high_45_down,2,left,0.3851943,1,2,42,1,FALSE,16,1,1,1,TRUE,FALSE,high_3,0.75,-1,3,,,,,,,,,,,165,2,3.2.2021,164.8921523
510,"['low', 3]",3,black,135,left,up,low,black_low_135_up,white_low_45_up,5,left,0.0443134,1,5,52,1,TRUE,24,1,1,1,TRUE,FALSE,low_3,0.75,-1,3,,,,,,,,,,,165,2,3.2.2021,164.8921523
511,"['high', 4]",4,white,45,left,down,high,white_high_45_down,black_high_135_down,3,left,0.3470414,1,3,50,1,TRUE,16,1,1,1,TRUE,FALSE,high_4,0.75,-1,3,,,,,,,,,,,165,2,3.2.2021,164.8921523
512,"['high', 4]",4,black,45,right,up,high,black_high_45_up,white_high_135_up,2,left,0.1994736,0,2,51,1,FALSE,16,1,1,1,TRUE,FALSE,high_4,0.75,-1,3,,,,,,,,,,,165,2,3.2.2021,164.8921523
513,"['low', 2]",2,black,45,right,down,low,black_low_45_down,white_low_135_down,1,right,0.3574572,1,1,51,1,FALSE,22,1,1,1,TRUE,FALSE,low_2,0.75,-1,3,,,,,,,,,,,165,2,3.2.2021,164.8921523
514,"['high', 3]",3,white,45,left,up,high,white_high_45_up,black_high_135_up,1,right,0.2860307,0,1,43,1,FALSE,16,1,1,1,TRUE,FALSE,high_3,0.75,-1,3,,,,,,,,,,,165,2,3.2.2021,164.8921523
515,"['low', 2]",2,white,135,right,down,low,white_low_135_down,black_low_45_down,1,right,0.2215687,1,1,52,1,FALSE,22,1,1,1,TRUE,FALSE,low_2,0.75,-1,3,,,,,,,,,,,165,2,3.2.2021,164.8921523
516,"['high', 2]",2,black,45,right,up,high,black_high_45_up,white_high_135_up,13,right,0.1039953,1,13,51,1,FALSE,20,1,1,1,TRUE,FALSE,high_2,0.75,-1,3,,,,,,,,,,,165,2,3.2.2021,164.8921523
517,"['low', 4]",4,black,135,left,down,low,black_low_135_down,white_low_45_down,1,left,0.5842883,1,1,50,1,FALSE,8,1,1,1,TRUE,FALSE,low_4,0.75,-1,3,,,,,,,,,,,165,2,3.2.2021,164.8921523
518,"['high', 2]",2,black,135,left,down,high,black_high_135_down,white_high_45_down,12,right,0.2515794,0,12,52,1,FALSE,20,1,1,1,TRUE,FALSE,high_2,0.75,-1,3,,,,,,,,,,,165,2,3.2.2021,164.8921523
519,"['low', 3]",3,white,45,left,down,low,white_low_45_down,black_low_135_down,4,left,0.0656738,1,4,53,1,FALSE,24,1,1,1,TRUE,FALSE,low_3,0.75,-1,3,,,,,,,,,,,165,2,3.2.2021,164.8921523
520,"['low', 3]",3,white,45,left,up,low,white_low_45_up,black_low_135_up,3,left,0.1239735,1,3,54,1,FALSE,24,1,1,1,TRUE,FALSE,low_3,0.75,-1,3,,,,,,,,,,,165,2,3.2.2021,164.8921523
521,"['low', 1]",1,black,45,right,up,low,black_low_45_up,white_low_135_up,8,right,0.576516,1,8,52,1,FALSE,24,1,1,1,TRUE,FALSE,low_1,0.75,-1,3,,,,,,,,,,,165,2,3.2.2021,164.8921523
522,"['high', 4]",4,white,135,right,down,high,white_high_135_down,black_high_45_down,5,right,0.1398054,1,5,52,0,TRUE,17,1,1,1,TRUE,FALSE,high_4,0.75,-1,3,,,,,,,,,,,165,2,3.2.2021,164.8921523
523,"['high', 3]",3,black,45,right,down,high,black_high_45_down,white_high_135_down,4,right,0.2084039,1,4,44,0,TRUE,17,1,1,1,TRUE,FALSE,high_3,0.75,-1,3,,,,,,,,,,,165,2,3.2.2021,164.8921523
524,"['high', 4]",4,white,45,left,down,high,white_high_45_down,black_high_135_down,4,left,0.4003483,1,4,53,1,TRUE,18,1,1,1,TRUE,FALSE,high_4,0.75,-1,3,,,,,,,,,,,165,2,3.2.2021,164.8921523
525,"['high', 6]",6,black,45,right,down,high,black_high_45_down,white_high_135_down,4,right,0.1178152,1,4,60,1,TRUE,23,1,1,1,TRUE,FALSE,high_6,0.75,-1,3,,,,,,,,,,,165,2,3.2.2021,164.8921523
526,"['high', 6]",6,black,135,left,up,high,black_high_135_up,white_high_45_up,3,left,0.3218664,1,3,61,1,FALSE,23,1,1,1,TRUE,FALSE,high_6,0.75,-1,3,,,,,,,,,,,165,2,3.2.2021,164.8921523
527,"['low', 2]",2,black,45,right,down,low,black_low_45_down,white_low_135_down,1,right,0.1245272,1,1,53,1,FALSE,22,1,1,1,TRUE,FALSE,low_2,0.75,-1,3,,,,,,,,,,,165,2,3.2.2021,164.8921523
528,"['low', 4]",4,black,45,right,up,low,black_low_45_up,white_low_135_up,1,right,0.1191451,1,1,51,1,FALSE,8,1,1,1,TRUE,FALSE,low_4,0.75,-1,3,,,,,,,,,,,165,2,3.2.2021,164.8921523
529,"['high', 3]",3,black,45,right,up,high,black_high_45_up,white_high_135_up,3,right,0.2393194,1,3,45,1,TRUE,18,1,1,1,TRUE,FALSE,high_3,0.75,-1,3,,,,,,,,,,,165,2,3.2.2021,164.8921523
530,"['high', 3]",3,white,45,left,up,high,white_high_45_up,black_high_135_up,2,right,0.2102953,0,2,46,1,FALSE,18,1,1,1,TRUE,FALSE,high_3,0.75,-1,3,,,,,,,,,,,165,2,3.2.2021,164.8921523
531,"['high', 4]",4,white,135,right,down,high,white_high_135_down,black_high_45_down,3,right,0.4141579,1,3,54,1,FALSE,18,1,1,1,TRUE,FALSE,high_4,0.75,-1,3,,,,,,,,,,,165,2,3.2.2021,164.8921523
532,"['high', 2]",2,black,135,left,up,high,black_high_135_up,white_high_45_up,15,left,0.0304146,1,15,53,0,TRUE,21,1,1,1,TRUE,FALSE,high_2,0.75,-1,3,,,,,,,,,,,165,2,3.2.2021,164.8921523
533,"['low', 3]",3,white,45,left,up,low,white_low_45_up,black_low_135_up,2,left,0.3292488,1,2,55,1,FALSE,24,1,1,1,TRUE,FALSE,low_3,0.75,-1,3,,,,,,,,,,,165,2,3.2.2021,164.8921523
534,"['low', 6]",6,black,45,right,up,low,black_low_45_up,white_low_135_up,1,right,0.3176888,1,1,49,1,FALSE,6,1,1,1,TRUE,FALSE,low_6,0.75,-1,3,,,,,,,,,,,165,2,3.2.2021,164.8921523
