trial_number,trial_type,cycle_number,first_color,first_orientation,correct_response,visual_field,spatial_frequency,first_stim,second_stim,stimulus_frame_duration,answer,rt,accuracy,staircase_dv,staircase_trial_num,staircase_previous_correct,staircase_reversal,staircase_reversal_num,staircase_phase,staircase_step_size,staircase_powers_law,staircase_siam,staircase_over,staircase_name,staircase_conv_p,staircase_step_hit,staircase_step_miss,threshold_low1,threshold_low2,threshold_low3,threshold_low4,threshold_low6,threshold_high1,threshold_high2,threshold_high3,threshold_high4,threshold_high6,frame_rate,participant,psychopyVersion,frame_rate_detected
0,"['low', 3]",3,white,135,right,up,low,white_low_135_up,black_low_45_up,3,right,0.1541593,1,3,0,None,FALSE,0,0,1,1,TRUE,FALSE,low_3,0.75,-1,3,,,,,,,,,,,165,1,3.2.2021,164.9770269
1,"['low', 2]",2,black,45,right,up,low,black_low_45_up,white_low_135_up,4,right,0.3427274,1,4,0,None,FALSE,0,0,1,1,TRUE,FALSE,low_2,0.75,-1,3,,,,,,,,,,,165,1,3.2.2021,164.9770269
2,"['high', 3]",3,white,135,right,up,high,white_high_135_up,black_high_45_up,8,right,0.500731,1,8,0,None,FALSE,0,0,1,1,TRUE,FALSE,high_3,0.75,-1,3,,,,,,,,,,,165,1,3.2.2021,164.9770269
3,"['low', 2]",2,black,45,right,up,low,black_low_45_up,white_low_135_up,3,right,0.810359,1,3,1,1,FALSE,0,0,1,1,TRUE,FALSE,low_2,0.75,-1,3,,,,,,,,,,,165,1,3.2.2021,164.9770269
4,"['high', 4]",4,white,135,right,up,high,white_high_135_up,black_high_45_up,8,left,1.0718096,0,8,0,None,FALSE,0,0,1,1,TRUE,FALSE,high_4,0.75,-1,3,,,,,,,,,,,165,1,3.2.2021,164.9770269
5,"['high', 3]",3,black,45,right,up,high,black_high_45_up,white_high_135_up,7,right,0.3899904,1,7,1,1,FALSE,0,0,1,1,TRUE,FALSE,high_3,0.75,-1,3,,,,,,,,,,,165,1,3.2.2021,164.9770269
6,"['low', 3]",3,white,135,right,up,low,white_low_135_up,black_low_45_up,2,right,0.3651051,1,2,1,1,FALSE,0,0,1,1,TRUE,FALSE,low_3,0.75,-1,3,,,,,,,,,,,165,1,3.2.2021,164.9770269
7,"['low', 1]",1,black,45,right,down,low,black_low_45_down,white_low_135_down,8,left,0.3618156,0,8,0,None,FALSE,0,0,1,1,TRUE,FALSE,low_1,0.75,-1,3,,,,,,,,,,,165,1,3.2.2021,164.9770269
8,"['low', 6]",6,white,135,right,up,low,white_low_135_up,black_low_45_up,3,right,0.3739663,1,3,0,None,FALSE,0,0,1,1,TRUE,FALSE,low_6,0.75,-1,3,,,,,,,,,,,165,1,3.2.2021,164.9770269
9,"['high', 4]",4,white,135,right,down,high,white_high_135_down,black_high_45_down,11,right,0.7005324,1,11,1,0,FALSE,0,0,1,1,TRUE,FALSE,high_4,0.75,-1,3,,,,,,,,,,,165,1,3.2.2021,164.9770269
10,"['low', 2]",2,white,45,left,up,low,white_low_45_up,black_low_135_up,2,left,0.1724892,1,2,2,1,FALSE,0,0,1,1,TRUE,FALSE,low_2,0.75,-1,3,,,,,,,,,,,165,1,3.2.2021,164.9770269
11,"['high', 3]",3,black,45,right,down,high,black_high_45_down,white_high_135_down,6,left,0.1865584,0,6,2,1,FALSE,0,0,1,1,TRUE,FALSE,high_3,0.75,-1,3,,,,,,,,,,,165,1,3.2.2021,164.9770269
12,"['low', 3]",3,black,45,right,up,low,black_low_45_up,white_low_135_up,1,left,0.4744757,0,1,2,1,FALSE,0,0,1,1,TRUE,FALSE,low_3,0.75,-1,3,,,,,,,,,,,165,1,3.2.2021,164.9770269
13,"['low', 6]",6,white,135,right,up,low,white_low_135_up,black_low_45_up,2,right,0.0558879,1,2,1,1,FALSE,0,0,1,1,TRUE,FALSE,low_6,0.75,-1,3,,,,,,,,,,,165,1,3.2.2021,164.9770269
14,"['high', 2]",2,white,135,right,down,high,white_high_135_down,black_high_45_down,8,left,0.4451227,0,8,0,None,FALSE,0,0,1,1,TRUE,FALSE,high_2,0.75,-1,3,,,,,,,,,,,165,1,3.2.2021,164.9770269
15,"['low', 1]",1,black,135,left,down,low,black_low_135_down,white_low_45_down,11,left,0.5433255,1,11,1,0,FALSE,0,0,1,1,TRUE,FALSE,low_1,0.75,-1,3,,,,,,,,,,,165,1,3.2.2021,164.9770269
16,"['low', 6]",6,black,45,right,up,low,black_low_45_up,white_low_135_up,1,right,0.1761278,1,1,2,1,FALSE,0,0,1,1,TRUE,FALSE,low_6,0.75,-1,3,,,,,,,,,,,165,1,3.2.2021,164.9770269
17,"['high', 1]",1,black,45,right,up,high,black_high_45_up,white_high_135_up,12,right,0.5006485,1,12,0,None,FALSE,0,0,1,1,TRUE,FALSE,high_1,0.75,-1,3,,,,,,,,,,,165,1,3.2.2021,164.9770269
18,"['high', 3]",3,black,135,left,down,high,black_high_135_down,white_high_45_down,9,left,0.2874499,1,9,3,0,TRUE,1,0,1,1,TRUE,FALSE,high_3,0.75,-1,3,,,,,,,,,,,165,1,3.2.2021,164.9770269
19,"['high', 1]",1,black,45,right,down,high,black_high_45_down,white_high_135_down,11,left,0.4373954,0,11,1,1,FALSE,0,0,1,1,TRUE,FALSE,high_1,0.75,-1,3,,,,,,,,,,,165,1,3.2.2021,164.9770269
20,"['high', 2]",2,white,135,right,down,high,white_high_135_down,black_high_45_down,11,left,0.4354966,0,11,1,0,FALSE,0,0,1,1,TRUE,FALSE,high_2,0.75,-1,3,,,,,,,,,,,165,1,3.2.2021,164.9770269
21,"['high', 1]",1,black,45,right,up,high,black_high_45_up,white_high_135_up,14,right,0.4033711,1,14,2,0,TRUE,1,0,1,1,TRUE,FALSE,high_1,0.75,-1,3,,,,,,,,,,,165,1,3.2.2021,164.9770269
22,"['low', 6]",6,white,45,left,up,low,white_low_45_up,black_low_135_up,1,left,0.1912978,1,1,3,1,FALSE,0,0,1,1,TRUE,FALSE,low_6,0.75,-1,3,,,,,,,,,,,165,1,3.2.2021,164.9770269
23,"['low', 1]",1,white,135,right,down,low,white_low_135_down,black_low_45_down,10,right,0.1251555,1,10,2,1,TRUE,1,0,1,1,TRUE,FALSE,low_1,0.75,-1,3,,,,,,,,,,,165,1,3.2.2021,164.9770269
24,"['high', 6]",6,black,45,right,up,high,black_high_45_up,white_high_135_up,8,right,0.0409289,1,8,0,None,FALSE,0,0,1,1,TRUE,FALSE,high_6,0.75,-1,3,,,,,,,,,,,165,1,3.2.2021,164.9770269
25,"['high', 3]",3,black,135,left,down,high,black_high_135_down,white_high_45_down,8,right,0.1642915,0,8,4,1,TRUE,2,0,1,1,TRUE,FALSE,high_3,0.75,-1,3,,,,,,,,,,,165,1,3.2.2021,164.9770269
26,"['high', 6]",6,black,45,right,down,high,black_high_45_down,white_high_135_down,7,right,0.3263664,1,7,1,1,FALSE,0,0,1,1,TRUE,FALSE,high_6,0.75,-1,3,,,,,,,,,,,165,1,3.2.2021,164.9770269
27,"['high', 4]",4,white,135,right,down,high,white_high_135_down,black_high_45_down,10,right,0.24197,1,10,2,1,TRUE,1,0,1,1,TRUE,FALSE,high_4,0.75,-1,3,,,,,,,,,,,165,1,3.2.2021,164.9770269
28,"['low', 3]",3,black,45,right,down,low,black_low_45_down,white_low_135_down,4,left,0.2054165,0,4,3,0,TRUE,1,0,1,1,TRUE,FALSE,low_3,0.75,-1,3,,,,,,,,,,,165,1,3.2.2021,164.9770269
29,"['high', 2]",2,black,45,right,up,high,black_high_45_up,white_high_135_up,14,right,1.7110906,1,14,2,0,FALSE,0,0,1,1,TRUE,FALSE,high_2,0.75,-1,3,,,,,,,,,,,165,1,3.2.2021,164.9770269
30,"['high', 6]",6,white,135,right,down,high,white_high_135_down,black_high_45_down,6,left,2.4407571,0,6,2,1,FALSE,0,0,1,1,TRUE,FALSE,high_6,0.75,-1,3,,,,,,,,,,,165,1,3.2.2021,164.9770269
31,"['high', 3]",3,white,135,right,down,high,white_high_135_down,black_high_45_down,11,right,0.2115831,1,11,5,0,TRUE,3,0,1,1,TRUE,FALSE,high_3,0.75,-1,3,,,,,,,,,,,165,1,3.2.2021,164.9770269
32,"['high', 2]",2,white,135,right,up,high,white_high_135_up,black_high_45_up,13,left,0.8588074,0,13,3,1,TRUE,1,0,1,1,TRUE,FALSE,high_2,0.75,-1,3,,,,,,,,,,,165,1,3.2.2021,164.9770269
33,"['low', 2]",2,white,45,left,down,low,white_low_45_down,black_low_135_down,1,left,0.3596981,1,1,3,1,FALSE,0,0,1,1,TRUE,FALSE,low_2,0.75,-1,3,,,,,,,,,,,165,1,3.2.2021,164.9770269
34,"['low', 1]",1,white,45,left,down,low,white_low_45_down,black_low_135_down,9,left,0.6614468,1,9,3,1,FALSE,1,0,1,1,TRUE,FALSE,low_1,0.75,-1,3,,,,,,,,,,,165,1,3.2.2021,164.9770269
35,"['low', 6]",6,white,45,left,up,low,white_low_45_up,black_low_135_up,1,right,0.1435837,0,1,4,1,FALSE,0,0,1,1,TRUE,FALSE,low_6,0.75,-1,3,,,,,,,,,,,165,1,3.2.2021,164.9770269
36,"['low', 6]",6,white,135,right,down,low,white_low_135_down,black_low_45_down,4,right,0.4725589,1,4,5,0,TRUE,1,0,1,1,TRUE,FALSE,low_6,0.75,-1,3,,,,,,,,,,,165,1,3.2.2021,164.9770269
37,"['high', 2]",2,white,45,left,up,high,white_high_45_up,black_high_135_up,16,left,0.2603048,1,16,4,0,TRUE,2,0,1,1,TRUE,FALSE,high_2,0.75,-1,3,,,,,,,,,,,165,1,3.2.2021,164.9770269
38,"['high', 3]",3,white,135,right,down,high,white_high_135_down,black_high_45_down,10,right,0.0950604,1,10,6,1,TRUE,4,0,1,1,TRUE,FALSE,high_3,0.75,-1,3,,,,,,,,,,,165,1,3.2.2021,164.9770269
39,"['high', 2]",2,black,135,left,up,high,black_high_135_up,white_high_45_up,15,left,0.0230254,1,15,5,1,TRUE,3,0,1,1,TRUE,FALSE,high_2,0.75,-1,3,,,,,,,,,,,165,1,3.2.2021,164.9770269
40,"['high', 3]",3,white,45,left,up,high,white_high_45_up,black_high_135_up,9,left,0.0926104,1,9,7,1,FALSE,4,0,1,1,TRUE,FALSE,high_3,0.75,-1,3,,,,,,,,,,,165,1,3.2.2021,164.9770269
41,"['low', 1]",1,white,45,left,down,low,white_low_45_down,black_low_135_down,8,left,0.2275874,1,8,4,1,FALSE,1,0,1,1,TRUE,FALSE,low_1,0.75,-1,3,,,,,,,,,,,165,1,3.2.2021,164.9770269
42,"['high', 2]",2,black,135,left,down,high,black_high_135_down,white_high_45_down,14,right,0.5739942,0,14,6,1,FALSE,3,0,1,1,TRUE,FALSE,high_2,0.75,-1,3,,,,,,,,,,,165,1,3.2.2021,164.9770269
43,"['high', 1]",1,black,135,left,up,high,black_high_135_up,white_high_45_up,13,left,0.4942775,1,13,3,1,TRUE,2,0,1,1,TRUE,FALSE,high_1,0.75,-1,3,,,,,,,,,,,165,1,3.2.2021,164.9770269
44,"['high', 1]",1,black,135,left,up,high,black_high_135_up,white_high_45_up,12,left,0.2739152,1,12,4,1,FALSE,2,0,1,1,TRUE,FALSE,high_1,0.75,-1,3,,,,,,,,,,,165,1,3.2.2021,164.9770269
45,"['high', 3]",3,black,135,left,up,high,black_high_135_up,white_high_45_up,8,right,0.5356242,0,8,8,1,FALSE,4,0,1,1,TRUE,FALSE,high_3,0.75,-1,3,,,,,,,,,,,165,1,3.2.2021,164.9770269
46,"['low', 2]",2,black,135,left,down,low,black_low_135_down,white_low_45_down,1,left,0.2500514,1,1,4,1,FALSE,0,0,1,1,TRUE,FALSE,low_2,0.75,-1,3,,,,,,,,,,,165,1,3.2.2021,164.9770269
47,"['high', 1]",1,white,135,right,up,high,white_high_135_up,black_high_45_up,11,right,0.0259308,1,11,5,1,FALSE,2,0,1,1,TRUE,FALSE,high_1,0.75,-1,3,,,,,,,,,,,165,1,3.2.2021,164.9770269
48,"['low', 1]",1,white,45,left,up,low,white_low_45_up,black_low_135_up,7,left,0.485577,1,7,5,1,FALSE,1,0,1,1,TRUE,FALSE,low_1,0.75,-1,3,,,,,,,,,,,165,1,3.2.2021,164.9770269
49,"['low', 4]",4,black,135,left,down,low,black_low_135_down,white_low_45_down,3,right,0.3251034,0,3,0,None,FALSE,0,0,1,1,TRUE,FALSE,low_4,0.75,-1,3,,,,,,,,,,,165,1,3.2.2021,164.9770269
50,"['high', 6]",6,black,45,right,down,high,black_high_45_down,white_high_135_down,9,right,0.4502728,1,9,3,0,TRUE,1,0,1,1,TRUE,FALSE,high_6,0.75,-1,3,,,,,,,,,,,165,1,3.2.2021,164.9770269
51,"['high', 4]",4,white,135,right,up,high,white_high_135_up,black_high_45_up,9,right,0.0574682,1,9,3,1,FALSE,1,0,1,1,TRUE,FALSE,high_4,0.75,-1,3,,,,,,,,,,,165,1,3.2.2021,164.9770269
52,"['high', 2]",2,black,45,right,down,high,black_high_45_down,white_high_135_down,17,left,0.1006427,0,17,7,0,TRUE,4,0,1,1,TRUE,FALSE,high_2,0.75,-1,3,,,,,,,,,,,165,1,3.2.2021,164.9770269
53,"['high', 1]",1,black,135,left,up,high,black_high_135_up,white_high_45_up,10,left,0.7162404,1,10,6,1,FALSE,2,0,1,1,TRUE,FALSE,high_1,0.75,-1,3,,,,,,,,,,,165,1,3.2.2021,164.9770269
54,"['low', 6]",6,black,135,left,down,low,black_low_135_down,white_low_45_down,3,right,0.403259,0,3,6,1,TRUE,2,0,1,1,TRUE,FALSE,low_6,0.75,-1,3,,,,,,,,,,,165,1,3.2.2021,164.9770269
55,"['high', 3]",3,white,45,left,up,high,white_high_45_up,black_high_135_up,11,left,0.0291816,1,11,9,0,TRUE,5,1,1,1,TRUE,FALSE,high_3,0.75,-1,3,,,,,,,,,,,165,1,3.2.2021,164.9770269
56,"['high', 4]",4,black,135,left,down,high,black_high_135_down,white_high_45_down,8,right,0.3826542,0,8,4,1,FALSE,1,0,1,1,TRUE,FALSE,high_4,0.75,-1,3,,,,,,,,,,,165,1,3.2.2021,164.9770269
57,"['low', 2]",2,white,45,left,down,low,white_low_45_down,black_low_135_down,1,right,0.231943,0,1,5,1,FALSE,0,0,1,1,TRUE,FALSE,low_2,0.75,-1,3,,,,,,,,,,,165,1,3.2.2021,164.9770269
58,"['high', 3]",3,white,135,right,up,high,white_high_135_up,black_high_45_up,10,right,0.1101115,1,10,10,1,TRUE,6,1,1,1,TRUE,FALSE,high_3,0.75,-1,3,,,,,,,,,,,165,1,3.2.2021,164.9770269
59,"['high', 4]",4,white,45,left,up,high,white_high_45_up,black_high_135_up,11,left,0.6169991,1,11,5,0,TRUE,2,0,1,1,TRUE,FALSE,high_4,0.75,-1,3,,,,,,,,,,,165,1,3.2.2021,164.9770269
60,"['low', 2]",2,black,45,right,up,low,black_low_45_up,white_low_135_up,4,left,0.247139,0,4,6,0,TRUE,1,0,1,1,TRUE,FALSE,low_2,0.75,-1,3,,,,,,,,,,,165,1,3.2.2021,164.9770269
61,"['high', 2]",2,black,135,left,up,high,black_high_135_up,white_high_45_up,20,right,0.0772887,0,20,8,0,FALSE,4,0,1,1,TRUE,FALSE,high_2,0.75,-1,3,,,,,,,,,,,165,1,3.2.2021,164.9770269
62,"['high', 6]",6,white,45,left,up,high,white_high_45_up,black_high_135_up,8,left,0.5294129,1,8,4,1,TRUE,2,0,1,1,TRUE,FALSE,high_6,0.75,-1,3,,,,,,,,,,,165,1,3.2.2021,164.9770269
63,"['high', 6]",6,black,45,right,down,high,black_high_45_down,white_high_135_down,7,right,0.3478902,1,7,5,1,FALSE,2,0,1,1,TRUE,FALSE,high_6,0.75,-1,3,,,,,,,,,,,165,1,3.2.2021,164.9770269
64,"['high', 4]",4,white,135,right,down,high,white_high_135_down,black_high_45_down,10,right,0.4004482,1,10,6,1,TRUE,3,0,1,1,TRUE,FALSE,high_4,0.75,-1,3,,,,,,,,,,,165,1,3.2.2021,164.9770269
65,"['high', 4]",4,white,45,left,up,high,white_high_45_up,black_high_135_up,9,left,0.4329961,1,9,7,1,FALSE,3,0,1,1,TRUE,FALSE,high_4,0.75,-1,3,,,,,,,,,,,165,1,3.2.2021,164.9770269
66,"['high', 1]",1,white,45,left,up,high,white_high_45_up,black_high_135_up,9,left,0.4424715,1,9,7,1,FALSE,2,0,1,1,TRUE,FALSE,high_1,0.75,-1,3,,,,,,,,,,,165,1,3.2.2021,164.9770269
67,"['low', 4]",4,black,45,right,up,low,black_low_45_up,white_low_135_up,6,right,0.5057698,1,6,1,0,FALSE,0,0,1,1,TRUE,FALSE,low_4,0.75,-1,3,,,,,,,,,,,165,1,3.2.2021,164.9770269
68,"['high', 1]",1,black,135,left,up,high,black_high_135_up,white_high_45_up,8,right,0.4474063,0,8,8,1,FALSE,2,0,1,1,TRUE,FALSE,high_1,0.75,-1,3,,,,,,,,,,,165,1,3.2.2021,164.9770269
69,"['high', 1]",1,black,45,right,up,high,black_high_45_up,white_high_135_up,11,left,0.2739628,0,11,9,0,TRUE,3,0,1,1,TRUE,FALSE,high_1,0.75,-1,3,,,,,,,,,,,165,1,3.2.2021,164.9770269
70,"['low', 1]",1,white,45,left,up,low,white_low_45_up,black_low_135_up,6,left,0.292503,1,6,6,1,FALSE,1,0,1,1,TRUE,FALSE,low_1,0.75,-1,3,,,,,,,,,,,165,1,3.2.2021,164.9770269
71,"['low', 6]",6,black,45,right,down,low,black_low_45_down,white_low_135_down,6,right,0.4865262,1,6,7,0,TRUE,3,0,1,1,TRUE,FALSE,low_6,0.75,-1,3,,,,,,,,,,,165,1,3.2.2021,164.9770269
72,"['low', 2]",2,black,135,left,down,low,black_low_135_down,white_low_45_down,7,right,0.2008646,0,7,7,0,FALSE,1,0,1,1,TRUE,FALSE,low_2,0.75,-1,3,,,,,,,,,,,165,1,3.2.2021,164.9770269
73,"['low', 2]",2,black,135,left,down,low,black_low_135_down,white_low_45_down,10,right,0.4393398,0,10,8,0,FALSE,1,0,1,1,TRUE,FALSE,low_2,0.75,-1,3,,,,,,,,,,,165,1,3.2.2021,164.9770269
74,"['low', 4]",4,white,45,left,up,low,white_low_45_up,black_low_135_up,5,left,0.5009466,1,5,2,1,TRUE,1,0,1,1,TRUE,FALSE,low_4,0.75,-1,3,,,,,,,,,,,165,1,3.2.2021,164.9770269
75,"['low', 4]",4,black,135,left,down,low,black_low_135_down,white_low_45_down,4,right,0.4286371,0,4,3,1,FALSE,1,0,1,1,TRUE,FALSE,low_4,0.75,-1,3,,,,,,,,,,,165,1,3.2.2021,164.9770269
76,"['high', 3]",3,black,135,left,up,high,black_high_135_up,white_high_45_up,9,left,0.1459721,1,9,11,1,FALSE,6,1,1,1,TRUE,FALSE,high_3,0.75,-1,3,,,,,,,,,,,165,1,3.2.2021,164.9770269
77,"['high', 4]",4,black,135,left,up,high,black_high_135_up,white_high_45_up,8,left,0.4734609,1,8,8,1,FALSE,3,0,1,1,TRUE,FALSE,high_4,0.75,-1,3,,,,,,,,,,,165,1,3.2.2021,164.9770269
78,"['high', 2]",2,white,135,right,down,high,white_high_135_down,black_high_45_down,23,right,0.5155579,1,23,9,0,FALSE,4,0,1,1,TRUE,FALSE,high_2,0.75,-1,3,,,,,,,,,,,165,1,3.2.2021,164.9770269
79,"['high', 3]",3,white,135,right,up,high,white_high_135_up,black_high_45_up,8,right,0.2994414,1,8,12,1,FALSE,6,1,1,1,TRUE,FALSE,high_3,0.75,-1,3,,,,,,,,,,,165,1,3.2.2021,164.9770269
80,"['low', 4]",4,white,135,right,up,low,white_low_135_up,black_low_45_up,7,right,0.1632879,1,7,4,0,TRUE,2,0,1,1,TRUE,FALSE,low_4,0.75,-1,3,,,,,,,,,,,165,1,3.2.2021,164.9770269
81,"['high', 1]",1,black,45,right,down,high,black_high_45_down,white_high_135_down,14,left,0.2501339,0,14,10,0,FALSE,3,0,1,1,TRUE,FALSE,high_1,0.75,-1,3,,,,,,,,,,,165,1,3.2.2021,164.9770269
82,"['low', 3]",3,black,135,left,up,low,black_low_135_up,white_low_45_up,7,right,0.4567015,0,7,4,0,FALSE,1,0,1,1,TRUE,FALSE,low_3,0.75,-1,3,,,,,,,,,,,165,1,3.2.2021,164.9770269
83,"['high', 1]",1,black,45,right,up,high,black_high_45_up,white_high_135_up,17,left,0.3320342,0,17,11,0,FALSE,3,0,1,1,TRUE,FALSE,high_1,0.75,-1,3,,,,,,,,,,,165,1,3.2.2021,164.9770269
84,"['high', 1]",1,white,45,left,up,high,white_high_45_up,black_high_135_up,20,left,0.2929296,1,20,12,0,FALSE,3,0,1,1,TRUE,FALSE,high_1,0.75,-1,3,,,,,,,,,,,165,1,3.2.2021,164.9770269
85,"['high', 1]",1,white,135,right,up,high,white_high_135_up,black_high_45_up,19,right,0.2365622,1,19,13,1,TRUE,4,0,1,1,TRUE,FALSE,high_1,0.75,-1,3,,,,,,,,,,,165,1,3.2.2021,164.9770269
86,"['high', 6]",6,black,135,left,down,high,black_high_135_down,white_high_45_down,6,left,0.837375,1,6,6,1,FALSE,2,0,1,1,TRUE,FALSE,high_6,0.75,-1,3,,,,,,,,,,,165,1,3.2.2021,164.9770269
87,"['high', 4]",4,black,45,right,down,high,black_high_45_down,white_high_135_down,7,left,0.690715,0,7,9,1,FALSE,3,0,1,1,TRUE,FALSE,high_4,0.75,-1,3,,,,,,,,,,,165,1,3.2.2021,164.9770269
88,"['low', 4]",4,black,45,right,down,low,black_low_45_down,white_low_135_down,6,right,0.2408341,1,6,5,1,TRUE,3,0,1,1,TRUE,FALSE,low_4,0.75,-1,3,,,,,,,,,,,165,1,3.2.2021,164.9770269
89,"['high', 2]",2,white,135,right,down,high,white_high_135_down,black_high_45_down,22,right,0.5476926,1,22,10,1,TRUE,5,1,1,1,TRUE,FALSE,high_2,0.75,-1,3,,,,,,,,,,,165,1,3.2.2021,164.9770269
90,"['low', 3]",3,black,135,left,down,low,black_low_135_down,white_low_45_down,10,right,0.1381605,0,10,5,0,FALSE,1,0,1,1,TRUE,FALSE,low_3,0.75,-1,3,,,,,,,,,,,165,1,3.2.2021,164.9770269
91,"['low', 1]",1,black,45,right,down,low,black_low_45_down,white_low_135_down,5,right,0.7630831,1,5,7,1,FALSE,1,0,1,1,TRUE,FALSE,low_1,0.75,-1,3,,,,,,,,,,,165,1,3.2.2021,164.9770269
92,"['low', 2]",2,black,45,right,down,low,black_low_45_down,white_low_135_down,13,left,0.8587949,0,13,9,0,FALSE,1,0,1,1,TRUE,FALSE,low_2,0.75,-1,3,,,,,,,,,,,165,1,3.2.2021,164.9770269
93,"['low', 4]",4,black,45,right,down,low,black_low_45_down,white_low_135_down,5,right,0.5037282,1,5,6,1,FALSE,3,0,1,1,TRUE,FALSE,low_4,0.75,-1,3,,,,,,,,,,,165,1,3.2.2021,164.9770269
94,"['low', 3]",3,black,45,right,down,low,black_low_45_down,white_low_135_down,13,right,0.2532418,1,13,6,0,FALSE,1,0,1,1,TRUE,FALSE,low_3,0.75,-1,3,,,,,,,,,,,165,1,3.2.2021,164.9770269
95,"['high', 6]",6,white,45,left,up,high,white_high_45_up,black_high_135_up,5,left,0.1596798,1,5,7,1,FALSE,2,0,1,1,TRUE,FALSE,high_6,0.75,-1,3,,,,,,,,,,,165,1,3.2.2021,164.9770269
96,"['low', 1]",1,white,45,left,up,low,white_low_45_up,black_low_135_up,4,left,0.2886689,1,4,8,1,FALSE,1,0,1,1,TRUE,FALSE,low_1,0.75,-1,3,,,,,,,,,,,165,1,3.2.2021,164.9770269
97,"['high', 3]",3,black,135,left,up,high,black_high_135_up,white_high_45_up,7,left,0.0121503,1,7,13,1,FALSE,6,1,1,1,TRUE,FALSE,high_3,0.75,-1,3,,,,,,,,,,,165,1,3.2.2021,164.9770269
98,"['low', 1]",1,black,135,left,down,low,black_low_135_down,white_low_45_down,3,left,0.960935,1,3,9,1,FALSE,1,0,1,1,TRUE,FALSE,low_1,0.75,-1,3,,,,,,,,,,,165,1,3.2.2021,164.9770269
99,"['high', 6]",6,black,135,left,up,high,black_high_135_up,white_high_45_up,4,right,0.410754,0,4,8,1,FALSE,2,0,1,1,TRUE,FALSE,high_6,0.75,-1,3,,,,,,,,,,,165,1,3.2.2021,164.9770269
100,"['low', 4]",4,white,135,right,up,low,white_low_135_up,black_low_45_up,4,right,0.2372384,1,4,7,1,FALSE,3,0,1,1,TRUE,FALSE,low_4,0.75,-1,3,,,,,,,,,,,165,1,3.2.2021,164.9770269
101,"['low', 3]",3,white,135,right,up,low,white_low_135_up,black_low_45_up,12,right,0.0393813,1,12,7,1,TRUE,2,0,1,1,TRUE,FALSE,low_3,0.75,-1,3,,,,,,,,,,,165,1,3.2.2021,164.9770269
102,"['high', 1]",1,black,135,left,up,high,black_high_135_up,white_high_45_up,18,left,0.5382072,1,18,14,1,FALSE,4,0,1,1,TRUE,FALSE,high_1,0.75,-1,3,,,,,,,,,,,165,1,3.2.2021,164.9770269
103,"['high', 1]",1,black,45,right,down,high,black_high_45_down,white_high_135_down,17,right,0.3928308,1,17,15,1,FALSE,4,0,1,1,TRUE,FALSE,high_1,0.75,-1,3,,,,,,,,,,,165,1,3.2.2021,164.9770269
104,"['low', 6]",6,black,45,right,down,low,black_low_45_down,white_low_135_down,5,right,0.2492432,1,5,8,1,TRUE,4,0,1,1,TRUE,FALSE,low_6,0.75,-1,3,,,,,,,,,,,165,1,3.2.2021,164.9770269
105,"['low', 1]",1,white,45,left,up,low,white_low_45_up,black_low_135_up,2,right,0.5630466,0,2,10,1,FALSE,1,0,1,1,TRUE,FALSE,low_1,0.75,-1,3,,,,,,,,,,,165,1,3.2.2021,164.9770269
106,"['high', 3]",3,white,135,right,down,high,white_high_135_down,black_high_45_down,6,right,0.089945,1,6,14,1,FALSE,6,1,1,1,TRUE,FALSE,high_3,0.75,-1,3,,,,,,,,,,,165,1,3.2.2021,164.9770269
107,"['high', 1]",1,white,135,right,up,high,white_high_135_up,black_high_45_up,16,right,0.1368947,1,16,16,1,FALSE,4,0,1,1,TRUE,FALSE,high_1,0.75,-1,3,,,,,,,,,,,165,1,3.2.2021,164.9770269
108,"['low', 4]",4,black,45,right,up,low,black_low_45_up,white_low_135_up,3,right,0.2296976,1,3,8,1,FALSE,3,0,1,1,TRUE,FALSE,low_4,0.75,-1,3,,,,,,,,,,,165,1,3.2.2021,164.9770269
109,"['high', 4]",4,white,45,left,up,high,white_high_45_up,black_high_135_up,10,left,0.927599,1,10,10,0,TRUE,4,0,1,1,TRUE,FALSE,high_4,0.75,-1,3,,,,,,,,,,,165,1,3.2.2021,164.9770269
110,"['high', 6]",6,black,135,left,up,high,black_high_135_up,white_high_45_up,7,left,0.4778206,1,7,9,0,TRUE,3,0,1,1,TRUE,FALSE,high_6,0.75,-1,3,,,,,,,,,,,165,1,3.2.2021,164.9770269
111,"['high', 3]",3,white,45,left,down,high,white_high_45_down,black_high_135_down,5,right,0.3812485,0,5,15,1,FALSE,6,1,1,1,TRUE,FALSE,high_3,0.75,-1,3,,,,,,,,,,,165,1,3.2.2021,164.9770269
112,"['low', 2]",2,black,135,left,down,low,black_low_135_down,white_low_45_down,16,right,0.337215,0,16,10,0,FALSE,1,0,1,1,TRUE,FALSE,low_2,0.75,-1,3,,,,,,,,,,,165,1,3.2.2021,164.9770269
113,"['high', 3]",3,black,135,left,up,high,black_high_135_up,white_high_45_up,8,left,0.0127533,1,8,16,0,TRUE,7,1,1,1,TRUE,FALSE,high_3,0.75,-1,3,,,,,,,,,,,165,1,3.2.2021,164.9770269
114,"['low', 6]",6,white,135,right,up,low,white_low_135_up,black_low_45_up,4,right,0.3463963,1,4,9,1,FALSE,4,0,1,1,TRUE,FALSE,low_6,0.75,-1,3,,,,,,,,,,,165,1,3.2.2021,164.9770269
115,"['low', 6]",6,white,135,right,up,low,white_low_135_up,black_low_45_up,3,right,0.1485343,1,3,10,1,FALSE,4,0,1,1,TRUE,FALSE,low_6,0.75,-1,3,,,,,,,,,,,165,1,3.2.2021,164.9770269
116,"['low', 6]",6,white,135,right,down,low,white_low_135_down,black_low_45_down,2,right,0.1872553,1,2,11,1,FALSE,4,0,1,1,TRUE,FALSE,low_6,0.75,-1,3,,,,,,,,,,,165,1,3.2.2021,164.9770269
117,"['high', 2]",2,black,45,right,down,high,black_high_45_down,white_high_135_down,21,left,0.2897252,0,21,11,1,FALSE,5,1,1,1,TRUE,FALSE,high_2,0.75,-1,3,,,,,,,,,,,165,1,3.2.2021,164.9770269
118,"['high', 6]",6,white,135,right,down,high,white_high_135_down,black_high_45_down,6,right,0.4356271,1,6,10,1,TRUE,4,0,1,1,TRUE,FALSE,high_6,0.75,-1,3,,,,,,,,,,,165,1,3.2.2021,164.9770269
119,"['low', 1]",1,black,45,right,up,low,black_low_45_up,white_low_135_up,5,left,0.1950601,0,5,11,0,TRUE,2,0,1,1,TRUE,FALSE,low_1,0.75,-1,3,,,,,,,,,,,165,1,3.2.2021,164.9770269
120,"['high', 6]",6,black,135,left,up,high,black_high_135_up,white_high_45_up,5,left,0.0352526,1,5,11,1,FALSE,4,0,1,1,TRUE,FALSE,high_6,0.75,-1,3,,,,,,,,,,,165,1,3.2.2021,164.9770269
121,"['low', 4]",4,white,45,left,up,low,white_low_45_up,black_low_135_up,2,left,0.3447289,1,2,9,1,FALSE,3,0,1,1,TRUE,FALSE,low_4,0.75,-1,3,,,,,,,,,,,165,1,3.2.2021,164.9770269
122,"['high', 2]",2,white,135,right,down,high,white_high_135_down,black_high_45_down,24,right,0.1785308,1,24,12,0,TRUE,6,1,1,1,TRUE,FALSE,high_2,0.75,-1,3,,,,,,,,,,,165,1,3.2.2021,164.9770269
123,"['high', 4]",4,black,135,left,up,high,black_high_135_up,white_high_45_up,9,right,0.3128299,0,9,11,1,TRUE,5,1,1,1,TRUE,FALSE,high_4,0.75,-1,3,,,,,,,,,,,165,1,3.2.2021,164.9770269
124,"['low', 3]",3,white,45,left,up,low,white_low_45_up,black_low_135_up,11,left,0.1238001,1,11,8,1,FALSE,2,0,1,1,TRUE,FALSE,low_3,0.75,-1,3,,,,,,,,,,,165,1,3.2.2021,164.9770269
125,"['high', 3]",3,black,135,left,up,high,black_high_135_up,white_high_45_up,7,left,0.3965522,1,7,17,1,TRUE,8,1,1,1,TRUE,FALSE,high_3,0.75,-1,3,,,,,,,,,,,165,1,3.2.2021,164.9770269
126,"['low', 6]",6,black,135,left,up,low,black_low_135_up,white_low_45_up,1,left,0.1982089,1,1,12,1,FALSE,4,0,1,1,TRUE,FALSE,low_6,0.75,-1,3,,,,,,,,,,,165,1,3.2.2021,164.9770269
127,"['high', 3]",3,white,135,right,up,high,white_high_135_up,black_high_45_up,6,right,0.6740093,1,6,18,1,FALSE,8,1,1,1,TRUE,FALSE,high_3,0.75,-1,3,,,,,,,,,,,165,1,3.2.2021,164.9770269
128,"['low', 4]",4,black,45,right,down,low,black_low_45_down,white_low_135_down,1,right,0.3352776,1,1,10,1,FALSE,3,0,1,1,TRUE,FALSE,low_4,0.75,-1,3,,,,,,,,,,,165,1,3.2.2021,164.9770269
129,"['high', 2]",2,black,45,right,up,high,black_high_45_up,white_high_135_up,23,left,2.1615475,0,23,13,1,TRUE,7,1,1,1,TRUE,FALSE,high_2,0.75,-1,3,,,,,,,,,,,165,1,3.2.2021,164.9770269
130,"['high', 6]",6,black,135,left,down,high,black_high_135_down,white_high_45_down,4,left,0.3839544,1,4,12,1,FALSE,4,0,1,1,TRUE,FALSE,high_6,0.75,-1,3,,,,,,,,,,,165,1,3.2.2021,164.9770269
131,"['high', 3]",3,white,45,left,up,high,white_high_45_up,black_high_135_up,5,left,0.4456194,1,5,19,1,FALSE,8,1,1,1,TRUE,FALSE,high_3,0.75,-1,3,,,,,,,,,,,165,1,3.2.2021,164.9770269
132,"['low', 2]",2,black,45,right,down,low,black_low_45_down,white_low_135_down,19,right,0.3493747,1,19,11,0,FALSE,1,0,1,1,TRUE,FALSE,low_2,0.75,-1,3,,,,,,,,,,,165,1,3.2.2021,164.9770269
133,"['high', 3]",3,white,135,right,up,high,white_high_135_up,black_high_45_up,4,left,0.2971925,0,4,20,1,FALSE,8,1,1,1,TRUE,FALSE,high_3,0.75,-1,3,,,,,,,,,,,165,1,3.2.2021,164.9770269
134,"['low', 2]",2,black,45,right,up,low,black_low_45_up,white_low_135_up,18,right,0.8826726,1,18,12,1,TRUE,2,0,1,1,TRUE,FALSE,low_2,0.75,-1,3,,,,,,,,,,,165,1,3.2.2021,164.9770269
135,"['high', 1]",1,black,135,left,up,high,black_high_135_up,white_high_45_up,15,left,0.5257437,1,15,17,1,FALSE,4,0,1,1,TRUE,FALSE,high_1,0.75,-1,3,,,,,,,,,,,165,1,3.2.2021,164.9770269
136,"['low', 4]",4,black,45,right,up,low,black_low_45_up,white_low_135_up,1,right,0.3053133,1,1,11,1,FALSE,3,0,1,1,TRUE,FALSE,low_4,0.75,-1,3,,,,,,,,,,,165,1,3.2.2021,164.9770269
137,"['low', 4]",4,black,135,left,down,low,black_low_135_down,white_low_45_down,1,right,0.334918,0,1,12,1,FALSE,3,0,1,1,TRUE,FALSE,low_4,0.75,-1,3,,,,,,,,,,,165,1,3.2.2021,164.9770269
138,"['high', 4]",4,white,45,left,down,high,white_high_45_down,black_high_135_down,12,left,0.3405768,1,12,12,0,TRUE,6,1,1,1,TRUE,FALSE,high_4,0.75,-1,3,,,,,,,,,,,165,1,3.2.2021,164.9770269
139,"['high', 1]",1,black,45,right,down,high,black_high_45_down,white_high_135_down,14,right,0.5046489,1,14,18,1,FALSE,4,0,1,1,TRUE,FALSE,high_1,0.75,-1,3,,,,,,,,,,,165,1,3.2.2021,164.9770269
140,"['high', 3]",3,white,135,right,down,high,white_high_135_down,black_high_45_down,7,right,0.2239255,1,7,21,0,TRUE,9,1,1,1,TRUE,FALSE,high_3,0.75,-1,3,,,,,,,,,,,165,1,3.2.2021,164.9770269
141,"['high', 6]",6,black,45,right,down,high,black_high_45_down,white_high_135_down,3,right,0.6119072,1,3,13,1,FALSE,4,0,1,1,TRUE,FALSE,high_6,0.75,-1,3,,,,,,,,,,,165,1,3.2.2021,164.9770269
142,"['high', 3]",3,white,135,right,up,high,white_high_135_up,black_high_45_up,6,left,0.5587731,0,6,22,1,TRUE,10,1,1,1,TRUE,FALSE,high_3,0.75,-1,3,,,,,,,,,,,165,1,3.2.2021,164.9770269
143,"['high', 4]",4,white,45,left,down,high,white_high_45_down,black_high_135_down,11,left,0.1333931,1,11,13,1,TRUE,7,1,1,1,TRUE,FALSE,high_4,0.75,-1,3,,,,,,,,,,,165,1,3.2.2021,164.9770269
144,"['high', 4]",4,white,135,right,down,high,white_high_135_down,black_high_45_down,10,left,0.0230474,0,10,14,1,FALSE,7,1,1,1,TRUE,FALSE,high_4,0.75,-1,3,,,,,,,,,,,165,1,3.2.2021,164.9770269
145,"['high', 1]",1,black,45,right,down,high,black_high_45_down,white_high_135_down,13,left,0.3961512,0,13,19,1,FALSE,4,0,1,1,TRUE,FALSE,high_1,0.75,-1,3,,,,,,,,,,,165,1,3.2.2021,164.9770269
146,"['high', 1]",1,white,135,right,down,high,white_high_135_down,black_high_45_down,16,right,0.3828752,1,16,20,0,TRUE,5,1,1,1,TRUE,FALSE,high_1,0.75,-1,3,,,,,,,,,,,165,1,3.2.2021,164.9770269
147,"['low', 3]",3,black,135,left,up,low,black_low_135_up,white_low_45_up,10,left,0.2260295,1,10,9,1,FALSE,2,0,1,1,TRUE,FALSE,low_3,0.75,-1,3,,,,,,,,,,,165,1,3.2.2021,164.9770269
148,"['low', 6]",6,black,135,left,up,low,black_low_135_up,white_low_45_up,1,right,0.0991917,0,1,13,1,FALSE,4,0,1,1,TRUE,FALSE,low_6,0.75,-1,3,,,,,,,,,,,165,1,3.2.2021,164.9770269
149,"['low', 6]",6,white,135,right,up,low,white_low_135_up,black_low_45_up,4,right,0.4571202,1,4,14,0,TRUE,5,1,1,1,TRUE,FALSE,low_6,0.75,-1,3,,,,,,,,,,,165,1,3.2.2021,164.9770269
150,"['low', 2]",2,black,45,right,up,low,black_low_45_up,white_low_135_up,17,left,0.3221999,0,17,13,1,FALSE,2,0,1,1,TRUE,FALSE,low_2,0.75,-1,3,,,,,,,,,,,165,1,3.2.2021,164.9770269
151,"['high', 6]",6,white,45,left,up,high,white_high_45_up,black_high_135_up,2,left,0.3445241,1,2,14,1,FALSE,4,0,1,1,TRUE,FALSE,high_6,0.75,-1,3,,,,,,,,,,,165,1,3.2.2021,164.9770269
152,"['low', 2]",2,white,45,left,up,low,white_low_45_up,black_low_135_up,20,left,0.3468609,1,20,14,0,TRUE,3,0,1,1,TRUE,FALSE,low_2,0.75,-1,3,,,,,,,,,,,165,1,3.2.2021,164.9770269
153,"['low', 1]",1,black,135,left,down,low,black_low_135_down,white_low_45_down,8,right,0.1688015,0,8,12,0,FALSE,2,0,1,1,TRUE,FALSE,low_1,0.75,-1,3,,,,,,,,,,,165,1,3.2.2021,164.9770269
154,"['low', 3]",3,black,45,right,up,low,black_low_45_up,white_low_135_up,9,right,0.2545835,1,9,10,1,FALSE,2,0,1,1,TRUE,FALSE,low_3,0.75,-1,3,,,,,,,,,,,165,1,3.2.2021,164.9770269
155,"['low', 6]",6,white,135,right,up,low,white_low_135_up,black_low_45_up,3,right,0.4844202,1,3,15,1,TRUE,6,1,1,1,TRUE,FALSE,low_6,0.75,-1,3,,,,,,,,,,,165,1,3.2.2021,164.9770269
156,"['high', 3]",3,black,45,right,down,high,black_high_45_down,white_high_135_down,9,left,0.8104714,0,9,23,0,TRUE,11,1,1,1,TRUE,FALSE,high_3,0.75,-1,3,,,,,,,,,,,165,1,3.2.2021,164.9770269
157,"['high', 3]",3,white,135,right,down,high,white_high_135_down,black_high_45_down,12,right,0.1991786,1,12,24,0,FALSE,11,1,1,1,TRUE,FALSE,high_3,0.75,-1,3,,,,,,,,,,,165,1,3.2.2021,164.9770269
158,"['low', 3]",3,black,45,right,down,low,black_low_45_down,white_low_135_down,8,left,0.5817573,0,8,11,1,FALSE,2,0,1,1,TRUE,FALSE,low_3,0.75,-1,3,,,,,,,,,,,165,1,3.2.2021,164.9770269
159,"['low', 3]",3,black,45,right,up,low,black_low_45_up,white_low_135_up,11,right,0.3463251,1,11,12,0,TRUE,3,0,1,1,TRUE,FALSE,low_3,0.75,-1,3,,,,,,,,,,,165,1,3.2.2021,164.9770269
160,"['low', 3]",3,black,45,right,up,low,black_low_45_up,white_low_135_up,10,right,0.2178658,1,10,13,1,TRUE,4,0,1,1,TRUE,FALSE,low_3,0.75,-1,3,,,,,,,,,,,165,1,3.2.2021,164.9770269
161,"['high', 2]",2,black,135,left,up,high,black_high_135_up,white_high_45_up,26,left,0.2491109,1,26,14,0,TRUE,8,1,1,1,TRUE,FALSE,high_2,0.75,-1,3,,,,,,,,,,,165,1,3.2.2021,164.9770269
162,"['low', 6]",6,black,135,left,up,low,black_low_135_up,white_low_45_up,2,left,0.3016682,1,2,16,1,FALSE,6,1,1,1,TRUE,FALSE,low_6,0.75,-1,3,,,,,,,,,,,165,1,3.2.2021,164.9770269
163,"['high', 2]",2,black,45,right,up,high,black_high_45_up,white_high_135_up,25,right,0.319475,1,25,15,1,TRUE,9,1,1,1,TRUE,FALSE,high_2,0.75,-1,3,,,,,,,,,,,165,1,3.2.2021,164.9770269
164,"['high', 3]",3,white,45,left,down,high,white_high_45_down,black_high_135_down,11,left,0.2848323,1,11,25,1,TRUE,12,1,1,1,TRUE,FALSE,high_3,0.75,-1,3,,,,,,,,,,,165,1,3.2.2021,164.9770269
165,"['high', 3]",3,white,135,right,up,high,white_high_135_up,black_high_45_up,10,right,0.2346848,1,10,26,1,FALSE,12,1,1,1,TRUE,FALSE,high_3,0.75,-1,3,,,,,,,,,,,165,1,3.2.2021,164.9770269
166,"['high', 2]",2,white,135,right,down,high,white_high_135_down,black_high_45_down,24,right,0.2214537,1,24,16,1,FALSE,9,1,1,1,TRUE,FALSE,high_2,0.75,-1,3,,,,,,,,,,,165,1,3.2.2021,164.9770269
167,"['high', 3]",3,black,45,right,up,high,black_high_45_up,white_high_135_up,9,right,0.2285337,1,9,27,1,FALSE,12,1,1,1,TRUE,FALSE,high_3,0.75,-1,3,,,,,,,,,,,165,1,3.2.2021,164.9770269
168,"['high', 6]",6,white,135,right,down,high,white_high_135_down,black_high_45_down,1,left,1.2029274,0,1,15,1,FALSE,4,0,1,1,TRUE,FALSE,high_6,0.75,-1,3,,,,,,,,,,,165,1,3.2.2021,164.9770269
169,"['high', 2]",2,black,135,left,up,high,black_high_135_up,white_high_45_up,23,left,0.2727916,1,23,17,1,FALSE,9,1,1,1,TRUE,FALSE,high_2,0.75,-1,3,,,,,,,,,,,165,1,3.2.2021,164.9770269
170,"['high', 4]",4,white,135,right,down,high,white_high_135_down,black_high_45_down,13,right,0.1381732,1,13,15,0,TRUE,8,1,1,1,TRUE,FALSE,high_4,0.75,-1,3,,,,,,,,,,,165,1,3.2.2021,164.9770269
171,"['high', 4]",4,black,135,left,up,high,black_high_135_up,white_high_45_up,12,left,0.0507336,1,12,16,1,TRUE,9,1,1,1,TRUE,FALSE,high_4,0.75,-1,3,,,,,,,,,,,165,1,3.2.2021,164.9770269
172,"['high', 3]",3,black,135,left,up,high,black_high_135_up,white_high_45_up,8,left,0.1130583,1,8,28,1,FALSE,12,1,1,1,TRUE,FALSE,high_3,0.75,-1,3,,,,,,,,,,,165,1,3.2.2021,164.9770269
173,"['high', 6]",6,white,45,left,down,high,white_high_45_down,black_high_135_down,4,left,0.009548,1,4,16,0,TRUE,5,1,1,1,TRUE,FALSE,high_6,0.75,-1,3,,,,,,,,,,,165,1,3.2.2021,164.9770269
174,"['low', 4]",4,black,135,left,down,low,black_low_135_down,white_low_45_down,4,left,0.0117776,1,4,13,0,TRUE,4,0,1,1,TRUE,FALSE,low_4,0.75,-1,3,,,,,,,,,,,165,1,3.2.2021,164.9770269
175,"['low', 4]",4,black,45,right,down,low,black_low_45_down,white_low_135_down,3,left,0.0854334,0,3,14,1,TRUE,5,1,1,1,TRUE,FALSE,low_4,0.75,-1,3,,,,,,,,,,,165,1,3.2.2021,164.9770269
176,"['low', 1]",1,white,45,left,up,low,white_low_45_up,black_low_135_up,11,left,0.1364798,1,11,13,0,FALSE,2,0,1,1,TRUE,FALSE,low_1,0.75,-1,3,,,,,,,,,,,165,1,3.2.2021,164.9770269
177,"['high', 3]",3,black,45,right,down,high,black_high_45_down,white_high_135_down,7,right,0.1881583,1,7,29,1,FALSE,12,1,1,1,TRUE,FALSE,high_3,0.75,-1,3,,,,,,,,,,,165,1,3.2.2021,164.9770269
178,"['high', 6]",6,white,135,right,down,high,white_high_135_down,black_high_45_down,3,right,0.6567563,1,3,17,1,TRUE,6,1,1,1,TRUE,FALSE,high_6,0.75,-1,3,,,,,,,,,,,165,1,3.2.2021,164.9770269
179,"['low', 2]",2,black,45,right,down,low,black_low_45_down,white_low_135_down,19,left,0.1607672,0,19,15,1,TRUE,4,0,1,1,TRUE,FALSE,low_2,0.75,-1,3,,,,,,,,,,,165,1,3.2.2021,164.9770269
180,"['low', 2]",2,black,135,left,down,low,black_low_135_down,white_low_45_down,22,left,0.2184085,1,22,16,0,TRUE,5,1,1,1,TRUE,FALSE,low_2,0.75,-1,3,,,,,,,,,,,165,1,3.2.2021,164.9770269
181,"['low', 6]",6,white,135,right,up,low,white_low_135_up,black_low_45_up,1,right,0.2489559,1,1,17,1,FALSE,6,1,1,1,TRUE,FALSE,low_6,0.75,-1,3,,,,,,,,,,,165,1,3.2.2021,164.9770269
182,"['high', 3]",3,white,135,right,down,high,white_high_135_down,black_high_45_down,6,right,0.1305152,1,6,30,1,FALSE,12,1,1,1,TRUE,FALSE,high_3,0.75,-1,3,,,,,,,,,,,165,1,3.2.2021,164.9770269
183,"['high', 6]",6,white,45,left,down,high,white_high_45_down,black_high_135_down,2,left,0.196874,1,2,18,1,FALSE,6,1,1,1,TRUE,FALSE,high_6,0.75,-1,3,,,,,,,,,,,165,1,3.2.2021,164.9770269
184,"['high', 4]",4,white,135,right,up,high,white_high_135_up,black_high_45_up,11,right,0.4184951,1,11,17,1,FALSE,9,1,1,1,TRUE,FALSE,high_4,0.75,-1,3,,,,,,,,,,,165,1,3.2.2021,164.9770269
185,"['high', 4]",4,black,45,right,down,high,black_high_45_down,white_high_135_down,10,right,0.1393405,1,10,18,1,FALSE,9,1,1,1,TRUE,FALSE,high_4,0.75,-1,3,,,,,,,,,,,165,1,3.2.2021,164.9770269
186,"['low', 3]",3,white,45,left,down,low,white_low_45_down,black_low_135_down,9,left,0.1192543,1,9,14,1,FALSE,4,0,1,1,TRUE,FALSE,low_3,0.75,-1,3,,,,,,,,,,,165,1,3.2.2021,164.9770269
187,"['low', 6]",6,white,135,right,down,low,white_low_135_down,black_low_45_down,1,right,0.3007423,1,1,18,1,FALSE,6,1,1,1,TRUE,FALSE,low_6,0.75,-1,3,,,,,,,,,,,165,1,3.2.2021,164.9770269
188,"['low', 4]",4,black,45,right,up,low,black_low_45_up,white_low_135_up,6,right,0.1081738,1,6,15,0,TRUE,6,1,1,1,TRUE,FALSE,low_4,0.75,-1,3,,,,,,,,,,,165,1,3.2.2021,164.9770269
189,"['high', 4]",4,black,135,left,down,high,black_high_135_down,white_high_45_down,9,left,0.1935966,1,9,19,1,FALSE,9,1,1,1,TRUE,FALSE,high_4,0.75,-1,3,,,,,,,,,,,165,1,3.2.2021,164.9770269
190,"['low', 4]",4,black,45,right,up,low,black_low_45_up,white_low_135_up,5,right,0.0267136,1,5,16,1,TRUE,7,1,1,1,TRUE,FALSE,low_4,0.75,-1,3,,,,,,,,,,,165,1,3.2.2021,164.9770269
191,"['high', 3]",3,white,135,right,down,high,white_high_135_down,black_high_45_down,5,right,0.2173756,1,5,31,1,FALSE,12,1,1,1,TRUE,FALSE,high_3,0.75,-1,3,,,,,,,,,,,165,1,3.2.2021,164.9770269
192,"['high', 6]",6,white,45,left,up,high,white_high_45_up,black_high_135_up,1,left,0.3169635,1,1,19,1,FALSE,6,1,1,1,TRUE,FALSE,high_6,0.75,-1,3,,,,,,,,,,,165,1,3.2.2021,164.9770269
193,"['high', 6]",6,black,135,left,up,high,black_high_135_up,white_high_45_up,1,right,0.2773229,0,1,20,1,FALSE,6,1,1,1,TRUE,FALSE,high_6,0.75,-1,3,,,,,,,,,,,165,1,3.2.2021,164.9770269
194,"['high', 3]",3,black,45,right,up,high,black_high_45_up,white_high_135_up,4,left,0.2260651,0,4,32,1,FALSE,12,1,1,1,TRUE,FALSE,high_3,0.75,-1,3,,,,,,,,,,,165,1,3.2.2021,164.9770269
195,"['high', 1]",1,black,45,right,up,high,black_high_45_up,white_high_135_up,15,left,0.4395305,0,15,21,1,TRUE,6,1,1,1,TRUE,FALSE,high_1,0.75,-1,3,,,,,,,,,,,165,1,3.2.2021,164.9770269
196,"['low', 4]",4,white,135,right,down,low,white_low_135_down,black_low_45_down,4,right,0.0338691,1,4,17,1,FALSE,7,1,1,1,TRUE,FALSE,low_4,0.75,-1,3,,,,,,,,,,,165,1,3.2.2021,164.9770269
197,"['low', 4]",4,black,45,right,up,low,black_low_45_up,white_low_135_up,3,right,0.0623304,1,3,18,1,FALSE,7,1,1,1,TRUE,FALSE,low_4,0.75,-1,3,,,,,,,,,,,165,1,3.2.2021,164.9770269
198,"['high', 6]",6,white,45,left,up,high,white_high_45_up,black_high_135_up,4,left,0.4804967,1,4,21,0,TRUE,7,1,1,1,TRUE,FALSE,high_6,0.75,-1,3,,,,,,,,,,,165,1,3.2.2021,164.9770269
199,"['high', 2]",2,black,135,left,up,high,black_high_135_up,white_high_45_up,22,right,0.0790407,0,22,18,1,FALSE,9,1,1,1,TRUE,FALSE,high_2,0.75,-1,3,,,,,,,,,,,165,1,3.2.2021,164.9770269
200,"['high', 4]",4,white,45,left,up,high,white_high_45_up,black_high_135_up,8,left,0.1488298,1,8,20,1,FALSE,9,1,1,1,TRUE,FALSE,high_4,0.75,-1,3,,,,,,,,,,,165,1,3.2.2021,164.9770269
201,"['low', 3]",3,black,135,left,up,low,black_low_135_up,white_low_45_up,8,left,0.0095607,1,8,15,1,FALSE,4,0,1,1,TRUE,FALSE,low_3,0.75,-1,3,,,,,,,,,,,165,1,3.2.2021,164.9770269
202,"['low', 6]",6,white,45,left,down,low,white_low_45_down,black_low_135_down,1,right,0.26898,0,1,19,1,FALSE,6,1,1,1,TRUE,FALSE,low_6,0.75,-1,3,,,,,,,,,,,165,1,3.2.2021,164.9770269
203,"['high', 3]",3,white,135,right,up,high,white_high_135_up,black_high_45_up,7,right,0.1504674,1,7,33,0,TRUE,13,1,1,1,TRUE,FALSE,high_3,0.75,-1,3,,,,,,,,,,,165,1,3.2.2021,164.9770269
204,"['high', 4]",4,white,45,left,down,high,white_high_45_down,black_high_135_down,7,left,0.6575144,1,7,21,1,FALSE,9,1,1,1,TRUE,FALSE,high_4,0.75,-1,3,,,,,,,,,,,165,1,3.2.2021,164.9770269
205,"['high', 1]",1,black,135,left,down,high,black_high_135_down,white_high_45_down,18,left,0.3766927,1,18,22,0,TRUE,7,1,1,1,TRUE,FALSE,high_1,0.75,-1,3,,,,,,,,,,,165,1,3.2.2021,164.9770269
206,"['low', 3]",3,black,45,right,up,low,black_low_45_up,white_low_135_up,7,right,0.4908557,1,7,16,1,FALSE,4,0,1,1,TRUE,FALSE,low_3,0.75,-1,3,,,,,,,,,,,165,1,3.2.2021,164.9770269
207,"['high', 2]",2,black,45,right,down,high,black_high_45_down,white_high_135_down,25,right,0.3795122,1,25,19,0,TRUE,10,1,1,1,TRUE,FALSE,high_2,0.75,-1,3,,,,,,,,,,,165,1,3.2.2021,164.9770269
208,"['high', 2]",2,white,135,right,up,high,white_high_135_up,black_high_45_up,24,right,0.3189191,1,24,20,1,TRUE,11,1,1,1,TRUE,FALSE,high_2,0.75,-1,3,,,,,,,,,,,165,1,3.2.2021,164.9770269
209,"['low', 2]",2,white,45,left,up,low,white_low_45_up,black_low_135_up,21,left,0.2163007,1,21,17,1,TRUE,6,1,1,1,TRUE,FALSE,low_2,0.75,-1,3,,,,,,,,,,,165,1,3.2.2021,164.9770269
210,"['high', 4]",4,black,135,left,down,high,black_high_135_down,white_high_45_down,6,left,0.2443534,1,6,22,1,FALSE,9,1,1,1,TRUE,FALSE,high_4,0.75,-1,3,,,,,,,,,,,165,1,3.2.2021,164.9770269
211,"['low', 6]",6,black,135,left,down,low,black_low_135_down,white_low_45_down,4,left,0.2363187,1,4,20,0,TRUE,7,1,1,1,TRUE,FALSE,low_6,0.75,-1,3,,,,,,,,,,,165,1,3.2.2021,164.9770269
212,"['low', 3]",3,white,45,left,down,low,white_low_45_down,black_low_135_down,6,left,0.1781403,1,6,17,1,FALSE,4,0,1,1,TRUE,FALSE,low_3,0.75,-1,3,,,,,,,,,,,165,1,3.2.2021,164.9770269
213,"['low', 4]",4,white,135,right,down,low,white_low_135_down,black_low_45_down,2,right,0.2360507,1,2,19,1,FALSE,7,1,1,1,TRUE,FALSE,low_4,0.75,-1,3,,,,,,,,,,,165,1,3.2.2021,164.9770269
214,"['low', 2]",2,white,135,right,down,low,white_low_135_down,black_low_45_down,20,left,0.6612107,0,20,18,1,FALSE,6,1,1,1,TRUE,FALSE,low_2,0.75,-1,3,,,,,,,,,,,165,1,3.2.2021,164.9770269
215,"['low', 4]",4,black,135,left,up,low,black_low_135_up,white_low_45_up,1,left,0.3355169,1,1,20,1,FALSE,7,1,1,1,TRUE,FALSE,low_4,0.75,-1,3,,,,,,,,,,,165,1,3.2.2021,164.9770269
216,"['low', 4]",4,black,45,right,up,low,black_low_45_up,white_low_135_up,1,right,0.4659674,1,1,21,1,FALSE,7,1,1,1,TRUE,FALSE,low_4,0.75,-1,3,,,,,,,,,,,165,1,3.2.2021,164.9770269
217,"['low', 1]",1,black,135,left,down,low,black_low_135_down,white_low_45_down,10,left,0.2901378,1,10,14,1,TRUE,3,0,1,1,TRUE,FALSE,low_1,0.75,-1,3,,,,,,,,,,,165,1,3.2.2021,164.9770269
218,"['low', 3]",3,black,45,right,down,low,black_low_45_down,white_low_135_down,5,left,0.16347,0,5,18,1,FALSE,4,0,1,1,TRUE,FALSE,low_3,0.75,-1,3,,,,,,,,,,,165,1,3.2.2021,164.9770269
219,"['high', 4]",4,white,45,left,up,high,white_high_45_up,black_high_135_up,5,left,0.075655,1,5,23,1,FALSE,9,1,1,1,TRUE,FALSE,high_4,0.75,-1,3,,,,,,,,,,,165,1,3.2.2021,164.9770269
220,"['low', 2]",2,black,45,right,down,low,black_low_45_down,white_low_135_down,23,right,0.3231495,1,23,19,0,TRUE,7,1,1,1,TRUE,FALSE,low_2,0.75,-1,3,,,,,,,,,,,165,1,3.2.2021,164.9770269
221,"['low', 3]",3,white,45,left,down,low,white_low_45_down,black_low_135_down,8,left,0.5761631,1,8,19,0,TRUE,5,1,1,1,TRUE,FALSE,low_3,0.75,-1,3,,,,,,,,,,,165,1,3.2.2021,164.9770269
222,"['high', 1]",1,white,45,left,down,high,white_high_45_down,black_high_135_down,17,left,0.2217642,1,17,23,1,TRUE,8,1,1,1,TRUE,FALSE,high_1,0.75,-1,3,,,,,,,,,,,165,1,3.2.2021,164.9770269
223,"['low', 4]",4,black,45,right,down,low,black_low_45_down,white_low_135_down,1,right,0.0818505,1,1,22,1,FALSE,7,1,1,1,TRUE,FALSE,low_4,0.75,-1,3,,,,,,,,,,,165,1,3.2.2021,164.9770269
224,"['low', 6]",6,white,45,left,down,low,white_low_45_down,black_low_135_down,3,left,0.3776114,1,3,21,1,TRUE,8,1,1,1,TRUE,FALSE,low_6,0.75,-1,3,,,,,,,,,,,165,1,3.2.2021,164.9770269
225,"['high', 3]",3,white,45,left,down,high,white_high_45_down,black_high_135_down,6,left,0.2315088,1,6,34,1,TRUE,14,1,1,1,TRUE,FALSE,high_3,0.75,-1,3,,,,,,,,,,,165,1,3.2.2021,164.9770269
226,"['low', 4]",4,white,45,left,up,low,white_low_45_up,black_low_135_up,1,right,0.5553755,0,1,23,1,FALSE,7,1,1,1,TRUE,FALSE,low_4,0.75,-1,3,,,,,,,,,,,165,1,3.2.2021,164.9770269
227,"['low', 4]",4,black,135,left,up,low,black_low_135_up,white_low_45_up,4,left,0.5828985,1,4,24,0,TRUE,8,1,1,1,TRUE,FALSE,low_4,0.75,-1,3,,,,,,,,,,,165,1,3.2.2021,164.9770269
228,"['low', 6]",6,white,135,right,down,low,white_low_135_down,black_low_45_down,2,right,0.1797244,1,2,22,1,FALSE,8,1,1,1,TRUE,FALSE,low_6,0.75,-1,3,,,,,,,,,,,165,1,3.2.2021,164.9770269
229,"['low', 1]",1,black,45,right,down,low,black_low_45_down,white_low_135_down,9,right,0.1788699,1,9,15,1,FALSE,3,0,1,1,TRUE,FALSE,low_1,0.75,-1,3,,,,,,,,,,,165,1,3.2.2021,164.9770269
230,"['high', 6]",6,white,45,left,up,high,white_high_45_up,black_high_135_up,3,right,0.5371656,0,3,22,1,TRUE,8,1,1,1,TRUE,FALSE,high_6,0.75,-1,3,,,,,,,,,,,165,1,3.2.2021,164.9770269
231,"['low', 1]",1,black,45,right,down,low,black_low_45_down,white_low_135_down,8,left,0.1750016,0,8,16,1,FALSE,3,0,1,1,TRUE,FALSE,low_1,0.75,-1,3,,,,,,,,,,,165,1,3.2.2021,164.9770269
232,"['low', 6]",6,black,135,left,up,low,black_low_135_up,white_low_45_up,1,left,0.294176,1,1,23,1,FALSE,8,1,1,1,TRUE,FALSE,low_6,0.75,-1,3,,,,,,,,,,,165,1,3.2.2021,164.9770269
233,"['low', 2]",2,white,45,left,down,low,white_low_45_down,black_low_135_down,22,left,0.1187282,1,22,20,1,TRUE,8,1,1,1,TRUE,FALSE,low_2,0.75,-1,3,,,,,,,,,,,165,1,3.2.2021,164.9770269
234,"['high', 3]",3,black,45,right,up,high,black_high_45_up,white_high_135_up,5,right,0.1769449,1,5,35,1,FALSE,14,1,1,1,TRUE,FALSE,high_3,0.75,-1,3,,,,,,,,,,,165,1,3.2.2021,164.9770269
235,"['high', 3]",3,white,45,left,down,high,white_high_45_down,black_high_135_down,4,left,0.6175808,1,4,36,1,FALSE,14,1,1,1,TRUE,FALSE,high_3,0.75,-1,3,,,,,,,,,,,165,1,3.2.2021,164.9770269
236,"['low', 2]",2,black,45,right,down,low,black_low_45_down,white_low_135_down,21,left,0.3844954,0,21,21,1,FALSE,8,1,1,1,TRUE,FALSE,low_2,0.75,-1,3,,,,,,,,,,,165,1,3.2.2021,164.9770269
237,"['high', 2]",2,white,135,right,up,high,white_high_135_up,black_high_45_up,23,right,0.1481207,1,23,21,1,FALSE,11,1,1,1,TRUE,FALSE,high_2,0.75,-1,3,,,,,,,,,,,165,1,3.2.2021,164.9770269
238,"['low', 4]",4,black,45,right,up,low,black_low_45_up,white_low_135_up,3,right,0.0568823,1,3,25,1,TRUE,9,1,1,1,TRUE,FALSE,low_4,0.75,-1,3,,,,,,,,,,,165,1,3.2.2021,164.9770269
239,"['high', 4]",4,black,135,left,up,high,black_high_135_up,white_high_45_up,4,left,0.1320139,1,4,24,1,FALSE,9,1,1,1,TRUE,FALSE,high_4,0.75,-1,3,,,,,,,,,,,165,1,3.2.2021,164.9770269
240,"['low', 2]",2,black,45,right,down,low,black_low_45_down,white_low_135_down,24,left,0.2090004,0,24,22,0,TRUE,9,1,1,1,TRUE,FALSE,low_2,0.75,-1,3,,,,,,,,,,,165,1,3.2.2021,164.9770269
241,"['high', 4]",4,white,45,left,up,high,white_high_45_up,black_high_135_up,3,left,0.2104558,1,3,25,1,FALSE,9,1,1,1,TRUE,FALSE,high_4,0.75,-1,3,,,,,,,,,,,165,1,3.2.2021,164.9770269
242,"['high', 3]",3,black,135,left,up,high,black_high_135_up,white_high_45_up,3,left,0.9298729,1,3,37,1,FALSE,14,1,1,1,TRUE,FALSE,high_3,0.75,-1,3,,,,,,,,,,,165,1,3.2.2021,164.9770269
243,"['high', 6]",6,black,135,left,up,high,black_high_135_up,white_high_45_up,6,left,0.1876359,1,6,23,0,TRUE,9,1,1,1,TRUE,FALSE,high_6,0.75,-1,3,,,,,,,,,,,165,1,3.2.2021,164.9770269
244,"['high', 2]",2,black,45,right,down,high,black_high_45_down,white_high_135_down,22,right,0.4960253,1,22,22,1,FALSE,11,1,1,1,TRUE,FALSE,high_2,0.75,-1,3,,,,,,,,,,,165,1,3.2.2021,164.9770269
245,"['high', 1]",1,white,45,left,down,high,white_high_45_down,black_high_135_down,16,left,0.4176587,1,16,24,1,FALSE,8,1,1,1,TRUE,FALSE,high_1,0.75,-1,3,,,,,,,,,,,165,1,3.2.2021,164.9770269
246,"['high', 2]",2,black,135,left,up,high,black_high_135_up,white_high_45_up,21,left,0.3463529,1,21,23,1,FALSE,11,1,1,1,TRUE,FALSE,high_2,0.75,-1,3,,,,,,,,,,,165,1,3.2.2021,164.9770269
247,"['low', 2]",2,white,135,right,up,low,white_low_135_up,black_low_45_up,27,right,0.3603612,1,27,23,0,FALSE,9,1,1,1,TRUE,FALSE,low_2,0.75,-1,3,,,,,,,,,,,165,1,3.2.2021,164.9770269
248,"['low', 2]",2,white,135,right,down,low,white_low_135_down,black_low_45_down,26,right,0.4072803,1,26,24,1,TRUE,10,1,1,1,TRUE,FALSE,low_2,0.75,-1,3,,,,,,,,,,,165,1,3.2.2021,164.9770269
249,"['low', 4]",4,white,45,left,up,low,white_low_45_up,black_low_135_up,2,left,0.3180385,1,2,26,1,FALSE,9,1,1,1,TRUE,FALSE,low_4,0.75,-1,3,,,,,,,,,,,165,1,3.2.2021,164.9770269
250,"['high', 4]",4,black,135,left,down,high,black_high_135_down,white_high_45_down,2,right,0.5608104,0,2,26,1,FALSE,9,1,1,1,TRUE,FALSE,high_4,0.75,-1,3,,,,,,,,,,,165,1,3.2.2021,164.9770269
251,"['high', 4]",4,white,45,left,up,high,white_high_45_up,black_high_135_up,5,left,0.2433477,1,5,27,0,TRUE,10,1,1,1,TRUE,FALSE,high_4,0.75,-1,3,,,,,,,,,,,165,1,3.2.2021,164.9770269
252,"['high', 2]",2,white,135,right,up,high,white_high_135_up,black_high_45_up,20,right,0.6046668,1,20,24,1,FALSE,11,1,1,1,TRUE,FALSE,high_2,0.75,-1,3,,,,,,,,,,,165,1,3.2.2021,164.9770269
253,"['high', 3]",3,black,135,left,up,high,black_high_135_up,white_high_45_up,2,right,1.1562182,0,2,38,1,FALSE,14,1,1,1,TRUE,FALSE,high_3,0.75,-1,3,,,,,,,,,,,165,1,3.2.2021,164.9770269
254,"['high', 2]",2,black,45,right,up,high,black_high_45_up,white_high_135_up,19,left,0.0522083,0,19,25,1,FALSE,11,1,1,1,TRUE,FALSE,high_2,0.75,-1,3,,,,,,,,,,,165,1,3.2.2021,164.9770269
255,"['low', 6]",6,black,135,left,up,low,black_low_135_up,white_low_45_up,1,left,0.8148895,1,1,24,1,FALSE,8,1,1,1,TRUE,FALSE,low_6,0.75,-1,3,,,,,,,,,,,165,1,3.2.2021,164.9770269
256,"['low', 3]",3,black,135,left,up,low,black_low_135_up,white_low_45_up,7,left,0.0102557,1,7,20,1,TRUE,6,1,1,1,TRUE,FALSE,low_3,0.75,-1,3,,,,,,,,,,,165,1,3.2.2021,164.9770269
257,"['low', 6]",6,black,135,left,up,low,black_low_135_up,white_low_45_up,1,left,0.1481823,1,1,25,1,FALSE,8,1,1,1,TRUE,FALSE,low_6,0.75,-1,3,,,,,,,,,,,165,1,3.2.2021,164.9770269
258,"['high', 2]",2,black,135,left,down,high,black_high_135_down,white_high_45_down,22,left,0.5910334,1,22,26,0,TRUE,12,1,1,1,TRUE,FALSE,high_2,0.75,-1,3,,,,,,,,,,,165,1,3.2.2021,164.9770269
259,"['high', 1]",1,black,45,right,up,high,black_high_45_up,white_high_135_up,15,left,0.7724799,0,15,25,1,FALSE,8,1,1,1,TRUE,FALSE,high_1,0.75,-1,3,,,,,,,,,,,165,1,3.2.2021,164.9770269
260,"['low', 3]",3,white,45,left,up,low,white_low_45_up,black_low_135_up,6,left,0.1084231,1,6,21,1,FALSE,6,1,1,1,TRUE,FALSE,low_3,0.75,-1,3,,,,,,,,,,,165,1,3.2.2021,164.9770269
261,"['low', 4]",4,white,135,right,down,low,white_low_135_down,black_low_45_down,1,right,0.0447015,1,1,27,1,FALSE,9,1,1,1,TRUE,FALSE,low_4,0.75,-1,3,,,,,,,,,,,165,1,3.2.2021,164.9770269
262,"['low', 1]",1,black,45,right,down,low,black_low_45_down,white_low_135_down,11,left,0.2430179,0,11,17,0,TRUE,4,0,1,1,TRUE,FALSE,low_1,0.75,-1,3,,,,,,,,,,,165,1,3.2.2021,164.9770269
263,"['low', 6]",6,white,45,left,up,low,white_low_45_up,black_low_135_up,1,left,0.4542581,1,1,26,1,FALSE,8,1,1,1,TRUE,FALSE,low_6,0.75,-1,3,,,,,,,,,,,165,1,3.2.2021,164.9770269
264,"['high', 1]",1,white,135,right,down,high,white_high_135_down,black_high_45_down,18,right,0.6321906,1,18,26,0,TRUE,9,1,1,1,TRUE,FALSE,high_1,0.75,-1,3,,,,,,,,,,,165,1,3.2.2021,164.9770269
265,"['high', 6]",6,white,45,left,down,high,white_high_45_down,black_high_135_down,5,left,0.1000741,1,5,24,1,TRUE,10,1,1,1,TRUE,FALSE,high_6,0.75,-1,3,,,,,,,,,,,165,1,3.2.2021,164.9770269
266,"['low', 3]",3,black,135,left,up,low,black_low_135_up,white_low_45_up,5,left,0.0434408,1,5,22,1,FALSE,6,1,1,1,TRUE,FALSE,low_3,0.75,-1,3,,,,,,,,,,,165,1,3.2.2021,164.9770269
267,"['low', 4]",4,white,45,left,up,low,white_low_45_up,black_low_135_up,1,left,0.085497,1,1,28,1,FALSE,9,1,1,1,TRUE,FALSE,low_4,0.75,-1,3,,,,,,,,,,,165,1,3.2.2021,164.9770269
268,"['low', 3]",3,white,45,left,up,low,white_low_45_up,black_low_135_up,4,left,0.1922529,1,4,23,1,FALSE,6,1,1,1,TRUE,FALSE,low_3,0.75,-1,3,,,,,,,,,,,165,1,3.2.2021,164.9770269
269,"['high', 6]",6,black,45,right,up,high,black_high_45_up,white_high_135_up,4,right,0.4118181,1,4,25,1,FALSE,10,1,1,1,TRUE,FALSE,high_6,0.75,-1,3,,,,,,,,,,,165,1,3.2.2021,164.9770269
270,"['high', 6]",6,white,45,left,up,high,white_high_45_up,black_high_135_up,3,left,0.1975378,1,3,26,1,FALSE,10,1,1,1,TRUE,FALSE,high_6,0.75,-1,3,,,,,,,,,,,165,1,3.2.2021,164.9770269
271,"['high', 6]",6,white,135,right,up,high,white_high_135_up,black_high_45_up,2,right,0.2961251,1,2,27,1,FALSE,10,1,1,1,TRUE,FALSE,high_6,0.75,-1,3,,,,,,,,,,,165,1,3.2.2021,164.9770269
272,"['low', 2]",2,white,45,left,down,low,white_low_45_down,black_low_135_down,25,left,0.2976453,1,25,25,1,FALSE,10,1,1,1,TRUE,FALSE,low_2,0.75,-1,3,,,,,,,,,,,165,1,3.2.2021,164.9770269
273,"['low', 1]",1,black,45,right,down,low,black_low_45_down,white_low_135_down,14,right,0.6982248,1,14,18,0,FALSE,4,0,1,1,TRUE,FALSE,low_1,0.75,-1,3,,,,,,,,,,,165,1,3.2.2021,164.9770269
274,"['low', 4]",4,white,135,right,down,low,white_low_135_down,black_low_45_down,1,right,0.2247939,1,1,29,1,FALSE,9,1,1,1,TRUE,FALSE,low_4,0.75,-1,3,,,,,,,,,,,165,1,3.2.2021,164.9770269
275,"['low', 1]",1,black,135,left,up,low,black_low_135_up,white_low_45_up,13,right,0.3043778,0,13,19,1,TRUE,5,1,1,1,TRUE,FALSE,low_1,0.75,-1,3,,,,,,,,,,,165,1,3.2.2021,164.9770269
276,"['low', 6]",6,white,135,right,down,low,white_low_135_down,black_low_45_down,1,right,0.1942902,1,1,27,1,FALSE,8,1,1,1,TRUE,FALSE,low_6,0.75,-1,3,,,,,,,,,,,165,1,3.2.2021,164.9770269
277,"['low', 3]",3,white,135,right,up,low,white_low_135_up,black_low_45_up,3,right,0.088277,1,3,24,1,FALSE,6,1,1,1,TRUE,FALSE,low_3,0.75,-1,3,,,,,,,,,,,165,1,3.2.2021,164.9770269
278,"['low', 4]",4,black,135,left,down,low,black_low_135_down,white_low_45_down,1,left,0.319717,1,1,30,1,FALSE,9,1,1,1,TRUE,FALSE,low_4,0.75,-1,3,,,,,,,,,,,165,1,3.2.2021,164.9770269
279,"['low', 1]",1,white,45,left,down,low,white_low_45_down,black_low_135_down,16,left,0.0109752,1,16,20,0,TRUE,6,1,1,1,TRUE,FALSE,low_1,0.75,-1,3,,,,,,,,,,,165,1,3.2.2021,164.9770269
280,"['low', 4]",4,white,135,right,down,low,white_low_135_down,black_low_45_down,1,right,0.2213248,1,1,31,1,FALSE,9,1,1,1,TRUE,FALSE,low_4,0.75,-1,3,,,,,,,,,,,165,1,3.2.2021,164.9770269
281,"['low', 6]",6,black,45,right,down,low,black_low_45_down,white_low_135_down,1,right,0.2281638,1,1,28,1,FALSE,8,1,1,1,TRUE,FALSE,low_6,0.75,-1,3,,,,,,,,,,,165,1,3.2.2021,164.9770269
282,"['high', 4]",4,white,135,right,up,high,white_high_135_up,black_high_45_up,4,right,0.3097605,1,4,28,1,TRUE,11,1,1,1,TRUE,FALSE,high_4,0.75,-1,3,,,,,,,,,,,165,1,3.2.2021,164.9770269
283,"['high', 2]",2,white,135,right,up,high,white_high_135_up,black_high_45_up,21,right,0.086569,1,21,27,1,TRUE,13,1,1,1,TRUE,FALSE,high_2,0.75,-1,3,,,,,,,,,,,165,1,3.2.2021,164.9770269
284,"['high', 6]",6,white,135,right,down,high,white_high_135_down,black_high_45_down,1,right,0.3447895,1,1,28,1,FALSE,10,1,1,1,TRUE,FALSE,high_6,0.75,-1,3,,,,,,,,,,,165,1,3.2.2021,164.9770269
285,"['high', 1]",1,black,45,right,down,high,black_high_45_down,white_high_135_down,17,left,0.355294,0,17,27,1,TRUE,10,1,1,1,TRUE,FALSE,high_1,0.75,-1,3,,,,,,,,,,,165,1,3.2.2021,164.9770269
286,"['high', 2]",2,black,135,left,up,high,black_high_135_up,white_high_45_up,20,left,0.5572301,1,20,28,1,FALSE,13,1,1,1,TRUE,FALSE,high_2,0.75,-1,3,,,,,,,,,,,165,1,3.2.2021,164.9770269
287,"['high', 2]",2,white,45,left,up,high,white_high_45_up,black_high_135_up,19,left,0.1370712,1,19,29,1,FALSE,13,1,1,1,TRUE,FALSE,high_2,0.75,-1,3,,,,,,,,,,,165,1,3.2.2021,164.9770269
288,"['low', 3]",3,white,45,left,down,low,white_low_45_down,black_low_135_down,2,left,0.1861977,1,2,25,1,FALSE,6,1,1,1,TRUE,FALSE,low_3,0.75,-1,3,,,,,,,,,,,165,1,3.2.2021,164.9770269
289,"['low', 3]",3,white,135,right,up,low,white_low_135_up,black_low_45_up,1,right,0.1802093,1,1,26,1,FALSE,6,1,1,1,TRUE,FALSE,low_3,0.75,-1,3,,,,,,,,,,,165,1,3.2.2021,164.9770269
290,"['high', 2]",2,black,45,right,up,high,black_high_45_up,white_high_135_up,18,right,0.5391365,1,18,30,1,FALSE,13,1,1,1,TRUE,FALSE,high_2,0.75,-1,3,,,,,,,,,,,165,1,3.2.2021,164.9770269
291,"['low', 4]",4,black,45,right,down,low,black_low_45_down,white_low_135_down,1,right,0.2266593,1,1,32,1,FALSE,9,1,1,1,TRUE,FALSE,low_4,0.75,-1,3,,,,,,,,,,,165,1,3.2.2021,164.9770269
292,"['low', 6]",6,black,135,left,up,low,black_low_135_up,white_low_45_up,1,right,0.2543406,0,1,29,1,FALSE,8,1,1,1,TRUE,FALSE,low_6,0.75,-1,3,,,,,,,,,,,165,1,3.2.2021,164.9770269
293,"['low', 3]",3,white,135,right,up,low,white_low_135_up,black_low_45_up,1,right,0.1137635,1,1,27,1,FALSE,6,1,1,1,TRUE,FALSE,low_3,0.75,-1,3,,,,,,,,,,,165,1,3.2.2021,164.9770269
294,"['low', 3]",3,white,135,right,up,low,white_low_135_up,black_low_45_up,1,right,0.1237267,1,1,28,1,FALSE,6,1,1,1,TRUE,FALSE,low_3,0.75,-1,3,,,,,,,,,,,165,1,3.2.2021,164.9770269
295,"['high', 4]",4,white,135,right,up,high,white_high_135_up,black_high_45_up,3,left,0.3658367,0,3,29,1,FALSE,11,1,1,1,TRUE,FALSE,high_4,0.75,-1,3,,,,,,,,,,,165,1,3.2.2021,164.9770269
296,"['low', 1]",1,black,45,right,down,low,black_low_45_down,white_low_135_down,15,left,0.0084887,0,15,21,1,TRUE,7,1,1,1,TRUE,FALSE,low_1,0.75,-1,3,,,,,,,,,,,165,1,3.2.2021,164.9770269
297,"['low', 6]",6,white,135,right,down,low,white_low_135_down,black_low_45_down,4,right,0.5295595,1,4,30,0,TRUE,9,1,1,1,TRUE,FALSE,low_6,0.75,-1,3,,,,,,,,,,,165,1,3.2.2021,164.9770269
298,"['low', 3]",3,black,135,left,down,low,black_low_135_down,white_low_45_down,1,right,0.3621164,0,1,29,1,FALSE,6,1,1,1,TRUE,FALSE,low_3,0.75,-1,3,,,,,,,,,,,165,1,3.2.2021,164.9770269
299,"['low', 2]",2,black,45,right,up,low,black_low_45_up,white_low_135_up,24,left,0.4731646,0,24,26,1,FALSE,10,1,1,1,TRUE,FALSE,low_2,0.75,-1,3,,,,,,,,,,,165,1,3.2.2021,164.9770269
300,"['low', 4]",4,black,135,left,down,low,black_low_135_down,white_low_45_down,1,right,0.4703789,0,1,33,1,FALSE,9,1,1,1,TRUE,FALSE,low_4,0.75,-1,3,,,,,,,,,,,165,1,3.2.2021,164.9770269
301,"['high', 1]",1,black,135,left,up,high,black_high_135_up,white_high_45_up,20,left,0.2248283,1,20,28,0,TRUE,11,1,1,1,TRUE,FALSE,high_1,0.75,-1,3,,,,,,,,,,,165,1,3.2.2021,164.9770269
302,"['low', 1]",1,black,135,left,up,low,black_low_135_up,white_low_45_up,18,right,0.1746519,0,18,22,0,TRUE,8,1,1,1,TRUE,FALSE,low_1,0.75,-1,3,,,,,,,,,,,165,1,3.2.2021,164.9770269
303,"['high', 4]",4,black,135,left,up,high,black_high_135_up,white_high_45_up,6,left,0.0125783,1,6,30,0,TRUE,12,1,1,1,TRUE,FALSE,high_4,0.75,-1,3,,,,,,,,,,,165,1,3.2.2021,164.9770269
304,"['high', 3]",3,black,135,left,up,high,black_high_135_up,white_high_45_up,5,left,0.1514945,1,5,39,0,TRUE,15,1,1,1,TRUE,FALSE,high_3,0.75,-1,3,,,,,,,,,,,165,1,3.2.2021,164.9770269
305,"['low', 2]",2,black,135,left,up,low,black_low_135_up,white_low_45_up,27,right,0.6830442,0,27,27,0,TRUE,11,1,1,1,TRUE,FALSE,low_2,0.75,-1,3,,,,,,,,,,,165,1,3.2.2021,164.9770269
306,"['high', 6]",6,white,45,left,up,high,white_high_45_up,black_high_135_up,1,left,0.3758431,1,1,29,1,FALSE,10,1,1,1,TRUE,FALSE,high_6,0.75,-1,3,,,,,,,,,,,165,1,3.2.2021,164.9770269
307,"['high', 6]",6,black,45,right,up,high,black_high_45_up,white_high_135_up,1,right,0.1757902,1,1,30,1,FALSE,10,1,1,1,TRUE,FALSE,high_6,0.75,-1,3,,,,,,,,,,,165,1,3.2.2021,164.9770269
308,"['low', 3]",3,white,135,right,up,low,white_low_135_up,black_low_45_up,4,right,0.1039978,1,4,30,0,TRUE,7,1,1,1,TRUE,FALSE,low_3,0.75,-1,3,,,,,,,,,,,165,1,3.2.2021,164.9770269
309,"['high', 3]",3,black,135,left,down,high,black_high_135_down,white_high_45_down,4,right,0.2573548,0,4,40,1,TRUE,16,1,1,1,TRUE,FALSE,high_3,0.75,-1,3,,,,,,,,,,,165,1,3.2.2021,164.9770269
310,"['high', 2]",2,black,135,left,up,high,black_high_135_up,white_high_45_up,17,left,0.1465449,1,17,31,1,FALSE,13,1,1,1,TRUE,FALSE,high_2,0.75,-1,3,,,,,,,,,,,165,1,3.2.2021,164.9770269
311,"['high', 2]",2,black,45,right,up,high,black_high_45_up,white_high_135_up,16,right,0.1363599,1,16,32,1,FALSE,13,1,1,1,TRUE,FALSE,high_2,0.75,-1,3,,,,,,,,,,,165,1,3.2.2021,164.9770269
312,"['high', 6]",6,black,135,left,down,high,black_high_135_down,white_high_45_down,1,left,0.3481174,1,1,31,1,FALSE,10,1,1,1,TRUE,FALSE,high_6,0.75,-1,3,,,,,,,,,,,165,1,3.2.2021,164.9770269
313,"['low', 2]",2,white,45,left,down,low,white_low_45_down,black_low_135_down,30,left,0.0441834,1,30,28,0,FALSE,11,1,1,1,TRUE,FALSE,low_2,0.75,-1,3,,,,,,,,,,,165,1,3.2.2021,164.9770269
314,"['low', 3]",3,black,135,left,down,low,black_low_135_down,white_low_45_down,3,left,0.4857172,1,3,31,1,TRUE,8,1,1,1,TRUE,FALSE,low_3,0.75,-1,3,,,,,,,,,,,165,1,3.2.2021,164.9770269
315,"['high', 3]",3,black,45,right,down,high,black_high_45_down,white_high_135_down,7,right,0.0474841,1,7,41,0,TRUE,17,1,1,1,TRUE,FALSE,high_3,0.75,-1,3,,,,,,,,,,,165,1,3.2.2021,164.9770269
316,"['high', 1]",1,white,135,right,down,high,white_high_135_down,black_high_45_down,19,right,0.1888667,1,19,29,1,TRUE,12,1,1,1,TRUE,FALSE,high_1,0.75,-1,3,,,,,,,,,,,165,1,3.2.2021,164.9770269
317,"['low', 6]",6,white,45,left,down,low,white_low_45_down,black_low_135_down,3,left,0.2660823,1,3,31,1,TRUE,10,1,1,1,TRUE,FALSE,low_6,0.75,-1,3,,,,,,,,,,,165,1,3.2.2021,164.9770269
318,"['high', 4]",4,white,135,right,up,high,white_high_135_up,black_high_45_up,5,right,0.0488472,1,5,31,1,TRUE,13,1,1,1,TRUE,FALSE,high_4,0.75,-1,3,,,,,,,,,,,165,1,3.2.2021,164.9770269
319,"['high', 6]",6,black,135,left,down,high,black_high_135_down,white_high_45_down,1,left,0.3328263,1,1,32,1,FALSE,10,1,1,1,TRUE,FALSE,high_6,0.75,-1,3,,,,,,,,,,,165,1,3.2.2021,164.9770269
320,"['low', 1]",1,white,135,right,up,low,white_low_135_up,black_low_45_up,21,right,0.4294751,1,21,23,0,FALSE,8,1,1,1,TRUE,FALSE,low_1,0.75,-1,3,,,,,,,,,,,165,1,3.2.2021,164.9770269
321,"['high', 3]",3,black,45,right,up,high,black_high_45_up,white_high_135_up,6,right,0.3495141,1,6,42,1,TRUE,18,1,1,1,TRUE,FALSE,high_3,0.75,-1,3,,,,,,,,,,,165,1,3.2.2021,164.9770269
322,"['low', 4]",4,white,45,left,down,low,white_low_45_down,black_low_135_down,4,left,0.1191317,1,4,34,0,TRUE,10,1,1,1,TRUE,FALSE,low_4,0.75,-1,3,,,,,,,,,,,165,1,3.2.2021,164.9770269
323,"['low', 1]",1,black,45,right,down,low,black_low_45_down,white_low_135_down,20,left,0.4323475,0,20,24,1,TRUE,9,1,1,1,TRUE,FALSE,low_1,0.75,-1,3,,,,,,,,,,,165,1,3.2.2021,164.9770269
324,"['low', 4]",4,black,45,right,down,low,black_low_45_down,white_low_135_down,3,right,0.1255213,1,3,35,1,TRUE,11,1,1,1,TRUE,FALSE,low_4,0.75,-1,3,,,,,,,,,,,165,1,3.2.2021,164.9770269
325,"['high', 1]",1,white,135,right,down,high,white_high_135_down,black_high_45_down,18,right,0.018186,1,18,30,1,FALSE,12,1,1,1,TRUE,FALSE,high_1,0.75,-1,3,,,,,,,,,,,165,1,3.2.2021,164.9770269
326,"['high', 3]",3,black,45,right,down,high,black_high_45_down,white_high_135_down,5,right,0.4109024,1,5,43,1,FALSE,18,1,1,1,TRUE,FALSE,high_3,0.75,-1,3,,,,,,,,,,,165,1,3.2.2021,164.9770269
327,"['high', 6]",6,black,45,right,up,high,black_high_45_up,white_high_135_up,1,right,0.5196948,1,1,33,1,FALSE,10,1,1,1,TRUE,FALSE,high_6,0.75,-1,3,,,,,,,,,,,165,1,3.2.2021,164.9770269
328,"['high', 2]",2,black,45,right,up,high,black_high_45_up,white_high_135_up,15,left,0.2172915,0,15,33,1,FALSE,13,1,1,1,TRUE,FALSE,high_2,0.75,-1,3,,,,,,,,,,,165,1,3.2.2021,164.9770269
329,"['low', 2]",2,black,45,right,up,low,black_low_45_up,white_low_135_up,29,right,0.1349102,1,29,29,1,TRUE,12,1,1,1,TRUE,FALSE,low_2,0.75,-1,3,,,,,,,,,,,165,1,3.2.2021,164.9770269
330,"['high', 2]",2,black,45,right,up,high,black_high_45_up,white_high_135_up,18,left,0.1607091,0,18,34,0,TRUE,14,1,1,1,TRUE,FALSE,high_2,0.75,-1,3,,,,,,,,,,,165,1,3.2.2021,164.9770269
331,"['low', 3]",3,black,45,right,up,low,black_low_45_up,white_low_135_up,2,right,0.242848,1,2,32,1,FALSE,8,1,1,1,TRUE,FALSE,low_3,0.75,-1,3,,,,,,,,,,,165,1,3.2.2021,164.9770269
332,"['high', 1]",1,black,135,left,up,high,black_high_135_up,white_high_45_up,17,right,0.2771018,0,17,31,1,FALSE,12,1,1,1,TRUE,FALSE,high_1,0.75,-1,3,,,,,,,,,,,165,1,3.2.2021,164.9770269
333,"['high', 4]",4,black,135,left,down,high,black_high_135_down,white_high_45_down,4,left,0.0485553,1,4,32,1,FALSE,13,1,1,1,TRUE,FALSE,high_4,0.75,-1,3,,,,,,,,,,,165,1,3.2.2021,164.9770269
334,"['high', 2]",2,white,135,right,up,high,white_high_135_up,black_high_45_up,21,right,0.0821558,1,21,35,0,FALSE,14,1,1,1,TRUE,FALSE,high_2,0.75,-1,3,,,,,,,,,,,165,1,3.2.2021,164.9770269
335,"['low', 6]",6,white,45,left,up,low,white_low_45_up,black_low_135_up,2,left,0.3600482,1,2,32,1,FALSE,10,1,1,1,TRUE,FALSE,low_6,0.75,-1,3,,,,,,,,,,,165,1,3.2.2021,164.9770269
336,"['low', 6]",6,white,45,left,down,low,white_low_45_down,black_low_135_down,1,left,0.2099246,1,1,33,1,FALSE,10,1,1,1,TRUE,FALSE,low_6,0.75,-1,3,,,,,,,,,,,165,1,3.2.2021,164.9770269
337,"['high', 2]",2,white,45,left,down,high,white_high_45_down,black_high_135_down,20,left,0.2033416,1,20,36,1,TRUE,15,1,1,1,TRUE,FALSE,high_2,0.75,-1,3,,,,,,,,,,,165,1,3.2.2021,164.9770269
338,"['high', 1]",1,black,45,right,up,high,black_high_45_up,white_high_135_up,20,right,0.8571084,1,20,32,0,TRUE,13,1,1,1,TRUE,FALSE,high_1,0.75,-1,3,,,,,,,,,,,165,1,3.2.2021,164.9770269
339,"['low', 2]",2,white,45,left,up,low,white_low_45_up,black_low_135_up,28,left,0.1933119,1,28,30,1,FALSE,12,1,1,1,TRUE,FALSE,low_2,0.75,-1,3,,,,,,,,,,,165,1,3.2.2021,164.9770269
340,"['high', 6]",6,white,45,left,down,high,white_high_45_down,black_high_135_down,1,right,0.3342718,0,1,34,1,FALSE,10,1,1,1,TRUE,FALSE,high_6,0.75,-1,3,,,,,,,,,,,165,1,3.2.2021,164.9770269
341,"['high', 4]",4,white,135,right,up,high,white_high_135_up,black_high_45_up,3,left,0.4601512,0,3,33,1,FALSE,13,1,1,1,TRUE,FALSE,high_4,0.75,-1,3,,,,,,,,,,,165,1,3.2.2021,164.9770269
342,"['low', 1]",1,white,45,left,down,low,white_low_45_down,black_low_135_down,23,left,0.1452131,1,23,25,0,TRUE,10,1,1,1,TRUE,FALSE,low_1,0.75,-1,3,,,,,,,,,,,165,1,3.2.2021,164.9770269
343,"['high', 3]",3,black,135,left,up,high,black_high_135_up,white_high_45_up,4,right,0.0070025,0,4,44,1,FALSE,18,1,1,1,TRUE,FALSE,high_3,0.75,-1,3,,,,,,,,,,,165,1,3.2.2021,164.9770269
344,"['low', 2]",2,black,135,left,up,low,black_low_135_up,white_low_45_up,27,left,0.0478286,1,27,31,1,FALSE,12,1,1,1,TRUE,FALSE,low_2,0.75,-1,3,,,,,,,,,,,165,1,3.2.2021,164.9770269
345,"['high', 3]",3,white,135,right,down,high,white_high_135_down,black_high_45_down,7,right,0.3782781,1,7,45,0,TRUE,19,1,1,1,TRUE,FALSE,high_3,0.75,-1,3,,,,,,,,,,,165,1,3.2.2021,164.9770269
346,"['high', 3]",3,white,135,right,down,high,white_high_135_down,black_high_45_down,6,right,0.1828495,1,6,46,1,TRUE,20,1,1,1,TRUE,FALSE,high_3,0.75,-1,3,,,,,,,,,,,165,1,3.2.2021,164.9770269
347,"['high', 2]",2,white,135,right,up,high,white_high_135_up,black_high_45_up,19,right,0.1097668,1,19,37,1,FALSE,15,1,1,1,TRUE,FALSE,high_2,0.75,-1,3,,,,,,,,,,,165,1,3.2.2021,164.9770269
348,"['low', 6]",6,white,135,right,up,low,white_low_135_up,black_low_45_up,1,right,0.3444875,1,1,34,1,FALSE,10,1,1,1,TRUE,FALSE,low_6,0.75,-1,3,,,,,,,,,,,165,1,3.2.2021,164.9770269
349,"['low', 6]",6,black,45,right,up,low,black_low_45_up,white_low_135_up,1,right,0.0210241,1,1,35,1,FALSE,10,1,1,1,TRUE,FALSE,low_6,0.75,-1,3,,,,,,,,,,,165,1,3.2.2021,164.9770269
350,"['low', 6]",6,black,135,left,up,low,black_low_135_up,white_low_45_up,1,left,0.0662262,1,1,36,1,FALSE,10,1,1,1,TRUE,FALSE,low_6,0.75,-1,3,,,,,,,,,,,165,1,3.2.2021,164.9770269
351,"['low', 6]",6,white,135,right,up,low,white_low_135_up,black_low_45_up,1,right,0.2012631,1,1,37,1,FALSE,10,1,1,1,TRUE,FALSE,low_6,0.75,-1,3,,,,,,,,,,,165,1,3.2.2021,164.9770269
352,"['high', 6]",6,white,135,right,up,high,white_high_135_up,black_high_45_up,4,left,0.5231616,0,4,35,0,TRUE,11,1,1,1,TRUE,FALSE,high_6,0.75,-1,3,,,,,,,,,,,165,1,3.2.2021,164.9770269
353,"['high', 2]",2,white,45,left,up,high,white_high_45_up,black_high_135_up,18,left,0.2616075,1,18,38,1,FALSE,15,1,1,1,TRUE,FALSE,high_2,0.75,-1,3,,,,,,,,,,,165,1,3.2.2021,164.9770269
354,"['low', 2]",2,white,135,right,down,low,white_low_135_down,black_low_45_down,26,right,0.1707711,1,26,32,1,FALSE,12,1,1,1,TRUE,FALSE,low_2,0.75,-1,3,,,,,,,,,,,165,1,3.2.2021,164.9770269
355,"['low', 2]",2,white,135,right,up,low,white_low_135_up,black_low_45_up,25,right,0.287928,1,25,33,1,FALSE,12,1,1,1,TRUE,FALSE,low_2,0.75,-1,3,,,,,,,,,,,165,1,3.2.2021,164.9770269
356,"['low', 6]",6,black,45,right,down,low,black_low_45_down,white_low_135_down,1,right,0.3393925,1,1,38,1,FALSE,10,1,1,1,TRUE,FALSE,low_6,0.75,-1,3,,,,,,,,,,,165,1,3.2.2021,164.9770269
357,"['low', 6]",6,black,135,left,up,low,black_low_135_up,white_low_45_up,1,left,0.0723142,1,1,39,1,FALSE,10,1,1,1,TRUE,FALSE,low_6,0.75,-1,3,,,,,,,,,,,165,1,3.2.2021,164.9770269
358,"['high', 1]",1,white,135,right,down,high,white_high_135_down,black_high_45_down,19,right,0.2271031,1,19,33,1,TRUE,14,1,1,1,TRUE,FALSE,high_1,0.75,-1,3,,,,,,,,,,,165,1,3.2.2021,164.9770269
359,"['high', 6]",6,white,135,right,up,high,white_high_135_up,black_high_45_up,7,left,0.0103509,0,7,36,0,FALSE,11,1,1,1,TRUE,FALSE,high_6,0.75,-1,3,,,,,,,,,,,165,1,3.2.2021,164.9770269
360,"['low', 4]",4,black,135,left,up,low,black_low_135_up,white_low_45_up,2,left,0.1633142,1,2,36,1,FALSE,11,1,1,1,TRUE,FALSE,low_4,0.75,-1,3,,,,,,,,,,,165,1,3.2.2021,164.9770269
361,"['low', 1]",1,white,45,left,up,low,white_low_45_up,black_low_135_up,22,left,0.1083283,1,22,26,1,TRUE,11,1,1,1,TRUE,FALSE,low_1,0.75,-1,3,,,,,,,,,,,165,1,3.2.2021,164.9770269
362,"['high', 2]",2,white,135,right,down,high,white_high_135_down,black_high_45_down,17,right,0.1133278,1,17,39,1,FALSE,15,1,1,1,TRUE,FALSE,high_2,0.75,-1,3,,,,,,,,,,,165,1,3.2.2021,164.9770269
363,"['low', 2]",2,black,135,left,down,low,black_low_135_down,white_low_45_down,24,left,0.3578028,1,24,34,1,FALSE,12,1,1,1,TRUE,FALSE,low_2,0.75,-1,3,,,,,,,,,,,165,1,3.2.2021,164.9770269
364,"['low', 4]",4,black,135,left,up,low,black_low_135_up,white_low_45_up,1,left,0.3631055,1,1,37,1,FALSE,11,1,1,1,TRUE,FALSE,low_4,0.75,-1,3,,,,,,,,,,,165,1,3.2.2021,164.9770269
365,"['low', 3]",3,white,45,left,up,low,white_low_45_up,black_low_135_up,1,left,0.1271687,1,1,33,1,FALSE,8,1,1,1,TRUE,FALSE,low_3,0.75,-1,3,,,,,,,,,,,165,1,3.2.2021,164.9770269
366,"['low', 1]",1,white,45,left,up,low,white_low_45_up,black_low_135_up,21,left,0.1154823,1,21,27,1,FALSE,11,1,1,1,TRUE,FALSE,low_1,0.75,-1,3,,,,,,,,,,,165,1,3.2.2021,164.9770269
367,"['low', 3]",3,white,135,right,up,low,white_low_135_up,black_low_45_up,1,right,0.0541536,1,1,34,1,FALSE,8,1,1,1,TRUE,FALSE,low_3,0.75,-1,3,,,,,,,,,,,165,1,3.2.2021,164.9770269
368,"['low', 2]",2,white,45,left,up,low,white_low_45_up,black_low_135_up,23,left,1.2451472,1,23,35,1,FALSE,12,1,1,1,TRUE,FALSE,low_2,0.75,-1,3,,,,,,,,,,,165,1,3.2.2021,164.9770269
369,"['low', 6]",6,white,45,left,up,low,white_low_45_up,black_low_135_up,1,left,0.0422903,1,1,40,1,FALSE,10,1,1,1,TRUE,FALSE,low_6,0.75,-1,3,,,,,,,,,,,165,1,3.2.2021,164.9770269
370,"['high', 1]",1,black,135,left,down,high,black_high_135_down,white_high_45_down,18,right,0.1663289,0,18,34,1,FALSE,14,1,1,1,TRUE,FALSE,high_1,0.75,-1,3,,,,,,,,,,,165,1,3.2.2021,164.9770269
371,"['high', 2]",2,white,135,right,down,high,white_high_135_down,black_high_45_down,16,right,0.2502527,1,16,40,1,FALSE,15,1,1,1,TRUE,FALSE,high_2,0.75,-1,3,,,,,,,,,,,165,1,3.2.2021,164.9770269
372,"['high', 2]",2,white,45,left,up,high,white_high_45_up,black_high_135_up,15,left,0.3712386,1,15,41,1,FALSE,15,1,1,1,TRUE,FALSE,high_2,0.75,-1,3,,,,,,,,,,,165,1,3.2.2021,164.9770269
373,"['low', 6]",6,black,45,right,up,low,black_low_45_up,white_low_135_up,1,right,0.2568487,1,1,41,1,FALSE,10,1,1,1,TRUE,FALSE,low_6,0.75,-1,3,,,,,,,,,,,165,1,3.2.2021,164.9770269
374,"['low', 3]",3,white,135,right,down,low,white_low_135_down,black_low_45_down,1,right,0.2993031,1,1,35,1,FALSE,8,1,1,1,TRUE,FALSE,low_3,0.75,-1,3,,,,,,,,,,,165,1,3.2.2021,164.9770269
375,"['high', 3]",3,white,135,right,down,high,white_high_135_down,black_high_45_down,5,right,0.025619,1,5,47,1,FALSE,20,1,1,1,TRUE,FALSE,high_3,0.75,-1,3,,,,,,,,,,,165,1,3.2.2021,164.9770269
376,"['high', 6]",6,black,45,right,up,high,black_high_45_up,white_high_135_up,10,right,0.5431961,1,10,37,0,FALSE,11,1,1,1,TRUE,FALSE,high_6,0.75,-1,3,,,,,,,,,,,165,1,3.2.2021,164.9770269
377,"['low', 1]",1,white,45,left,down,low,white_low_45_down,black_low_135_down,20,left,0.3744304,1,20,28,1,FALSE,11,1,1,1,TRUE,FALSE,low_1,0.75,-1,3,,,,,,,,,,,165,1,3.2.2021,164.9770269
378,"['low', 6]",6,white,45,left,down,low,white_low_45_down,black_low_135_down,1,left,0.3009647,1,1,42,1,FALSE,10,1,1,1,TRUE,FALSE,low_6,0.75,-1,3,,,,,,,,,,,165,1,3.2.2021,164.9770269
379,"['low', 3]",3,black,45,right,down,low,black_low_45_down,white_low_135_down,1,right,0.1944762,1,1,36,1,FALSE,8,1,1,1,TRUE,FALSE,low_3,0.75,-1,3,,,,,,,,,,,165,1,3.2.2021,164.9770269
380,"['low', 3]",3,white,45,left,down,low,white_low_45_down,black_low_135_down,1,left,0.0957261,1,1,37,1,FALSE,8,1,1,1,TRUE,FALSE,low_3,0.75,-1,3,,,,,,,,,,,165,1,3.2.2021,164.9770269
381,"['low', 3]",3,white,135,right,down,low,white_low_135_down,black_low_45_down,1,right,0.0216108,1,1,38,1,FALSE,8,1,1,1,TRUE,FALSE,low_3,0.75,-1,3,,,,,,,,,,,165,1,3.2.2021,164.9770269
382,"['high', 1]",1,black,45,right,up,high,black_high_45_up,white_high_135_up,21,left,0.6908775,0,21,35,0,TRUE,15,1,1,1,TRUE,FALSE,high_1,0.75,-1,3,,,,,,,,,,,165,1,3.2.2021,164.9770269
383,"['low', 2]",2,white,45,left,down,low,white_low_45_down,black_low_135_down,22,left,0.3668581,1,22,36,1,FALSE,12,1,1,1,TRUE,FALSE,low_2,0.75,-1,3,,,,,,,,,,,165,1,3.2.2021,164.9770269
384,"['high', 2]",2,black,135,left,down,high,black_high_135_down,white_high_45_down,14,left,0.0225599,1,14,42,1,FALSE,15,1,1,1,TRUE,FALSE,high_2,0.75,-1,3,,,,,,,,,,,165,1,3.2.2021,164.9770269
385,"['low', 4]",4,white,135,right,up,low,white_low_135_up,black_low_45_up,1,right,0.0349343,1,1,38,1,FALSE,11,1,1,1,TRUE,FALSE,low_4,0.75,-1,3,,,,,,,,,,,165,1,3.2.2021,164.9770269
386,"['low', 1]",1,black,45,right,up,low,black_low_45_up,white_low_135_up,19,left,0.6143232,0,19,29,1,FALSE,11,1,1,1,TRUE,FALSE,low_1,0.75,-1,3,,,,,,,,,,,165,1,3.2.2021,164.9770269
387,"['low', 4]",4,black,135,left,up,low,black_low_135_up,white_low_45_up,1,left,0.1274188,1,1,39,1,FALSE,11,1,1,1,TRUE,FALSE,low_4,0.75,-1,3,,,,,,,,,,,165,1,3.2.2021,164.9770269
388,"['low', 6]",6,black,135,left,down,low,black_low_135_down,white_low_45_down,1,left,0.1577878,1,1,43,1,FALSE,10,1,1,1,TRUE,FALSE,low_6,0.75,-1,3,,,,,,,,,,,165,1,3.2.2021,164.9770269
389,"['high', 2]",2,black,45,right,down,high,black_high_45_down,white_high_135_down,13,left,0.2559663,0,13,43,1,FALSE,15,1,1,1,TRUE,FALSE,high_2,0.75,-1,3,,,,,,,,,,,165,1,3.2.2021,164.9770269
390,"['high', 4]",4,black,135,left,up,high,black_high_135_up,white_high_45_up,6,left,0.2170104,1,6,34,0,TRUE,14,1,1,1,TRUE,FALSE,high_4,0.75,-1,3,,,,,,,,,,,165,1,3.2.2021,164.9770269
391,"['high', 1]",1,white,135,right,down,high,white_high_135_down,black_high_45_down,24,right,0.1541763,1,24,36,0,FALSE,15,1,1,1,TRUE,FALSE,high_1,0.75,-1,3,,,,,,,,,,,165,1,3.2.2021,164.9770269
392,"['low', 6]",6,white,45,left,up,low,white_low_45_up,black_low_135_up,1,left,0.4465333,1,1,44,1,FALSE,10,1,1,1,TRUE,FALSE,low_6,0.75,-1,3,,,,,,,,,,,165,1,3.2.2021,164.9770269
393,"['low', 2]",2,black,45,right,down,low,black_low_45_down,white_low_135_down,21,right,0.363692,1,21,37,1,FALSE,12,1,1,1,TRUE,FALSE,low_2,0.75,-1,3,,,,,,,,,,,165,1,3.2.2021,164.9770269
394,"['low', 3]",3,black,45,right,up,low,black_low_45_up,white_low_135_up,1,right,0.2612191,1,1,39,1,FALSE,8,1,1,1,TRUE,FALSE,low_3,0.75,-1,3,,,,,,,,,,,165,1,3.2.2021,164.9770269
395,"['high', 3]",3,white,45,left,down,high,white_high_45_down,black_high_135_down,4,left,0.1561998,1,4,48,1,FALSE,20,1,1,1,TRUE,FALSE,high_3,0.75,-1,3,,,,,,,,,,,165,1,3.2.2021,164.9770269
396,"['high', 3]",3,black,45,right,up,high,black_high_45_up,white_high_135_up,3,right,0.1111965,1,3,49,1,FALSE,20,1,1,1,TRUE,FALSE,high_3,0.75,-1,3,,,,,,,,,,,165,1,3.2.2021,164.9770269
397,"['high', 6]",6,white,135,right,down,high,white_high_135_down,black_high_45_down,9,left,0.5811804,0,9,38,1,TRUE,12,1,1,1,TRUE,FALSE,high_6,0.75,-1,3,,,,,,,,,,,165,1,3.2.2021,164.9770269
398,"['low', 1]",1,black,45,right,up,low,black_low_45_up,white_low_135_up,22,left,0.1771985,0,22,30,0,TRUE,12,1,1,1,TRUE,FALSE,low_1,0.75,-1,3,,,,,,,,,,,165,1,3.2.2021,164.9770269
399,"['high', 3]",3,black,45,right,up,high,black_high_45_up,white_high_135_up,2,right,0.6337473,1,2,50,1,FALSE,20,1,1,1,TRUE,FALSE,high_3,0.75,-1,3,,,,,,,,,,,165,1,3.2.2021,164.9770269
400,"['low', 2]",2,black,135,left,up,low,black_low_135_up,white_low_45_up,20,left,0.5123827,1,20,38,1,FALSE,12,1,1,1,TRUE,FALSE,low_2,0.75,-1,3,,,,,,,,,,,165,1,3.2.2021,164.9770269
401,"['high', 6]",6,black,135,left,up,high,black_high_135_up,white_high_45_up,12,left,0.906998,1,12,39,0,TRUE,13,1,1,1,TRUE,FALSE,high_6,0.75,-1,3,,,,,,,,,,,165,1,3.2.2021,164.9770269
402,"['high', 4]",4,black,135,left,up,high,black_high_135_up,white_high_45_up,5,left,0.286065,1,5,35,1,TRUE,15,1,1,1,TRUE,FALSE,high_4,0.75,-1,3,,,,,,,,,,,165,1,3.2.2021,164.9770269
403,"['low', 1]",1,white,45,left,up,low,white_low_45_up,black_low_135_up,25,left,0.2124534,1,25,31,0,FALSE,12,1,1,1,TRUE,FALSE,low_1,0.75,-1,3,,,,,,,,,,,165,1,3.2.2021,164.9770269
404,"['low', 2]",2,black,135,left,down,low,black_low_135_down,white_low_45_down,19,right,0.3421663,0,19,39,1,FALSE,12,1,1,1,TRUE,FALSE,low_2,0.75,-1,3,,,,,,,,,,,165,1,3.2.2021,164.9770269
405,"['low', 1]",1,black,135,left,down,low,black_low_135_down,white_low_45_down,24,right,0.2042268,0,24,32,1,TRUE,13,1,1,1,TRUE,FALSE,low_1,0.75,-1,3,,,,,,,,,,,165,1,3.2.2021,164.9770269
406,"['high', 6]",6,black,45,right,down,high,black_high_45_down,white_high_135_down,11,right,0.4653348,1,11,40,1,TRUE,14,1,1,1,TRUE,FALSE,high_6,0.75,-1,3,,,,,,,,,,,165,1,3.2.2021,164.9770269
407,"['low', 4]",4,white,45,left,up,low,white_low_45_up,black_low_135_up,1,left,0.2011267,1,1,40,1,FALSE,11,1,1,1,TRUE,FALSE,low_4,0.75,-1,3,,,,,,,,,,,165,1,3.2.2021,164.9770269
408,"['low', 6]",6,white,135,right,down,low,white_low_135_down,black_low_45_down,1,right,0.1648887,1,1,45,1,FALSE,10,1,1,1,TRUE,FALSE,low_6,0.75,-1,3,,,,,,,,,,,165,1,3.2.2021,164.9770269
409,"['low', 1]",1,black,45,right,down,low,black_low_45_down,white_low_135_down,27,left,0.0540477,0,27,33,0,TRUE,14,1,1,1,TRUE,FALSE,low_1,0.75,-1,3,,,,,,,,,,,165,1,3.2.2021,164.9770269
410,"['low', 6]",6,black,45,right,up,low,black_low_45_up,white_low_135_up,1,left,0.2966383,0,1,46,1,FALSE,10,1,1,1,TRUE,FALSE,low_6,0.75,-1,3,,,,,,,,,,,165,1,3.2.2021,164.9770269
411,"['low', 4]",4,white,45,left,down,low,white_low_45_down,black_low_135_down,1,left,0.1221207,1,1,41,1,FALSE,11,1,1,1,TRUE,FALSE,low_4,0.75,-1,3,,,,,,,,,,,165,1,3.2.2021,164.9770269
412,"['low', 3]",3,black,135,left,down,low,black_low_135_down,white_low_45_down,1,left,0.1991653,1,1,40,1,FALSE,8,1,1,1,TRUE,FALSE,low_3,0.75,-1,3,,,,,,,,,,,165,1,3.2.2021,164.9770269
413,"['low', 4]",4,white,135,right,up,low,white_low_135_up,black_low_45_up,1,right,0.1996985,1,1,42,1,FALSE,11,1,1,1,TRUE,FALSE,low_4,0.75,-1,3,,,,,,,,,,,165,1,3.2.2021,164.9770269
414,"['low', 2]",2,white,45,left,up,low,white_low_45_up,black_low_135_up,22,left,0.0223564,1,22,40,0,TRUE,13,1,1,1,TRUE,FALSE,low_2,0.75,-1,3,,,,,,,,,,,165,1,3.2.2021,164.9770269
415,"['low', 2]",2,black,135,left,up,low,black_low_135_up,white_low_45_up,21,right,0.713533,0,21,41,1,TRUE,14,1,1,1,TRUE,FALSE,low_2,0.75,-1,3,,,,,,,,,,,165,1,3.2.2021,164.9770269
416,"['high', 6]",6,white,45,left,down,high,white_high_45_down,black_high_135_down,10,left,0.0404683,1,10,41,1,FALSE,14,1,1,1,TRUE,FALSE,high_6,0.75,-1,3,,,,,,,,,,,165,1,3.2.2021,164.9770269
417,"['low', 4]",4,black,135,left,down,low,black_low_135_down,white_low_45_down,1,right,0.4571062,0,1,43,1,FALSE,11,1,1,1,TRUE,FALSE,low_4,0.75,-1,3,,,,,,,,,,,165,1,3.2.2021,164.9770269
418,"['low', 6]",6,black,45,right,down,low,black_low_45_down,white_low_135_down,4,right,0.4375961,1,4,47,0,TRUE,11,1,1,1,TRUE,FALSE,low_6,0.75,-1,3,,,,,,,,,,,165,1,3.2.2021,164.9770269
419,"['high', 1]",1,black,135,left,up,high,black_high_135_up,white_high_45_up,23,right,0.2347767,0,23,37,1,TRUE,16,1,1,1,TRUE,FALSE,high_1,0.75,-1,3,,,,,,,,,,,165,1,3.2.2021,164.9770269
420,"['high', 2]",2,black,45,right,up,high,black_high_45_up,white_high_135_up,16,right,0.4159073,1,16,44,0,TRUE,16,1,1,1,TRUE,FALSE,high_2,0.75,-1,3,,,,,,,,,,,165,1,3.2.2021,164.9770269
421,"['high', 3]",3,white,45,left,up,high,white_high_45_up,black_high_135_up,1,left,0.3088446,1,1,51,1,FALSE,20,1,1,1,TRUE,FALSE,high_3,0.75,-1,3,,,,,,,,,,,165,1,3.2.2021,164.9770269
422,"['low', 4]",4,black,45,right,up,low,black_low_45_up,white_low_135_up,4,right,0.408907,1,4,44,0,TRUE,12,1,1,1,TRUE,FALSE,low_4,0.75,-1,3,,,,,,,,,,,165,1,3.2.2021,164.9770269
423,"['high', 6]",6,black,45,right,down,high,black_high_45_down,white_high_135_down,9,right,0.1876074,1,9,42,1,FALSE,14,1,1,1,TRUE,FALSE,high_6,0.75,-1,3,,,,,,,,,,,165,1,3.2.2021,164.9770269
424,"['high', 3]",3,black,45,right,down,high,black_high_45_down,white_high_135_down,1,left,0.1941036,0,1,52,1,FALSE,20,1,1,1,TRUE,FALSE,high_3,0.75,-1,3,,,,,,,,,,,165,1,3.2.2021,164.9770269
425,"['low', 1]",1,white,45,left,down,low,white_low_45_down,black_low_135_down,30,left,0.0082308,1,30,34,0,FALSE,14,1,1,1,TRUE,FALSE,low_1,0.75,-1,3,,,,,,,,,,,165,1,3.2.2021,164.9770269
426,"['low', 2]",2,black,45,right,down,low,black_low_45_down,white_low_135_down,24,right,0.0541515,1,24,42,0,TRUE,15,1,1,1,TRUE,FALSE,low_2,0.75,-1,3,,,,,,,,,,,165,1,3.2.2021,164.9770269
427,"['low', 3]",3,black,135,left,down,low,black_low_135_down,white_low_45_down,1,right,0.2235095,0,1,41,1,FALSE,8,1,1,1,TRUE,FALSE,low_3,0.75,-1,3,,,,,,,,,,,165,1,3.2.2021,164.9770269
428,"['high', 2]",2,white,45,left,down,high,white_high_45_down,black_high_135_down,15,left,0.1178231,1,15,45,1,TRUE,17,1,1,1,TRUE,FALSE,high_2,0.75,-1,3,,,,,,,,,,,165,1,3.2.2021,164.9770269
429,"['high', 4]",4,white,45,left,up,high,white_high_45_up,black_high_135_up,4,right,0.5033902,0,4,36,1,FALSE,15,1,1,1,TRUE,FALSE,high_4,0.75,-1,3,,,,,,,,,,,165,1,3.2.2021,164.9770269
430,"['low', 3]",3,white,45,left,up,low,white_low_45_up,black_low_135_up,4,left,0.3773358,1,4,42,0,TRUE,9,1,1,1,TRUE,FALSE,low_3,0.75,-1,3,,,,,,,,,,,165,1,3.2.2021,164.9770269
431,"['low', 3]",3,white,45,left,down,low,white_low_45_down,black_low_135_down,3,right,1.2519366,0,3,43,1,TRUE,10,1,1,1,TRUE,FALSE,low_3,0.75,-1,3,,,,,,,,,,,165,1,3.2.2021,164.9770269
432,"['high', 3]",3,white,135,right,down,high,white_high_135_down,black_high_45_down,4,right,0.1488792,1,4,53,0,TRUE,21,1,1,1,TRUE,FALSE,high_3,0.75,-1,3,,,,,,,,,,,165,1,3.2.2021,164.9770269
433,"['low', 2]",2,black,135,left,down,low,black_low_135_down,white_low_45_down,23,left,0.0370644,1,23,43,1,TRUE,16,1,1,1,TRUE,FALSE,low_2,0.75,-1,3,,,,,,,,,,,165,1,3.2.2021,164.9770269
434,"['high', 4]",4,white,135,right,up,high,white_high_135_up,black_high_45_up,7,right,0.7490343,1,7,37,0,TRUE,16,1,1,1,TRUE,FALSE,high_4,0.75,-1,3,,,,,,,,,,,165,1,3.2.2021,164.9770269
435,"['high', 1]",1,black,135,left,up,high,black_high_135_up,white_high_45_up,26,left,0.2400757,1,26,38,0,TRUE,17,1,1,1,TRUE,FALSE,high_1,0.75,-1,3,,,,,,,,,,,165,1,3.2.2021,164.9770269
436,"['high', 1]",1,white,135,right,down,high,white_high_135_down,black_high_45_down,25,right,0.1002138,1,25,39,1,TRUE,18,1,1,1,TRUE,FALSE,high_1,0.75,-1,3,,,,,,,,,,,165,1,3.2.2021,164.9770269
437,"['low', 6]",6,black,135,left,up,low,black_low_135_up,white_low_45_up,3,left,0.4228816,1,3,48,1,TRUE,12,1,1,1,TRUE,FALSE,low_6,0.75,-1,3,,,,,,,,,,,165,1,3.2.2021,164.9770269
438,"['low', 4]",4,white,45,left,down,low,white_low_45_down,black_low_135_down,3,left,0.3327172,1,3,45,1,TRUE,13,1,1,1,TRUE,FALSE,low_4,0.75,-1,3,,,,,,,,,,,165,1,3.2.2021,164.9770269
439,"['high', 1]",1,black,45,right,down,high,black_high_45_down,white_high_135_down,24,right,0.7264672,1,24,40,1,FALSE,18,1,1,1,TRUE,FALSE,high_1,0.75,-1,3,,,,,,,,,,,165,1,3.2.2021,164.9770269
440,"['high', 6]",6,black,135,left,down,high,black_high_135_down,white_high_45_down,8,left,0.5346589,1,8,43,1,FALSE,14,1,1,1,TRUE,FALSE,high_6,0.75,-1,3,,,,,,,,,,,165,1,3.2.2021,164.9770269
441,"['low', 1]",1,white,45,left,up,low,white_low_45_up,black_low_135_up,29,left,0.1467545,1,29,35,1,TRUE,15,1,1,1,TRUE,FALSE,low_1,0.75,-1,3,,,,,,,,,,,165,1,3.2.2021,164.9770269
442,"['high', 3]",3,black,135,left,up,high,black_high_135_up,white_high_45_up,3,left,0.2585712,1,3,54,1,TRUE,22,1,1,1,TRUE,FALSE,high_3,0.75,-1,3,,,,,,,,,,,165,1,3.2.2021,164.9770269
443,"['low', 4]",4,white,135,right,up,low,white_low_135_up,black_low_45_up,2,right,0.0301813,1,2,46,1,FALSE,13,1,1,1,TRUE,FALSE,low_4,0.75,-1,3,,,,,,,,,,,165,1,3.2.2021,164.9770269
444,"['high', 6]",6,black,45,right,down,high,black_high_45_down,white_high_135_down,7,right,0.6143873,1,7,44,1,FALSE,14,1,1,1,TRUE,FALSE,high_6,0.75,-1,3,,,,,,,,,,,165,1,3.2.2021,164.9770269
445,"['high', 1]",1,white,45,left,down,high,white_high_45_down,black_high_135_down,23,left,0.0910364,1,23,41,1,FALSE,18,1,1,1,TRUE,FALSE,high_1,0.75,-1,3,,,,,,,,,,,165,1,3.2.2021,164.9770269
446,"['high', 2]",2,black,45,right,up,high,black_high_45_up,white_high_135_up,14,right,0.3716429,1,14,46,1,FALSE,17,1,1,1,TRUE,FALSE,high_2,0.75,-1,3,,,,,,,,,,,165,1,3.2.2021,164.9770269
447,"['high', 1]",1,black,135,left,up,high,black_high_135_up,white_high_45_up,22,left,0.2264816,1,22,42,1,FALSE,18,1,1,1,TRUE,FALSE,high_1,0.75,-1,3,,,,,,,,,,,165,1,3.2.2021,164.9770269
448,"['high', 1]",1,white,135,right,up,high,white_high_135_up,black_high_45_up,21,right,0.2019547,1,21,43,1,FALSE,18,1,1,1,TRUE,FALSE,high_1,0.75,-1,3,,,,,,,,,,,165,1,3.2.2021,164.9770269
449,"['high', 3]",3,black,135,left,up,high,black_high_135_up,white_high_45_up,2,right,0.2595566,0,2,55,1,FALSE,22,1,1,1,TRUE,FALSE,high_3,0.75,-1,3,,,,,,,,,,,165,1,3.2.2021,164.9770269
450,"['high', 1]",1,white,45,left,down,high,white_high_45_down,black_high_135_down,20,left,0.3726332,1,20,44,1,FALSE,18,1,1,1,TRUE,FALSE,high_1,0.75,-1,3,,,,,,,,,,,165,1,3.2.2021,164.9770269
451,"['high', 2]",2,black,45,right,down,high,black_high_45_down,white_high_135_down,13,right,0.0543487,1,13,47,1,FALSE,17,1,1,1,TRUE,FALSE,high_2,0.75,-1,3,,,,,,,,,,,165,1,3.2.2021,164.9770269
452,"['low', 6]",6,black,45,right,down,low,black_low_45_down,white_low_135_down,2,right,0.1471978,1,2,49,1,FALSE,12,1,1,1,TRUE,FALSE,low_6,0.75,-1,3,,,,,,,,,,,165,1,3.2.2021,164.9770269
453,"['high', 1]",1,white,45,left,down,high,white_high_45_down,black_high_135_down,19,left,0.0622802,1,19,45,1,FALSE,18,1,1,1,TRUE,FALSE,high_1,0.75,-1,3,,,,,,,,,,,165,1,3.2.2021,164.9770269
454,"['low', 6]",6,white,135,right,up,low,white_low_135_up,black_low_45_up,1,right,0.0529101,1,1,50,1,FALSE,12,1,1,1,TRUE,FALSE,low_6,0.75,-1,3,,,,,,,,,,,165,1,3.2.2021,164.9770269
455,"['high', 4]",4,white,135,right,down,high,white_high_135_down,black_high_45_down,6,right,0.1699092,1,6,38,1,TRUE,17,1,1,1,TRUE,FALSE,high_4,0.75,-1,3,,,,,,,,,,,165,1,3.2.2021,164.9770269
456,"['high', 6]",6,black,45,right,up,high,black_high_45_up,white_high_135_up,6,left,0.1110174,0,6,45,1,FALSE,14,1,1,1,TRUE,FALSE,high_6,0.75,-1,3,,,,,,,,,,,165,1,3.2.2021,164.9770269
457,"['low', 4]",4,white,45,left,down,low,white_low_45_down,black_low_135_down,1,right,0.5986743,0,1,47,1,FALSE,13,1,1,1,TRUE,FALSE,low_4,0.75,-1,3,,,,,,,,,,,165,1,3.2.2021,164.9770269
458,"['low', 1]",1,white,135,right,up,low,white_low_135_up,black_low_45_up,28,right,0.1537879,1,28,36,1,FALSE,15,1,1,1,TRUE,FALSE,low_1,0.75,-1,3,,,,,,,,,,,165,1,3.2.2021,164.9770269
459,"['low', 3]",3,black,135,left,up,low,black_low_135_up,white_low_45_up,6,left,0.0444198,1,6,44,0,TRUE,11,1,1,1,TRUE,FALSE,low_3,0.75,-1,3,,,,,,,,,,,165,1,3.2.2021,164.9770269
460,"['high', 2]",2,black,135,left,down,high,black_high_135_down,white_high_45_down,12,left,0.2954506,1,12,48,1,FALSE,17,1,1,1,TRUE,FALSE,high_2,0.75,-1,3,,,,,,,,,,,165,1,3.2.2021,164.9770269
461,"['high', 4]",4,white,135,right,down,high,white_high_135_down,black_high_45_down,5,right,0.0163552,1,5,39,1,FALSE,17,1,1,1,TRUE,FALSE,high_4,0.75,-1,3,,,,,,,,,,,165,1,3.2.2021,164.9770269
462,"['low', 3]",3,black,45,right,down,low,black_low_45_down,white_low_135_down,5,right,0.0205618,1,5,45,1,TRUE,12,1,1,1,TRUE,FALSE,low_3,0.75,-1,3,,,,,,,,,,,165,1,3.2.2021,164.9770269
463,"['low', 2]",2,white,45,left,up,low,white_low_45_up,black_low_135_up,22,left,0.9250304,1,22,44,1,FALSE,16,1,1,1,TRUE,FALSE,low_2,0.75,-1,3,,,,,,,,,,,165,1,3.2.2021,164.9770269
464,"['low', 4]",4,black,45,right,down,low,black_low_45_down,white_low_135_down,4,right,0.1060037,1,4,48,0,TRUE,14,1,1,1,TRUE,FALSE,low_4,0.75,-1,3,,,,,,,,,,,165,1,3.2.2021,164.9770269
465,"['high', 1]",1,white,135,right,down,high,white_high_135_down,black_high_45_down,18,right,0.1093064,1,18,46,1,FALSE,18,1,1,1,TRUE,FALSE,high_1,0.75,-1,3,,,,,,,,,,,165,1,3.2.2021,164.9770269
466,"['low', 6]",6,black,45,right,down,low,black_low_45_down,white_low_135_down,1,right,0.0273459,1,1,51,1,FALSE,12,1,1,1,TRUE,FALSE,low_6,0.75,-1,3,,,,,,,,,,,165,1,3.2.2021,164.9770269
467,"['high', 1]",1,black,45,right,up,high,black_high_45_up,white_high_135_up,17,left,0.2711958,0,17,47,1,FALSE,18,1,1,1,TRUE,FALSE,high_1,0.75,-1,3,,,,,,,,,,,165,1,3.2.2021,164.9770269
468,"['high', 6]",6,black,135,left,down,high,black_high_135_down,white_high_45_down,9,left,0.6786649,1,9,46,0,TRUE,15,1,1,1,TRUE,FALSE,high_6,0.75,-1,3,,,,,,,,,,,165,1,3.2.2021,164.9770269
469,"['low', 1]",1,black,135,left,down,low,black_low_135_down,white_low_45_down,27,right,0.4239533,0,27,37,1,FALSE,15,1,1,1,TRUE,FALSE,low_1,0.75,-1,3,,,,,,,,,,,165,1,3.2.2021,164.9770269
470,"['high', 3]",3,black,45,right,down,high,black_high_45_down,white_high_135_down,5,right,0.1183358,1,5,56,0,TRUE,23,1,1,1,TRUE,FALSE,high_3,0.75,-1,3,,,,,,,,,,,165,1,3.2.2021,164.9770269
471,"['high', 6]",6,white,45,left,up,high,white_high_45_up,black_high_135_up,8,left,0.568503,1,8,47,1,TRUE,16,1,1,1,TRUE,FALSE,high_6,0.75,-1,3,,,,,,,,,,,165,1,3.2.2021,164.9770269
472,"['low', 1]",1,white,135,right,up,low,white_low_135_up,black_low_45_up,30,right,0.2685474,1,30,38,0,TRUE,16,1,1,1,TRUE,FALSE,low_1,0.75,-1,3,,,,,,,,,,,165,1,3.2.2021,164.9770269
473,"['low', 6]",6,black,135,left,down,low,black_low_135_down,white_low_45_down,1,left,0.2819023,1,1,52,1,FALSE,12,1,1,1,TRUE,FALSE,low_6,0.75,-1,3,,,,,,,,,,,165,1,3.2.2021,164.9770269
474,"['high', 2]",2,black,135,left,down,high,black_high_135_down,white_high_45_down,11,left,0.2152322,1,11,49,1,FALSE,17,1,1,1,TRUE,FALSE,high_2,0.75,-1,3,,,,,,,,,,,165,1,3.2.2021,164.9770269
475,"['high', 1]",1,white,135,right,up,high,white_high_135_up,black_high_45_up,20,right,0.0724718,1,20,48,0,TRUE,19,1,1,1,TRUE,FALSE,high_1,0.75,-1,3,,,,,,,,,,,165,1,3.2.2021,164.9770269
476,"['low', 3]",3,white,45,left,up,low,white_low_45_up,black_low_135_up,4,left,0.1373739,1,4,46,1,FALSE,12,1,1,1,TRUE,FALSE,low_3,0.75,-1,3,,,,,,,,,,,165,1,3.2.2021,164.9770269
477,"['high', 4]",4,white,135,right,up,high,white_high_135_up,black_high_45_up,4,right,0.22239,1,4,40,1,FALSE,17,1,1,1,TRUE,FALSE,high_4,0.75,-1,3,,,,,,,,,,,165,1,3.2.2021,164.9770269
478,"['high', 1]",1,black,135,left,down,high,black_high_135_down,white_high_45_down,19,right,0.4002319,0,19,49,1,TRUE,20,1,1,1,TRUE,FALSE,high_1,0.75,-1,3,,,,,,,,,,,165,1,3.2.2021,164.9770269
479,"['high', 3]",3,black,135,left,down,high,black_high_135_down,white_high_45_down,4,left,0.1989856,1,4,57,1,TRUE,24,1,1,1,TRUE,FALSE,high_3,0.75,-1,3,,,,,,,,,,,165,1,3.2.2021,164.9770269
480,"['low', 2]",2,black,135,left,down,low,black_low_135_down,white_low_45_down,21,right,0.0476827,0,21,45,1,FALSE,16,1,1,1,TRUE,FALSE,low_2,0.75,-1,3,,,,,,,,,,,165,1,3.2.2021,164.9770269
481,"['high', 6]",6,black,135,left,up,high,black_high_135_up,white_high_45_up,7,left,0.4385129,1,7,48,1,FALSE,16,1,1,1,TRUE,FALSE,high_6,0.75,-1,3,,,,,,,,,,,165,1,3.2.2021,164.9770269
482,"['high', 2]",2,black,45,right,up,high,black_high_45_up,white_high_135_up,10,right,0.105372,1,10,50,1,FALSE,17,1,1,1,TRUE,FALSE,high_2,0.75,-1,3,,,,,,,,,,,165,1,3.2.2021,164.9770269
483,"['low', 2]",2,white,135,right,up,low,white_low_135_up,black_low_45_up,24,right,0.0121328,1,24,46,0,TRUE,17,1,1,1,TRUE,FALSE,low_2,0.75,-1,3,,,,,,,,,,,165,1,3.2.2021,164.9770269
484,"['high', 6]",6,white,135,right,down,high,white_high_135_down,black_high_45_down,6,right,0.0981376,1,6,49,1,FALSE,16,1,1,1,TRUE,FALSE,high_6,0.75,-1,3,,,,,,,,,,,165,1,3.2.2021,164.9770269
485,"['high', 1]",1,white,135,right,up,high,white_high_135_up,black_high_45_up,22,right,0.2066807,1,22,50,0,TRUE,21,1,1,1,TRUE,FALSE,high_1,0.75,-1,3,,,,,,,,,,,165,1,3.2.2021,164.9770269
486,"['high', 6]",6,white,45,left,down,high,white_high_45_down,black_high_135_down,5,left,0.4204412,1,5,50,1,FALSE,16,1,1,1,TRUE,FALSE,high_6,0.75,-1,3,,,,,,,,,,,165,1,3.2.2021,164.9770269
487,"['low', 1]",1,white,135,right,down,low,white_low_135_down,black_low_45_down,29,right,0.0744492,1,29,39,1,TRUE,17,1,1,1,TRUE,FALSE,low_1,0.75,-1,3,,,,,,,,,,,165,1,3.2.2021,164.9770269
488,"['high', 4]",4,white,135,right,down,high,white_high_135_down,black_high_45_down,3,right,0.1967717,1,3,41,1,FALSE,17,1,1,1,TRUE,FALSE,high_4,0.75,-1,3,,,,,,,,,,,165,1,3.2.2021,164.9770269
489,"['low', 6]",6,black,135,left,down,low,black_low_135_down,white_low_45_down,1,left,0.3694669,1,1,53,1,FALSE,12,1,1,1,TRUE,FALSE,low_6,0.75,-1,3,,,,,,,,,,,165,1,3.2.2021,164.9770269
490,"['high', 2]",2,black,45,right,down,high,black_high_45_down,white_high_135_down,9,right,0.0820811,1,9,51,1,FALSE,17,1,1,1,TRUE,FALSE,high_2,0.75,-1,3,,,,,,,,,,,165,1,3.2.2021,164.9770269
491,"['high', 6]",6,black,45,right,up,high,black_high_45_up,white_high_135_up,4,left,0.8263556,0,4,51,1,FALSE,16,1,1,1,TRUE,FALSE,high_6,0.75,-1,3,,,,,,,,,,,165,1,3.2.2021,164.9770269
492,"['low', 1]",1,black,135,left,down,low,black_low_135_down,white_low_45_down,28,right,0.3663583,0,28,40,1,FALSE,17,1,1,1,TRUE,FALSE,low_1,0.75,-1,3,,,,,,,,,,,165,1,3.2.2021,164.9770269
493,"['high', 2]",2,white,135,right,up,high,white_high_135_up,black_high_45_up,8,right,0.2409169,1,8,52,1,FALSE,17,1,1,1,TRUE,FALSE,high_2,0.75,-1,3,,,,,,,,,,,165,1,3.2.2021,164.9770269
494,"['high', 4]",4,black,45,right,up,high,black_high_45_up,white_high_135_up,2,right,0.1396412,1,2,42,1,FALSE,17,1,1,1,TRUE,FALSE,high_4,0.75,-1,3,,,,,,,,,,,165,1,3.2.2021,164.9770269
495,"['high', 3]",3,white,45,left,down,high,white_high_45_down,black_high_135_down,3,left,0.1511343,1,3,58,1,FALSE,24,1,1,1,TRUE,FALSE,high_3,0.75,-1,3,,,,,,,,,,,165,1,3.2.2021,164.9770269
496,"['high', 2]",2,black,45,right,up,high,black_high_45_up,white_high_135_up,7,right,0.2740332,1,7,53,1,FALSE,17,1,1,1,TRUE,FALSE,high_2,0.75,-1,3,,,,,,,,,,,165,1,3.2.2021,164.9770269
497,"['high', 4]",4,white,45,left,up,high,white_high_45_up,black_high_135_up,1,left,0.2334447,1,1,43,1,FALSE,17,1,1,1,TRUE,FALSE,high_4,0.75,-1,3,,,,,,,,,,,165,1,3.2.2021,164.9770269
498,"['high', 4]",4,black,45,right,down,high,black_high_45_down,white_high_135_down,1,left,0.1372446,0,1,44,1,FALSE,17,1,1,1,TRUE,FALSE,high_4,0.75,-1,3,,,,,,,,,,,165,1,3.2.2021,164.9770269
499,"['low', 4]",4,black,135,left,up,low,black_low_135_up,white_low_45_up,3,left,0.1011466,1,3,49,1,TRUE,15,1,1,1,TRUE,FALSE,low_4,0.75,-1,3,,,,,,,,,,,165,1,3.2.2021,164.9770269
500,"['low', 2]",2,black,45,right,down,low,black_low_45_down,white_low_135_down,23,right,0.4203361,1,23,47,1,TRUE,18,1,1,1,TRUE,FALSE,low_2,0.75,-1,3,,,,,,,,,,,165,1,3.2.2021,164.9770269
501,"['low', 1]",1,white,45,left,down,low,white_low_45_down,black_low_135_down,31,left,0.2703386,1,31,41,0,TRUE,18,1,1,1,TRUE,FALSE,low_1,0.75,-1,3,,,,,,,,,,,165,1,3.2.2021,164.9770269
502,"['low', 4]",4,black,135,left,down,low,black_low_135_down,white_low_45_down,2,left,0.3661506,1,2,50,1,FALSE,15,1,1,1,TRUE,FALSE,low_4,0.75,-1,3,,,,,,,,,,,165,1,3.2.2021,164.9770269
503,"['low', 6]",6,black,45,right,up,low,black_low_45_up,white_low_135_up,1,right,0.2299966,1,1,54,1,FALSE,12,1,1,1,TRUE,FALSE,low_6,0.75,-1,3,,,,,,,,,,,165,1,3.2.2021,164.9770269
504,"['low', 1]",1,white,135,right,up,low,white_low_135_up,black_low_45_up,30,right,0.2054498,1,30,42,1,TRUE,19,1,1,1,TRUE,FALSE,low_1,0.75,-1,3,,,,,,,,,,,165,1,3.2.2021,164.9770269
505,"['high', 6]",6,white,135,right,down,high,white_high_135_down,black_high_45_down,7,right,0.3746202,1,7,52,0,TRUE,17,1,1,1,TRUE,FALSE,high_6,0.75,-1,3,,,,,,,,,,,165,1,3.2.2021,164.9770269
506,"['high', 4]",4,black,135,left,down,high,black_high_135_down,white_high_45_down,4,left,0.1416826,1,4,45,0,TRUE,18,1,1,1,TRUE,FALSE,high_4,0.75,-1,3,,,,,,,,,,,165,1,3.2.2021,164.9770269
507,"['high', 3]",3,white,135,right,down,high,white_high_135_down,black_high_45_down,2,right,0.1347702,1,2,59,1,FALSE,24,1,1,1,TRUE,FALSE,high_3,0.75,-1,3,,,,,,,,,,,165,1,3.2.2021,164.9770269
508,"['low', 1]",1,white,135,right,down,low,white_low_135_down,black_low_45_down,29,right,0.197176,1,29,43,1,FALSE,19,1,1,1,TRUE,FALSE,low_1,0.75,-1,3,,,,,,,,,,,165,1,3.2.2021,164.9770269
509,"['low', 6]",6,black,135,left,up,low,black_low_135_up,white_low_45_up,1,left,0.2363743,1,1,55,1,FALSE,12,1,1,1,TRUE,FALSE,low_6,0.75,-1,3,,,,,,,,,,,165,1,3.2.2021,164.9770269
510,"['high', 2]",2,white,135,right,up,high,white_high_135_up,black_high_45_up,6,right,0.1657233,1,6,54,1,FALSE,17,1,1,1,TRUE,FALSE,high_2,0.75,-1,3,,,,,,,,,,,165,1,3.2.2021,164.9770269
511,"['low', 2]",2,white,135,right,up,low,white_low_135_up,black_low_45_up,22,right,0.2102088,1,22,48,1,FALSE,18,1,1,1,TRUE,FALSE,low_2,0.75,-1,3,,,,,,,,,,,165,1,3.2.2021,164.9770269
512,"['low', 2]",2,white,45,left,up,low,white_low_45_up,black_low_135_up,21,left,0.0319247,1,21,49,1,FALSE,18,1,1,1,TRUE,FALSE,low_2,0.75,-1,3,,,,,,,,,,,165,1,3.2.2021,164.9770269
513,"['low', 3]",3,white,45,left,up,low,white_low_45_up,black_low_135_up,3,left,0.2581749,1,3,47,1,FALSE,12,1,1,1,TRUE,FALSE,low_3,0.75,-1,3,,,,,,,,,,,165,1,3.2.2021,164.9770269
514,"['high', 3]",3,black,135,left,down,high,black_high_135_down,white_high_45_down,1,left,0.3340755,1,1,60,1,FALSE,24,1,1,1,TRUE,FALSE,high_3,0.75,-1,3,,,,,,,,,,,165,1,3.2.2021,164.9770269
515,"['low', 2]",2,black,45,right,up,low,black_low_45_up,white_low_135_up,20,right,0.8684895,1,20,50,1,FALSE,18,1,1,1,TRUE,FALSE,low_2,0.75,-1,3,,,,,,,,,,,165,1,3.2.2021,164.9770269
516,"['low', 4]",4,white,45,left,down,low,white_low_45_down,black_low_135_down,1,left,0.5507538,1,1,51,1,FALSE,15,1,1,1,TRUE,FALSE,low_4,0.75,-1,3,,,,,,,,,,,165,1,3.2.2021,164.9770269
517,"['low', 4]",4,black,45,right,up,low,black_low_45_up,white_low_135_up,1,right,0.2291005,1,1,52,1,FALSE,15,1,1,1,TRUE,FALSE,low_4,0.75,-1,3,,,,,,,,,,,165,1,3.2.2021,164.9770269
518,"['low', 4]",4,black,45,right,up,low,black_low_45_up,white_low_135_up,1,right,0.2693015,1,1,53,1,FALSE,15,1,1,1,TRUE,FALSE,low_4,0.75,-1,3,,,,,,,,,,,165,1,3.2.2021,164.9770269
519,"['low', 4]",4,white,45,left,down,low,white_low_45_down,black_low_135_down,1,left,0.2051556,1,1,54,1,FALSE,15,1,1,1,TRUE,FALSE,low_4,0.75,-1,3,,,,,,,,,,,165,1,3.2.2021,164.9770269
520,"['high', 1]",1,white,135,right,down,high,white_high_135_down,black_high_45_down,21,right,0.3642765,1,21,51,1,TRUE,22,1,1,1,TRUE,FALSE,high_1,0.75,-1,3,,,,,,,,,,,165,1,3.2.2021,164.9770269
521,"['low', 2]",2,white,45,left,down,low,white_low_45_down,black_low_135_down,19,left,0.1707467,1,19,51,1,FALSE,18,1,1,1,TRUE,FALSE,low_2,0.75,-1,3,,,,,,,,,,,165,1,3.2.2021,164.9770269
522,"['low', 1]",1,white,45,left,up,low,white_low_45_up,black_low_135_up,28,left,0.0719303,1,28,44,1,FALSE,19,1,1,1,TRUE,FALSE,low_1,0.75,-1,3,,,,,,,,,,,165,1,3.2.2021,164.9770269
523,"['low', 1]",1,white,135,right,up,low,white_low_135_up,black_low_45_up,27,right,0.0654305,1,27,45,1,FALSE,19,1,1,1,TRUE,FALSE,low_1,0.75,-1,3,,,,,,,,,,,165,1,3.2.2021,164.9770269
524,"['high', 4]",4,white,135,right,up,high,white_high_135_up,black_high_45_up,3,right,0.1831133,1,3,46,1,TRUE,19,1,1,1,TRUE,FALSE,high_4,0.75,-1,3,,,,,,,,,,,165,1,3.2.2021,164.9770269
525,"['high', 3]",3,white,45,left,down,high,white_high_45_down,black_high_135_down,1,left,0.1496746,1,1,61,1,FALSE,24,1,1,1,TRUE,FALSE,high_3,0.75,-1,3,,,,,,,,,,,165,1,3.2.2021,164.9770269
526,"['low', 4]",4,white,135,right,up,low,white_low_135_up,black_low_45_up,1,right,0.0537449,1,1,55,1,FALSE,15,1,1,1,TRUE,FALSE,low_4,0.75,-1,3,,,,,,,,,,,165,1,3.2.2021,164.9770269
527,"['high', 6]",6,white,135,right,down,high,white_high_135_down,black_high_45_down,6,right,0.1413316,1,6,53,1,TRUE,18,1,1,1,TRUE,FALSE,high_6,0.75,-1,3,,,,,,,,,,,165,1,3.2.2021,164.9770269
528,"['high', 1]",1,white,45,left,up,high,white_high_45_up,black_high_135_up,20,left,0.1646353,1,20,52,1,FALSE,22,1,1,1,TRUE,FALSE,high_1,0.75,-1,3,,,,,,,,,,,165,1,3.2.2021,164.9770269
529,"['high', 2]",2,black,135,left,down,high,black_high_135_down,white_high_45_down,5,right,0.0154671,0,5,55,1,FALSE,17,1,1,1,TRUE,FALSE,high_2,0.75,-1,3,,,,,,,,,,,165,1,3.2.2021,164.9770269
530,"['high', 6]",6,black,135,left,down,high,black_high_135_down,white_high_45_down,5,left,0.4365184,1,5,54,1,FALSE,18,1,1,1,TRUE,FALSE,high_6,0.75,-1,3,,,,,,,,,,,165,1,3.2.2021,164.9770269
531,"['high', 6]",6,black,135,left,up,high,black_high_135_up,white_high_45_up,4,left,0.1537154,1,4,55,1,FALSE,18,1,1,1,TRUE,FALSE,high_6,0.75,-1,3,,,,,,,,,,,165,1,3.2.2021,164.9770269
532,"['low', 3]",3,black,135,left,up,low,black_low_135_up,white_low_45_up,2,left,0.1472665,1,2,48,1,FALSE,12,1,1,1,TRUE,FALSE,low_3,0.75,-1,3,,,,,,,,,,,165,1,3.2.2021,164.9770269
533,"['high', 1]",1,white,45,left,up,high,white_high_45_up,black_high_135_up,19,left,0.0339703,1,19,53,1,FALSE,22,1,1,1,TRUE,FALSE,high_1,0.75,-1,3,,,,,,,,,,,165,1,3.2.2021,164.9770269
534,"['low', 2]",2,black,135,left,up,low,black_low_135_up,white_low_45_up,18,left,0.4030744,1,18,52,1,FALSE,18,1,1,1,TRUE,FALSE,low_2,0.75,-1,3,,,,,,,,,,,165,1,3.2.2021,164.9770269
