trial_number,trial_type,cycle_number,first_color,first_orientation,correct_response,visual_field,spatial_frequency,first_stim,second_stim,stimulus_frame_duration,answer,rt,accuracy,staircase_dv,staircase_trial_num,staircase_previous_correct,staircase_reversal,staircase_reversal_num,staircase_phase,staircase_step_size,staircase_powers_law,staircase_siam,staircase_over,staircase_name,staircase_conv_p,staircase_step_hit,staircase_step_miss,threshold_low1,threshold_low2,threshold_low3,threshold_low4,threshold_low6,threshold_high1,threshold_high2,threshold_high3,threshold_high4,threshold_high6,frame_rate,participant,psychopyVersion,frame_rate_detected
0,"['low', 4]",4,white,45,left,up,low,white_low_45_up,black_low_135_up,4,left,0.2830604,1,4,0,None,FALSE,0,0,1,1,TRUE,FALSE,low_4,0.75,-1,3,,,,,,,,,,,165,8,3.2.2021,164.9756661
1,"['high', 6]",6,black,45,right,up,high,black_high_45_up,white_high_135_up,8,right,0.3470224,1,8,0,None,FALSE,0,0,1,1,TRUE,FALSE,high_6,0.75,-1,3,,,,,,,,,,,165,8,3.2.2021,164.9756661
2,"['high', 1]",1,black,45,right,down,high,black_high_45_down,white_high_135_down,12,left,0.3236686,0,12,0,None,FALSE,0,0,1,1,TRUE,FALSE,high_1,0.75,-1,3,,,,,,,,,,,165,8,3.2.2021,164.9756661
3,"['low', 4]",4,white,45,left,up,low,white_low_45_up,black_low_135_up,3,left,0.4349697,1,3,1,1,FALSE,0,0,1,1,TRUE,FALSE,low_4,0.75,-1,3,,,,,,,,,,,165,8,3.2.2021,164.9756661
4,"['high', 2]",2,black,135,left,down,high,black_high_135_down,white_high_45_down,8,right,0.4148502,0,8,0,None,FALSE,0,0,1,1,TRUE,FALSE,high_2,0.75,-1,3,,,,,,,,,,,165,8,3.2.2021,164.9756661
5,"['low', 4]",4,black,135,left,up,low,black_low_135_up,white_low_45_up,2,right,0.372879,0,2,2,1,FALSE,0,0,1,1,TRUE,FALSE,low_4,0.75,-1,3,,,,,,,,,,,165,8,3.2.2021,164.9756661
6,"['high', 4]",4,black,135,left,down,high,black_high_135_down,white_high_45_down,8,left,0.2057236,1,8,0,None,FALSE,0,0,1,1,TRUE,FALSE,high_4,0.75,-1,3,,,,,,,,,,,165,8,3.2.2021,164.9756661
7,"['high', 3]",3,white,45,left,up,high,white_high_45_up,black_high_135_up,8,left,0.2250866,1,8,0,None,FALSE,0,0,1,1,TRUE,FALSE,high_3,0.75,-1,3,,,,,,,,,,,165,8,3.2.2021,164.9756661
8,"['low', 4]",4,white,45,left,down,low,white_low_45_down,black_low_135_down,5,left,0.2464053,1,5,3,0,TRUE,1,0,1,1,TRUE,FALSE,low_4,0.75,-1,3,,,,,,,,,,,165,8,3.2.2021,164.9756661
9,"['high', 4]",4,black,135,left,down,high,black_high_135_down,white_high_45_down,7,right,0.1342343,0,7,1,1,FALSE,0,0,1,1,TRUE,FALSE,high_4,0.75,-1,3,,,,,,,,,,,165,8,3.2.2021,164.9756661
10,"['low', 3]",3,black,45,right,down,low,black_low_45_down,white_low_135_down,4,right,0.2236129,1,4,0,None,FALSE,0,0,1,1,TRUE,FALSE,low_3,0.75,-1,3,,,,,,,,,,,165,8,3.2.2021,164.9756661
11,"['low', 4]",4,white,45,left,up,low,white_low_45_up,black_low_135_up,4,left,0.8840536,1,4,4,1,TRUE,2,0,1,1,TRUE,FALSE,low_4,0.75,-1,3,,,,,,,,,,,165,8,3.2.2021,164.9756661
12,"['low', 2]",2,white,45,left,up,low,white_low_45_up,black_low_135_up,4,left,0.2217536,1,4,0,None,FALSE,0,0,1,1,TRUE,FALSE,low_2,0.75,-1,3,,,,,,,,,,,165,8,3.2.2021,164.9756661
13,"['low', 2]",2,black,135,left,up,low,black_low_135_up,white_low_45_up,3,right,1.0671257,0,3,1,1,FALSE,0,0,1,1,TRUE,FALSE,low_2,0.75,-1,3,,,,,,,,,,,165,8,3.2.2021,164.9756661
14,"['low', 4]",4,black,45,right,up,low,black_low_45_up,white_low_135_up,3,right,0.2954819,1,3,5,1,FALSE,2,0,1,1,TRUE,FALSE,low_4,0.75,-1,3,,,,,,,,,,,165,8,3.2.2021,164.9756661
15,"['high', 2]",2,white,45,left,up,high,white_high_45_up,black_high_135_up,11,left,0.3019857,1,11,1,0,FALSE,0,0,1,1,TRUE,FALSE,high_2,0.75,-1,3,,,,,,,,,,,165,8,3.2.2021,164.9756661
16,"['low', 2]",2,white,45,left,down,low,white_low_45_down,black_low_135_down,6,left,0.1791385,1,6,2,0,TRUE,1,0,1,1,TRUE,FALSE,low_2,0.75,-1,3,,,,,,,,,,,165,8,3.2.2021,164.9756661
17,"['high', 2]",2,black,135,left,up,high,black_high_135_up,white_high_45_up,10,right,0.0552504,0,10,2,1,TRUE,1,0,1,1,TRUE,FALSE,high_2,0.75,-1,3,,,,,,,,,,,165,8,3.2.2021,164.9756661
18,"['high', 2]",2,black,135,left,down,high,black_high_135_down,white_high_45_down,13,right,0.9273324,0,13,3,0,TRUE,2,0,1,1,TRUE,FALSE,high_2,0.75,-1,3,,,,,,,,,,,165,8,3.2.2021,164.9756661
19,"['high', 3]",3,black,135,left,down,high,black_high_135_down,white_high_45_down,7,left,0.1834362,1,7,1,1,FALSE,0,0,1,1,TRUE,FALSE,high_3,0.75,-1,3,,,,,,,,,,,165,8,3.2.2021,164.9756661
20,"['high', 1]",1,white,135,right,down,high,white_high_135_down,black_high_45_down,15,right,0.0799296,1,15,1,0,FALSE,0,0,1,1,TRUE,FALSE,high_1,0.75,-1,3,,,,,,,,,,,165,8,3.2.2021,164.9756661
21,"['low', 2]",2,white,135,right,down,low,white_low_135_down,black_low_45_down,5,right,0.0629803,1,5,3,1,TRUE,2,0,1,1,TRUE,FALSE,low_2,0.75,-1,3,,,,,,,,,,,165,8,3.2.2021,164.9756661
22,"['low', 2]",2,white,135,right,down,low,white_low_135_down,black_low_45_down,4,right,0.9132821,1,4,4,1,FALSE,2,0,1,1,TRUE,FALSE,low_2,0.75,-1,3,,,,,,,,,,,165,8,3.2.2021,164.9756661
23,"['high', 2]",2,white,45,left,up,high,white_high_45_up,black_high_135_up,16,left,0.1192627,1,16,4,0,FALSE,2,0,1,1,TRUE,FALSE,high_2,0.75,-1,3,,,,,,,,,,,165,8,3.2.2021,164.9756661
24,"['high', 6]",6,white,45,left,up,high,white_high_45_up,black_high_135_up,7,left,1.3192128,1,7,1,1,FALSE,0,0,1,1,TRUE,FALSE,high_6,0.75,-1,3,,,,,,,,,,,165,8,3.2.2021,164.9756661
25,"['low', 4]",4,black,45,right,up,low,black_low_45_up,white_low_135_up,2,left,0.2814428,0,2,6,1,FALSE,2,0,1,1,TRUE,FALSE,low_4,0.75,-1,3,,,,,,,,,,,165,8,3.2.2021,164.9756661
26,"['high', 6]",6,white,45,left,up,high,white_high_45_up,black_high_135_up,6,left,1.2706905,1,6,2,1,FALSE,0,0,1,1,TRUE,FALSE,high_6,0.75,-1,3,,,,,,,,,,,165,8,3.2.2021,164.9756661
27,"['low', 2]",2,white,135,right,up,low,white_low_135_up,black_low_45_up,3,right,0.070743,1,3,5,1,FALSE,2,0,1,1,TRUE,FALSE,low_2,0.75,-1,3,,,,,,,,,,,165,8,3.2.2021,164.9756661
28,"['low', 2]",2,black,45,right,down,low,black_low_45_down,white_low_135_down,2,right,0.22113,1,2,6,1,FALSE,2,0,1,1,TRUE,FALSE,low_2,0.75,-1,3,,,,,,,,,,,165,8,3.2.2021,164.9756661
29,"['low', 4]",4,white,135,right,up,low,white_low_135_up,black_low_45_up,5,right,0.4822209,1,5,7,0,TRUE,3,0,1,1,TRUE,FALSE,low_4,0.75,-1,3,,,,,,,,,,,165,8,3.2.2021,164.9756661
30,"['low', 6]",6,black,135,left,up,low,black_low_135_up,white_low_45_up,4,left,0.4313199,1,4,0,None,FALSE,0,0,1,1,TRUE,FALSE,low_6,0.75,-1,3,,,,,,,,,,,165,8,3.2.2021,164.9756661
31,"['high', 2]",2,white,135,right,down,high,white_high_135_down,black_high_45_down,15,right,0.2491909,1,15,5,1,TRUE,3,0,1,1,TRUE,FALSE,high_2,0.75,-1,3,,,,,,,,,,,165,8,3.2.2021,164.9756661
32,"['high', 3]",3,black,135,left,up,high,black_high_135_up,white_high_45_up,6,right,0.1842421,0,6,2,1,FALSE,0,0,1,1,TRUE,FALSE,high_3,0.75,-1,3,,,,,,,,,,,165,8,3.2.2021,164.9756661
33,"['high', 3]",3,white,135,right,up,high,white_high_135_up,black_high_45_up,9,right,0.4053586,1,9,3,0,TRUE,1,0,1,1,TRUE,FALSE,high_3,0.75,-1,3,,,,,,,,,,,165,8,3.2.2021,164.9756661
34,"['low', 6]",6,black,135,left,down,low,black_low_135_down,white_low_45_down,3,right,0.2317988,0,3,1,1,FALSE,0,0,1,1,TRUE,FALSE,low_6,0.75,-1,3,,,,,,,,,,,165,8,3.2.2021,164.9756661
35,"['high', 4]",4,black,135,left,up,high,black_high_135_up,white_high_45_up,10,left,0.2723292,1,10,2,0,TRUE,1,0,1,1,TRUE,FALSE,high_4,0.75,-1,3,,,,,,,,,,,165,8,3.2.2021,164.9756661
36,"['low', 2]",2,white,45,left,down,low,white_low_45_down,black_low_135_down,1,right,0.4027804,0,1,7,1,FALSE,2,0,1,1,TRUE,FALSE,low_2,0.75,-1,3,,,,,,,,,,,165,8,3.2.2021,164.9756661
37,"['high', 6]",6,black,135,left,up,high,black_high_135_up,white_high_45_up,5,right,0.1538508,0,5,3,1,FALSE,0,0,1,1,TRUE,FALSE,high_6,0.75,-1,3,,,,,,,,,,,165,8,3.2.2021,164.9756661
38,"['low', 1]",1,white,135,right,down,low,white_low_135_down,black_low_45_down,8,right,0.199613,1,8,0,None,FALSE,0,0,1,1,TRUE,FALSE,low_1,0.75,-1,3,,,,,,,,,,,165,8,3.2.2021,164.9756661
39,"['low', 2]",2,white,135,right,down,low,white_low_135_down,black_low_45_down,4,right,0.2137737,1,4,8,0,TRUE,3,0,1,1,TRUE,FALSE,low_2,0.75,-1,3,,,,,,,,,,,165,8,3.2.2021,164.9756661
40,"['high', 2]",2,black,45,right,up,high,black_high_45_up,white_high_135_up,14,right,0.2786081,1,14,6,1,FALSE,3,0,1,1,TRUE,FALSE,high_2,0.75,-1,3,,,,,,,,,,,165,8,3.2.2021,164.9756661
41,"['high', 2]",2,white,135,right,down,high,white_high_135_down,black_high_45_down,13,right,0.2008727,1,13,7,1,FALSE,3,0,1,1,TRUE,FALSE,high_2,0.75,-1,3,,,,,,,,,,,165,8,3.2.2021,164.9756661
42,"['high', 3]",3,black,135,left,up,high,black_high_135_up,white_high_45_up,8,left,0.2053807,1,8,4,1,TRUE,2,0,1,1,TRUE,FALSE,high_3,0.75,-1,3,,,,,,,,,,,165,8,3.2.2021,164.9756661
43,"['low', 3]",3,black,45,right,down,low,black_low_45_down,white_low_135_down,3,right,0.7012388,1,3,1,1,FALSE,0,0,1,1,TRUE,FALSE,low_3,0.75,-1,3,,,,,,,,,,,165,8,3.2.2021,164.9756661
44,"['high', 3]",3,black,45,right,down,high,black_high_45_down,white_high_135_down,7,right,0.2901022,1,7,5,1,FALSE,2,0,1,1,TRUE,FALSE,high_3,0.75,-1,3,,,,,,,,,,,165,8,3.2.2021,164.9756661
45,"['low', 3]",3,black,45,right,up,low,black_low_45_up,white_low_135_up,2,right,0.6427755,1,2,2,1,FALSE,0,0,1,1,TRUE,FALSE,low_3,0.75,-1,3,,,,,,,,,,,165,8,3.2.2021,164.9756661
46,"['high', 6]",6,black,45,right,down,high,black_high_45_down,white_high_135_down,8,right,0.2218255,1,8,4,0,TRUE,1,0,1,1,TRUE,FALSE,high_6,0.75,-1,3,,,,,,,,,,,165,8,3.2.2021,164.9756661
47,"['low', 1]",1,black,135,left,down,low,black_low_135_down,white_low_45_down,7,right,0.2335834,0,7,1,1,FALSE,0,0,1,1,TRUE,FALSE,low_1,0.75,-1,3,,,,,,,,,,,165,8,3.2.2021,164.9756661
48,"['low', 6]",6,white,135,right,down,low,white_low_135_down,black_low_45_down,6,right,1.3006887,1,6,2,0,TRUE,1,0,1,1,TRUE,FALSE,low_6,0.75,-1,3,,,,,,,,,,,165,8,3.2.2021,164.9756661
49,"['high', 6]",6,black,45,right,down,high,black_high_45_down,white_high_135_down,7,right,0.7470392,1,7,5,1,TRUE,2,0,1,1,TRUE,FALSE,high_6,0.75,-1,3,,,,,,,,,,,165,8,3.2.2021,164.9756661
50,"['high', 6]",6,black,135,left,down,high,black_high_135_down,white_high_45_down,6,right,0.2845996,0,6,6,1,FALSE,2,0,1,1,TRUE,FALSE,high_6,0.75,-1,3,,,,,,,,,,,165,8,3.2.2021,164.9756661
51,"['low', 4]",4,black,135,left,up,low,black_low_135_up,white_low_45_up,4,right,1.1283885,0,4,8,1,TRUE,4,0,1,1,TRUE,FALSE,low_4,0.75,-1,3,,,,,,,,,,,165,8,3.2.2021,164.9756661
52,"['high', 2]",2,black,135,left,down,high,black_high_135_down,white_high_45_down,12,right,0.552519,0,12,8,1,FALSE,3,0,1,1,TRUE,FALSE,high_2,0.75,-1,3,,,,,,,,,,,165,8,3.2.2021,164.9756661
53,"['high', 2]",2,white,45,left,up,high,white_high_45_up,black_high_135_up,15,left,0.2504666,1,15,9,0,TRUE,4,0,1,1,TRUE,FALSE,high_2,0.75,-1,3,,,,,,,,,,,165,8,3.2.2021,164.9756661
54,"['high', 1]",1,black,45,right,up,high,black_high_45_up,white_high_135_up,14,left,0.1615195,0,14,2,1,TRUE,1,0,1,1,TRUE,FALSE,high_1,0.75,-1,3,,,,,,,,,,,165,8,3.2.2021,164.9756661
55,"['high', 4]",4,black,45,right,up,high,black_high_45_up,white_high_135_up,9,right,0.4390019,1,9,3,1,TRUE,2,0,1,1,TRUE,FALSE,high_4,0.75,-1,3,,,,,,,,,,,165,8,3.2.2021,164.9756661
56,"['high', 3]",3,black,135,left,down,high,black_high_135_down,white_high_45_down,6,left,0.5058206,1,6,6,1,FALSE,2,0,1,1,TRUE,FALSE,high_3,0.75,-1,3,,,,,,,,,,,165,8,3.2.2021,164.9756661
57,"['low', 4]",4,black,45,right,down,low,black_low_45_down,white_low_135_down,7,right,0.1934296,1,7,9,0,TRUE,5,1,1,1,TRUE,FALSE,low_4,0.75,-1,3,,,,,,,,,,,165,8,3.2.2021,164.9756661
58,"['low', 3]",3,white,135,right,down,low,white_low_135_down,black_low_45_down,1,right,0.1670276,1,1,3,1,FALSE,0,0,1,1,TRUE,FALSE,low_3,0.75,-1,3,,,,,,,,,,,165,8,3.2.2021,164.9756661
59,"['low', 2]",2,black,135,left,up,low,black_low_135_up,white_low_45_up,3,right,0.2887789,0,3,9,1,TRUE,4,0,1,1,TRUE,FALSE,low_2,0.75,-1,3,,,,,,,,,,,165,8,3.2.2021,164.9756661
60,"['low', 4]",4,white,45,left,down,low,white_low_45_down,black_low_135_down,6,right,0.2203095,0,6,10,1,TRUE,6,1,1,1,TRUE,FALSE,low_4,0.75,-1,3,,,,,,,,,,,165,8,3.2.2021,164.9756661
61,"['high', 6]",6,white,135,right,down,high,white_high_135_down,black_high_45_down,9,right,0.6780188,1,9,7,0,TRUE,3,0,1,1,TRUE,FALSE,high_6,0.75,-1,3,,,,,,,,,,,165,8,3.2.2021,164.9756661
62,"['high', 1]",1,black,135,left,down,high,black_high_135_down,white_high_45_down,17,right,0.4271671,0,17,3,0,TRUE,2,0,1,1,TRUE,FALSE,high_1,0.75,-1,3,,,,,,,,,,,165,8,3.2.2021,164.9756661
63,"['high', 4]",4,black,45,right,up,high,black_high_45_up,white_high_135_up,8,right,0.5598511,1,8,4,1,FALSE,2,0,1,1,TRUE,FALSE,high_4,0.75,-1,3,,,,,,,,,,,165,8,3.2.2021,164.9756661
64,"['low', 1]",1,white,45,left,down,low,white_low_45_down,black_low_135_down,10,left,0.2146289,1,10,2,0,TRUE,1,0,1,1,TRUE,FALSE,low_1,0.75,-1,3,,,,,,,,,,,165,8,3.2.2021,164.9756661
65,"['high', 6]",6,black,135,left,up,high,black_high_135_up,white_high_45_up,8,right,0.3592872,0,8,8,1,TRUE,4,0,1,1,TRUE,FALSE,high_6,0.75,-1,3,,,,,,,,,,,165,8,3.2.2021,164.9756661
66,"['high', 4]",4,white,135,right,down,high,white_high_135_down,black_high_45_down,7,right,0.4933948,1,7,5,1,FALSE,2,0,1,1,TRUE,FALSE,high_4,0.75,-1,3,,,,,,,,,,,165,8,3.2.2021,164.9756661
67,"['low', 1]",1,black,45,right,up,low,black_low_45_up,white_low_135_up,9,left,0.1616485,0,9,3,1,TRUE,2,0,1,1,TRUE,FALSE,low_1,0.75,-1,3,,,,,,,,,,,165,8,3.2.2021,164.9756661
68,"['high', 3]",3,black,135,left,up,high,black_high_135_up,white_high_45_up,5,left,0.085661,1,5,7,1,FALSE,2,0,1,1,TRUE,FALSE,high_3,0.75,-1,3,,,,,,,,,,,165,8,3.2.2021,164.9756661
69,"['high', 2]",2,white,45,left,down,high,white_high_45_down,black_high_135_down,14,left,0.2017468,1,14,10,1,TRUE,5,1,1,1,TRUE,FALSE,high_2,0.75,-1,3,,,,,,,,,,,165,8,3.2.2021,164.9756661
70,"['high', 6]",6,white,135,right,up,high,white_high_135_up,black_high_45_up,11,right,0.8845944,1,11,9,0,TRUE,5,1,1,1,TRUE,FALSE,high_6,0.75,-1,3,,,,,,,,,,,165,8,3.2.2021,164.9756661
71,"['high', 6]",6,black,135,left,up,high,black_high_135_up,white_high_45_up,10,left,0.4517473,1,10,10,1,TRUE,6,1,1,1,TRUE,FALSE,high_6,0.75,-1,3,,,,,,,,,,,165,8,3.2.2021,164.9756661
72,"['high', 3]",3,white,135,right,down,high,white_high_135_down,black_high_45_down,4,right,0.3602781,1,4,8,1,FALSE,2,0,1,1,TRUE,FALSE,high_3,0.75,-1,3,,,,,,,,,,,165,8,3.2.2021,164.9756661
73,"['high', 2]",2,black,45,right,up,high,black_high_45_up,white_high_135_up,13,left,0.3134627,0,13,11,1,FALSE,5,1,1,1,TRUE,FALSE,high_2,0.75,-1,3,,,,,,,,,,,165,8,3.2.2021,164.9756661
74,"['high', 1]",1,black,45,right,up,high,black_high_45_up,white_high_135_up,20,left,0.3956732,0,20,4,0,FALSE,2,0,1,1,TRUE,FALSE,high_1,0.75,-1,3,,,,,,,,,,,165,8,3.2.2021,164.9756661
75,"['high', 4]",4,white,45,left,down,high,white_high_45_down,black_high_135_down,6,left,0.2753048,1,6,6,1,FALSE,2,0,1,1,TRUE,FALSE,high_4,0.75,-1,3,,,,,,,,,,,165,8,3.2.2021,164.9756661
76,"['low', 1]",1,white,135,right,up,low,white_low_135_up,black_low_45_up,12,right,1.3143574,1,12,4,0,TRUE,3,0,1,1,TRUE,FALSE,low_1,0.75,-1,3,,,,,,,,,,,165,8,3.2.2021,164.9756661
77,"['low', 2]",2,white,135,right,up,low,white_low_135_up,black_low_45_up,6,right,0.317344,1,6,10,0,TRUE,5,1,1,1,TRUE,FALSE,low_2,0.75,-1,3,,,,,,,,,,,165,8,3.2.2021,164.9756661
78,"['high', 4]",4,white,45,left,down,high,white_high_45_down,black_high_135_down,5,left,0.2828289,1,5,7,1,FALSE,2,0,1,1,TRUE,FALSE,high_4,0.75,-1,3,,,,,,,,,,,165,8,3.2.2021,164.9756661
79,"['low', 1]",1,white,135,right,up,low,white_low_135_up,black_low_45_up,11,right,0.2398565,1,11,5,1,TRUE,4,0,1,1,TRUE,FALSE,low_1,0.75,-1,3,,,,,,,,,,,165,8,3.2.2021,164.9756661
80,"['high', 6]",6,white,135,right,up,high,white_high_135_up,black_high_45_up,9,right,0.1790929,1,9,11,1,FALSE,6,1,1,1,TRUE,FALSE,high_6,0.75,-1,3,,,,,,,,,,,165,8,3.2.2021,164.9756661
81,"['low', 4]",4,black,135,left,down,low,black_low_135_down,white_low_45_down,9,left,0.0471916,1,9,11,0,TRUE,7,1,1,1,TRUE,FALSE,low_4,0.75,-1,3,,,,,,,,,,,165,8,3.2.2021,164.9756661
82,"['low', 4]",4,black,45,right,down,low,black_low_45_down,white_low_135_down,8,right,0.2145688,1,8,12,1,TRUE,8,1,1,1,TRUE,FALSE,low_4,0.75,-1,3,,,,,,,,,,,165,8,3.2.2021,164.9756661
83,"['high', 4]",4,white,135,right,down,high,white_high_135_down,black_high_45_down,4,right,0.3735618,1,4,8,1,FALSE,2,0,1,1,TRUE,FALSE,high_4,0.75,-1,3,,,,,,,,,,,165,8,3.2.2021,164.9756661
84,"['high', 2]",2,white,135,right,down,high,white_high_135_down,black_high_45_down,16,right,0.3882571,1,16,12,0,TRUE,6,1,1,1,TRUE,FALSE,high_2,0.75,-1,3,,,,,,,,,,,165,8,3.2.2021,164.9756661
85,"['low', 2]",2,black,135,left,up,low,black_low_135_up,white_low_45_up,5,right,0.2470235,0,5,11,1,TRUE,6,1,1,1,TRUE,FALSE,low_2,0.75,-1,3,,,,,,,,,,,165,8,3.2.2021,164.9756661
86,"['high', 4]",4,white,135,right,up,high,white_high_135_up,black_high_45_up,3,right,0.3249603,1,3,9,1,FALSE,2,0,1,1,TRUE,FALSE,high_4,0.75,-1,3,,,,,,,,,,,165,8,3.2.2021,164.9756661
87,"['low', 1]",1,white,45,left,up,low,white_low_45_up,black_low_135_up,10,left,0.3141481,1,10,6,1,FALSE,4,0,1,1,TRUE,FALSE,low_1,0.75,-1,3,,,,,,,,,,,165,8,3.2.2021,164.9756661
88,"['low', 3]",3,white,45,left,down,low,white_low_45_down,black_low_135_down,1,left,0.3800572,1,1,4,1,FALSE,0,0,1,1,TRUE,FALSE,low_3,0.75,-1,3,,,,,,,,,,,165,8,3.2.2021,164.9756661
89,"['high', 1]",1,black,135,left,up,high,black_high_135_up,white_high_45_up,23,right,1.7665937,0,23,5,0,FALSE,2,0,1,1,TRUE,FALSE,high_1,0.75,-1,3,,,,,,,,,,,165,8,3.2.2021,164.9756661
90,"['high', 6]",6,black,135,left,down,high,black_high_135_down,white_high_45_down,8,left,0.2537228,1,8,12,1,FALSE,6,1,1,1,TRUE,FALSE,high_6,0.75,-1,3,,,,,,,,,,,165,8,3.2.2021,164.9756661
91,"['high', 6]",6,black,135,left,up,high,black_high_135_up,white_high_45_up,7,left,0.38626,1,7,13,1,FALSE,6,1,1,1,TRUE,FALSE,high_6,0.75,-1,3,,,,,,,,,,,165,8,3.2.2021,164.9756661
92,"['high', 3]",3,white,45,left,down,high,white_high_45_down,black_high_135_down,3,left,0.4042764,1,3,9,1,FALSE,2,0,1,1,TRUE,FALSE,high_3,0.75,-1,3,,,,,,,,,,,165,8,3.2.2021,164.9756661
93,"['low', 4]",4,white,135,right,down,low,white_low_135_down,black_low_45_down,7,right,0.1219045,1,7,13,1,FALSE,8,1,1,1,TRUE,FALSE,low_4,0.75,-1,3,,,,,,,,,,,165,8,3.2.2021,164.9756661
94,"['high', 1]",1,white,135,right,down,high,white_high_135_down,black_high_45_down,26,right,0.6061644,1,26,6,0,FALSE,2,0,1,1,TRUE,FALSE,high_1,0.75,-1,3,,,,,,,,,,,165,8,3.2.2021,164.9756661
95,"['high', 3]",3,black,135,left,up,high,black_high_135_up,white_high_45_up,2,left,0.7064032,1,2,10,1,FALSE,2,0,1,1,TRUE,FALSE,high_3,0.75,-1,3,,,,,,,,,,,165,8,3.2.2021,164.9756661
96,"['high', 3]",3,white,135,right,up,high,white_high_135_up,black_high_45_up,1,right,0.7085332,1,1,11,1,FALSE,2,0,1,1,TRUE,FALSE,high_3,0.75,-1,3,,,,,,,,,,,165,8,3.2.2021,164.9756661
97,"['low', 2]",2,white,135,right,down,low,white_low_135_down,black_low_45_down,8,right,0.2710653,1,8,12,0,TRUE,7,1,1,1,TRUE,FALSE,low_2,0.75,-1,3,,,,,,,,,,,165,8,3.2.2021,164.9756661
98,"['low', 4]",4,white,135,right,down,low,white_low_135_down,black_low_45_down,6,right,0.5653834,1,6,14,1,FALSE,8,1,1,1,TRUE,FALSE,low_4,0.75,-1,3,,,,,,,,,,,165,8,3.2.2021,164.9756661
99,"['high', 3]",3,white,45,left,down,high,white_high_45_down,black_high_135_down,1,right,1.312278,0,1,12,1,FALSE,2,0,1,1,TRUE,FALSE,high_3,0.75,-1,3,,,,,,,,,,,165,8,3.2.2021,164.9756661
100,"['high', 2]",2,black,45,right,down,high,black_high_45_down,white_high_135_down,15,left,1.1650688,0,15,13,1,TRUE,7,1,1,1,TRUE,FALSE,high_2,0.75,-1,3,,,,,,,,,,,165,8,3.2.2021,164.9756661
101,"['high', 3]",3,white,45,left,up,high,white_high_45_up,black_high_135_up,4,left,0.4818303,1,4,13,0,TRUE,3,0,1,1,TRUE,FALSE,high_3,0.75,-1,3,,,,,,,,,,,165,8,3.2.2021,164.9756661
102,"['high', 6]",6,black,45,right,up,high,black_high_45_up,white_high_135_up,6,right,0.6973455,1,6,14,1,FALSE,6,1,1,1,TRUE,FALSE,high_6,0.75,-1,3,,,,,,,,,,,165,8,3.2.2021,164.9756661
103,"['low', 1]",1,black,45,right,down,low,black_low_45_down,white_low_135_down,9,left,0.3524242,0,9,7,1,FALSE,4,0,1,1,TRUE,FALSE,low_1,0.75,-1,3,,,,,,,,,,,165,8,3.2.2021,164.9756661
104,"['low', 1]",1,white,135,right,up,low,white_low_135_up,black_low_45_up,12,left,1.946585,0,12,8,0,TRUE,5,1,1,1,TRUE,FALSE,low_1,0.75,-1,3,,,,,,,,,,,165,8,3.2.2021,164.9756661
105,"['high', 3]",3,black,135,left,down,high,black_high_135_down,white_high_45_down,3,right,0.5675764,0,3,14,1,TRUE,4,0,1,1,TRUE,FALSE,high_3,0.75,-1,3,,,,,,,,,,,165,8,3.2.2021,164.9756661
106,"['high', 6]",6,white,135,right,down,high,white_high_135_down,black_high_45_down,5,right,0.3793469,1,5,15,1,FALSE,6,1,1,1,TRUE,FALSE,high_6,0.75,-1,3,,,,,,,,,,,165,8,3.2.2021,164.9756661
107,"['high', 6]",6,white,45,left,up,high,white_high_45_up,black_high_135_up,4,left,0.3844268,1,4,16,1,FALSE,6,1,1,1,TRUE,FALSE,high_6,0.75,-1,3,,,,,,,,,,,165,8,3.2.2021,164.9756661
108,"['low', 1]",1,black,135,left,down,low,black_low_135_down,white_low_45_down,15,left,1.9879301,1,15,9,0,FALSE,5,1,1,1,TRUE,FALSE,low_1,0.75,-1,3,,,,,,,,,,,165,8,3.2.2021,164.9756661
109,"['high', 3]",3,white,45,left,down,high,white_high_45_down,black_high_135_down,6,left,0.408958,1,6,15,0,TRUE,5,1,1,1,TRUE,FALSE,high_3,0.75,-1,3,,,,,,,,,,,165,8,3.2.2021,164.9756661
110,"['high', 1]",1,white,45,left,up,high,white_high_45_up,black_high_135_up,25,left,0.7399042,1,25,7,1,TRUE,3,0,1,1,TRUE,FALSE,high_1,0.75,-1,3,,,,,,,,,,,165,8,3.2.2021,164.9756661
111,"['low', 2]",2,black,45,right,down,low,black_low_45_down,white_low_135_down,7,right,0.4396392,1,7,13,1,TRUE,8,1,1,1,TRUE,FALSE,low_2,0.75,-1,3,,,,,,,,,,,165,8,3.2.2021,164.9756661
112,"['high', 6]",6,black,135,left,up,high,black_high_135_up,white_high_45_up,3,left,0.8535091,1,3,17,1,FALSE,6,1,1,1,TRUE,FALSE,high_6,0.75,-1,3,,,,,,,,,,,165,8,3.2.2021,164.9756661
113,"['low', 6]",6,black,45,right,up,low,black_low_45_up,white_low_135_up,5,right,0.2107859,1,5,3,1,TRUE,2,0,1,1,TRUE,FALSE,low_6,0.75,-1,3,,,,,,,,,,,165,8,3.2.2021,164.9756661
114,"['low', 6]",6,white,135,right,up,low,white_low_135_up,black_low_45_up,4,right,0.2441265,1,4,4,1,FALSE,2,0,1,1,TRUE,FALSE,low_6,0.75,-1,3,,,,,,,,,,,165,8,3.2.2021,164.9756661
115,"['low', 6]",6,black,135,left,down,low,black_low_135_down,white_low_45_down,3,left,0.4136898,1,3,5,1,FALSE,2,0,1,1,TRUE,FALSE,low_6,0.75,-1,3,,,,,,,,,,,165,8,3.2.2021,164.9756661
116,"['low', 3]",3,white,135,right,down,low,white_low_135_down,black_low_45_down,1,right,0.3953329,1,1,5,1,FALSE,0,0,1,1,TRUE,FALSE,low_3,0.75,-1,3,,,,,,,,,,,165,8,3.2.2021,164.9756661
117,"['high', 1]",1,black,135,left,up,high,black_high_135_up,white_high_45_up,24,right,0.9559591,0,24,8,1,FALSE,3,0,1,1,TRUE,FALSE,high_1,0.75,-1,3,,,,,,,,,,,165,8,3.2.2021,164.9756661
118,"['high', 4]",4,black,45,right,up,high,black_high_45_up,white_high_135_up,2,right,1.3301119,1,2,10,1,FALSE,2,0,1,1,TRUE,FALSE,high_4,0.75,-1,3,,,,,,,,,,,165,8,3.2.2021,164.9756661
119,"['high', 1]",1,white,45,left,down,high,white_high_45_down,black_high_135_down,27,left,0.3694601,1,27,9,0,TRUE,4,0,1,1,TRUE,FALSE,high_1,0.75,-1,3,,,,,,,,,,,165,8,3.2.2021,164.9756661
120,"['high', 4]",4,black,45,right,down,high,black_high_45_down,white_high_135_down,1,left,0.3938001,0,1,11,1,FALSE,2,0,1,1,TRUE,FALSE,high_4,0.75,-1,3,,,,,,,,,,,165,8,3.2.2021,164.9756661
121,"['high', 2]",2,white,45,left,down,high,white_high_45_down,black_high_135_down,18,left,0.2553725,1,18,14,0,TRUE,8,1,1,1,TRUE,FALSE,high_2,0.75,-1,3,,,,,,,,,,,165,8,3.2.2021,164.9756661
122,"['low', 3]",3,white,135,right,up,low,white_low_135_up,black_low_45_up,1,right,0.2636213,1,1,6,1,FALSE,0,0,1,1,TRUE,FALSE,low_3,0.75,-1,3,,,,,,,,,,,165,8,3.2.2021,164.9756661
123,"['high', 2]",2,white,135,right,down,high,white_high_135_down,black_high_45_down,17,left,0.3371837,0,17,15,1,TRUE,9,1,1,1,TRUE,FALSE,high_2,0.75,-1,3,,,,,,,,,,,165,8,3.2.2021,164.9756661
124,"['low', 3]",3,black,135,left,down,low,black_low_135_down,white_low_45_down,1,left,0.2368386,1,1,7,1,FALSE,0,0,1,1,TRUE,FALSE,low_3,0.75,-1,3,,,,,,,,,,,165,8,3.2.2021,164.9756661
125,"['high', 3]",3,white,45,left,up,high,white_high_45_up,black_high_135_up,5,right,0.2728801,0,5,16,1,TRUE,6,1,1,1,TRUE,FALSE,high_3,0.75,-1,3,,,,,,,,,,,165,8,3.2.2021,164.9756661
126,"['low', 3]",3,black,45,right,up,low,black_low_45_up,white_low_135_up,1,left,0.3021237,0,1,8,1,FALSE,0,0,1,1,TRUE,FALSE,low_3,0.75,-1,3,,,,,,,,,,,165,8,3.2.2021,164.9756661
127,"['low', 3]",3,white,45,left,down,low,white_low_45_down,black_low_135_down,4,right,0.3033547,0,4,9,0,TRUE,1,0,1,1,TRUE,FALSE,low_3,0.75,-1,3,,,,,,,,,,,165,8,3.2.2021,164.9756661
128,"['low', 1]",1,white,135,right,up,low,white_low_135_up,black_low_45_up,14,right,0.9730619,1,14,10,1,TRUE,6,1,1,1,TRUE,FALSE,low_1,0.75,-1,3,,,,,,,,,,,165,8,3.2.2021,164.9756661
129,"['high', 4]",4,white,45,left,down,high,white_high_45_down,black_high_135_down,4,left,0.2991759,1,4,12,0,TRUE,3,0,1,1,TRUE,FALSE,high_4,0.75,-1,3,,,,,,,,,,,165,8,3.2.2021,164.9756661
130,"['high', 3]",3,black,45,right,up,high,black_high_45_up,white_high_135_up,8,left,0.4358969,0,8,17,0,TRUE,7,1,1,1,TRUE,FALSE,high_3,0.75,-1,3,,,,,,,,,,,165,8,3.2.2021,164.9756661
131,"['low', 3]",3,black,45,right,down,low,black_low_45_down,white_low_135_down,7,right,0.2316987,1,7,10,0,FALSE,1,0,1,1,TRUE,FALSE,low_3,0.75,-1,3,,,,,,,,,,,165,8,3.2.2021,164.9756661
132,"['high', 6]",6,white,45,left,up,high,white_high_45_up,black_high_135_up,2,left,0.6230583,1,2,18,1,FALSE,6,1,1,1,TRUE,FALSE,high_6,0.75,-1,3,,,,,,,,,,,165,8,3.2.2021,164.9756661
133,"['low', 1]",1,white,45,left,up,low,white_low_45_up,black_low_135_up,13,left,0.4031267,1,13,11,1,FALSE,6,1,1,1,TRUE,FALSE,low_1,0.75,-1,3,,,,,,,,,,,165,8,3.2.2021,164.9756661
134,"['low', 3]",3,black,45,right,up,low,black_low_45_up,white_low_135_up,6,right,0.2611785,1,6,11,1,TRUE,2,0,1,1,TRUE,FALSE,low_3,0.75,-1,3,,,,,,,,,,,165,8,3.2.2021,164.9756661
135,"['high', 2]",2,white,45,left,down,high,white_high_45_down,black_high_135_down,20,left,0.3071006,1,20,16,0,TRUE,10,1,1,1,TRUE,FALSE,high_2,0.75,-1,3,,,,,,,,,,,165,8,3.2.2021,164.9756661
136,"['high', 3]",3,white,45,left,down,high,white_high_45_down,black_high_135_down,11,right,0.2318888,0,11,18,0,FALSE,7,1,1,1,TRUE,FALSE,high_3,0.75,-1,3,,,,,,,,,,,165,8,3.2.2021,164.9756661
137,"['low', 1]",1,white,135,right,down,low,white_low_135_down,black_low_45_down,12,right,0.2553274,1,12,12,1,FALSE,6,1,1,1,TRUE,FALSE,low_1,0.75,-1,3,,,,,,,,,,,165,8,3.2.2021,164.9756661
138,"['high', 3]",3,black,135,left,down,high,black_high_135_down,white_high_45_down,14,left,0.2005372,1,14,19,0,FALSE,7,1,1,1,TRUE,FALSE,high_3,0.75,-1,3,,,,,,,,,,,165,8,3.2.2021,164.9756661
139,"['low', 1]",1,white,45,left,up,low,white_low_45_up,black_low_135_up,11,left,0.9218936,1,11,13,1,FALSE,6,1,1,1,TRUE,FALSE,low_1,0.75,-1,3,,,,,,,,,,,165,8,3.2.2021,164.9756661
140,"['low', 1]",1,white,135,right,down,low,white_low_135_down,black_low_45_down,10,right,0.2752441,1,10,14,1,FALSE,6,1,1,1,TRUE,FALSE,low_1,0.75,-1,3,,,,,,,,,,,165,8,3.2.2021,164.9756661
141,"['high', 1]",1,black,135,left,down,high,black_high_135_down,white_high_45_down,26,left,1.1947204,1,26,10,1,TRUE,5,1,1,1,TRUE,FALSE,high_1,0.75,-1,3,,,,,,,,,,,165,8,3.2.2021,164.9756661
142,"['high', 1]",1,black,135,left,down,high,black_high_135_down,white_high_45_down,25,right,0.3645956,0,25,11,1,FALSE,5,1,1,1,TRUE,FALSE,high_1,0.75,-1,3,,,,,,,,,,,165,8,3.2.2021,164.9756661
143,"['high', 4]",4,black,45,right,down,high,black_high_45_down,white_high_135_down,3,left,0.7762719,0,3,13,1,TRUE,4,0,1,1,TRUE,FALSE,high_4,0.75,-1,3,,,,,,,,,,,165,8,3.2.2021,164.9756661
144,"['low', 4]",4,black,45,right,down,low,black_low_45_down,white_low_135_down,5,right,0.2067273,1,5,15,1,FALSE,8,1,1,1,TRUE,FALSE,low_4,0.75,-1,3,,,,,,,,,,,165,8,3.2.2021,164.9756661
145,"['high', 6]",6,black,135,left,up,high,black_high_135_up,white_high_45_up,1,right,0.3154539,0,1,19,1,FALSE,6,1,1,1,TRUE,FALSE,high_6,0.75,-1,3,,,,,,,,,,,165,8,3.2.2021,164.9756661
146,"['high', 1]",1,black,135,left,up,high,black_high_135_up,white_high_45_up,28,right,1.4157371,0,28,12,0,TRUE,6,1,1,1,TRUE,FALSE,high_1,0.75,-1,3,,,,,,,,,,,165,8,3.2.2021,164.9756661
147,"['low', 2]",2,black,135,left,up,low,black_low_135_up,white_low_45_up,6,right,0.2863556,0,6,14,1,FALSE,8,1,1,1,TRUE,FALSE,low_2,0.75,-1,3,,,,,,,,,,,165,8,3.2.2021,164.9756661
148,"['low', 1]",1,black,45,right,up,low,black_low_45_up,white_low_135_up,9,left,0.2882532,0,9,15,1,FALSE,6,1,1,1,TRUE,FALSE,low_1,0.75,-1,3,,,,,,,,,,,165,8,3.2.2021,164.9756661
149,"['high', 4]",4,white,45,left,up,high,white_high_45_up,black_high_135_up,6,left,0.8729665,1,6,14,0,TRUE,5,1,1,1,TRUE,FALSE,high_4,0.75,-1,3,,,,,,,,,,,165,8,3.2.2021,164.9756661
150,"['low', 1]",1,white,45,left,down,low,white_low_45_down,black_low_135_down,12,left,0.3787117,1,12,16,0,TRUE,7,1,1,1,TRUE,FALSE,low_1,0.75,-1,3,,,,,,,,,,,165,8,3.2.2021,164.9756661
151,"['high', 6]",6,white,45,left,down,high,white_high_45_down,black_high_135_down,4,right,0.112025,0,4,20,0,TRUE,7,1,1,1,TRUE,FALSE,high_6,0.75,-1,3,,,,,,,,,,,165,8,3.2.2021,164.9756661
152,"['high', 1]",1,white,45,left,up,high,white_high_45_up,black_high_135_up,31,left,0.343412,1,31,13,0,FALSE,6,1,1,1,TRUE,FALSE,high_1,0.75,-1,3,,,,,,,,,,,165,8,3.2.2021,164.9756661
153,"['high', 1]",1,white,135,right,down,high,white_high_135_down,black_high_45_down,30,right,0.064417,1,30,14,1,TRUE,7,1,1,1,TRUE,FALSE,high_1,0.75,-1,3,,,,,,,,,,,165,8,3.2.2021,164.9756661
154,"['low', 6]",6,white,135,right,up,low,white_low_135_up,black_low_45_up,2,right,0.2264597,1,2,6,1,FALSE,2,0,1,1,TRUE,FALSE,low_6,0.75,-1,3,,,,,,,,,,,165,8,3.2.2021,164.9756661
155,"['low', 6]",6,white,45,left,down,low,white_low_45_down,black_low_135_down,1,right,0.5277375,0,1,7,1,FALSE,2,0,1,1,TRUE,FALSE,low_6,0.75,-1,3,,,,,,,,,,,165,8,3.2.2021,164.9756661
156,"['low', 2]",2,black,45,right,up,low,black_low_45_up,white_low_135_up,9,right,0.3352885,1,9,15,0,TRUE,9,1,1,1,TRUE,FALSE,low_2,0.75,-1,3,,,,,,,,,,,165,8,3.2.2021,164.9756661
157,"['low', 1]",1,black,45,right,down,low,black_low_45_down,white_low_135_down,11,left,0.6704523,0,11,17,1,TRUE,8,1,1,1,TRUE,FALSE,low_1,0.75,-1,3,,,,,,,,,,,165,8,3.2.2021,164.9756661
158,"['low', 1]",1,black,45,right,down,low,black_low_45_down,white_low_135_down,14,right,0.164597,1,14,18,0,TRUE,9,1,1,1,TRUE,FALSE,low_1,0.75,-1,3,,,,,,,,,,,165,8,3.2.2021,164.9756661
159,"['high', 4]",4,black,45,right,up,high,black_high_45_up,white_high_135_up,5,right,0.650777,1,5,15,1,TRUE,6,1,1,1,TRUE,FALSE,high_4,0.75,-1,3,,,,,,,,,,,165,8,3.2.2021,164.9756661
160,"['high', 6]",6,black,135,left,down,high,black_high_135_down,white_high_45_down,7,right,0.5222637,0,7,21,0,FALSE,7,1,1,1,TRUE,FALSE,high_6,0.75,-1,3,,,,,,,,,,,165,8,3.2.2021,164.9756661
161,"['high', 6]",6,black,45,right,down,high,black_high_45_down,white_high_135_down,10,right,0.3878502,1,10,22,0,FALSE,7,1,1,1,TRUE,FALSE,high_6,0.75,-1,3,,,,,,,,,,,165,8,3.2.2021,164.9756661
162,"['high', 3]",3,white,135,right,down,high,white_high_135_down,black_high_45_down,13,right,0.2794621,1,13,20,1,TRUE,8,1,1,1,TRUE,FALSE,high_3,0.75,-1,3,,,,,,,,,,,165,8,3.2.2021,164.9756661
163,"['high', 3]",3,black,45,right,down,high,black_high_45_down,white_high_135_down,12,right,0.6972059,1,12,21,1,FALSE,8,1,1,1,TRUE,FALSE,high_3,0.75,-1,3,,,,,,,,,,,165,8,3.2.2021,164.9756661
164,"['low', 4]",4,black,135,left,down,low,black_low_135_down,white_low_45_down,4,right,0.2256913,0,4,16,1,FALSE,8,1,1,1,TRUE,FALSE,low_4,0.75,-1,3,,,,,,,,,,,165,8,3.2.2021,164.9756661
165,"['high', 6]",6,black,45,right,down,high,black_high_45_down,white_high_135_down,9,right,0.478743,1,9,23,1,TRUE,8,1,1,1,TRUE,FALSE,high_6,0.75,-1,3,,,,,,,,,,,165,8,3.2.2021,164.9756661
166,"['low', 1]",1,black,135,left,up,low,black_low_135_up,white_low_45_up,13,right,0.4187006,0,13,19,1,TRUE,10,1,1,1,TRUE,FALSE,low_1,0.75,-1,3,,,,,,,,,,,165,8,3.2.2021,164.9756661
167,"['low', 6]",6,black,135,left,down,low,black_low_135_down,white_low_45_down,4,right,0.2609167,0,4,8,0,TRUE,3,0,1,1,TRUE,FALSE,low_6,0.75,-1,3,,,,,,,,,,,165,8,3.2.2021,164.9756661
168,"['low', 1]",1,black,135,left,up,low,black_low_135_up,white_low_45_up,16,right,0.5561499,0,16,20,0,TRUE,11,1,1,1,TRUE,FALSE,low_1,0.75,-1,3,,,,,,,,,,,165,8,3.2.2021,164.9756661
169,"['high', 2]",2,black,45,right,up,high,black_high_45_up,white_high_135_up,19,right,0.7385675,1,19,17,1,TRUE,11,1,1,1,TRUE,FALSE,high_2,0.75,-1,3,,,,,,,,,,,165,8,3.2.2021,164.9756661
170,"['low', 1]",1,white,135,right,up,low,white_low_135_up,black_low_45_up,19,right,0.2460937,1,19,21,0,FALSE,11,1,1,1,TRUE,FALSE,low_1,0.75,-1,3,,,,,,,,,,,165,8,3.2.2021,164.9756661
171,"['high', 4]",4,black,45,right,up,high,black_high_45_up,white_high_135_up,4,left,0.6011694,0,4,16,1,FALSE,6,1,1,1,TRUE,FALSE,high_4,0.75,-1,3,,,,,,,,,,,165,8,3.2.2021,164.9756661
172,"['low', 1]",1,white,45,left,down,low,white_low_45_down,black_low_135_down,18,left,0.3689189,1,18,22,1,TRUE,12,1,1,1,TRUE,FALSE,low_1,0.75,-1,3,,,,,,,,,,,165,8,3.2.2021,164.9756661
173,"['low', 1]",1,black,45,right,up,low,black_low_45_up,white_low_135_up,17,right,0.4399575,1,17,23,1,FALSE,12,1,1,1,TRUE,FALSE,low_1,0.75,-1,3,,,,,,,,,,,165,8,3.2.2021,164.9756661
174,"['high', 3]",3,black,135,left,down,high,black_high_135_down,white_high_45_down,11,right,0.3342815,0,11,22,1,FALSE,8,1,1,1,TRUE,FALSE,high_3,0.75,-1,3,,,,,,,,,,,165,8,3.2.2021,164.9756661
175,"['low', 6]",6,black,45,right,up,low,black_low_45_up,white_low_135_up,7,right,0.2222909,1,7,9,0,FALSE,3,0,1,1,TRUE,FALSE,low_6,0.75,-1,3,,,,,,,,,,,165,8,3.2.2021,164.9756661
176,"['low', 3]",3,black,45,right,down,low,black_low_45_down,white_low_135_down,5,right,0.1784737,1,5,12,1,FALSE,2,0,1,1,TRUE,FALSE,low_3,0.75,-1,3,,,,,,,,,,,165,8,3.2.2021,164.9756661
177,"['high', 4]",4,white,135,right,down,high,white_high_135_down,black_high_45_down,7,right,0.3534968,1,7,17,0,TRUE,7,1,1,1,TRUE,FALSE,high_4,0.75,-1,3,,,,,,,,,,,165,8,3.2.2021,164.9756661
178,"['low', 3]",3,black,45,right,up,low,black_low_45_up,white_low_135_up,4,right,0.288287,1,4,13,1,FALSE,2,0,1,1,TRUE,FALSE,low_3,0.75,-1,3,,,,,,,,,,,165,8,3.2.2021,164.9756661
179,"['low', 6]",6,black,45,right,up,low,black_low_45_up,white_low_135_up,6,right,0.3235299,1,6,10,1,TRUE,4,0,1,1,TRUE,FALSE,low_6,0.75,-1,3,,,,,,,,,,,165,8,3.2.2021,164.9756661
180,"['low', 1]",1,black,45,right,up,low,black_low_45_up,white_low_135_up,16,left,0.3380924,0,16,24,1,FALSE,12,1,1,1,TRUE,FALSE,low_1,0.75,-1,3,,,,,,,,,,,165,8,3.2.2021,164.9756661
181,"['high', 6]",6,white,45,left,down,high,white_high_45_down,black_high_135_down,8,right,0.2788134,0,8,24,1,FALSE,8,1,1,1,TRUE,FALSE,high_6,0.75,-1,3,,,,,,,,,,,165,8,3.2.2021,164.9756661
182,"['low', 1]",1,black,135,left,down,low,black_low_135_down,white_low_45_down,19,left,0.2626997,1,19,25,0,TRUE,13,1,1,1,TRUE,FALSE,low_1,0.75,-1,3,,,,,,,,,,,165,8,3.2.2021,164.9756661
183,"['low', 4]",4,white,135,right,up,low,white_low_135_up,black_low_45_up,7,right,0.1796096,1,7,17,0,TRUE,9,1,1,1,TRUE,FALSE,low_4,0.75,-1,3,,,,,,,,,,,165,8,3.2.2021,164.9756661
184,"['low', 6]",6,white,135,right,up,low,white_low_135_up,black_low_45_up,5,right,0.3769824,1,5,11,1,FALSE,4,0,1,1,TRUE,FALSE,low_6,0.75,-1,3,,,,,,,,,,,165,8,3.2.2021,164.9756661
185,"['low', 6]",6,white,135,right,down,low,white_low_135_down,black_low_45_down,4,right,0.2738938,1,4,12,1,FALSE,4,0,1,1,TRUE,FALSE,low_6,0.75,-1,3,,,,,,,,,,,165,8,3.2.2021,164.9756661
186,"['high', 6]",6,black,135,left,up,high,black_high_135_up,white_high_45_up,11,right,0.2673494,0,11,25,0,TRUE,9,1,1,1,TRUE,FALSE,high_6,0.75,-1,3,,,,,,,,,,,165,8,3.2.2021,164.9756661
187,"['high', 1]",1,white,45,left,up,high,white_high_45_up,black_high_135_up,29,left,0.2850583,1,29,15,1,FALSE,7,1,1,1,TRUE,FALSE,high_1,0.75,-1,3,,,,,,,,,,,165,8,3.2.2021,164.9756661
188,"['high', 6]",6,white,45,left,up,high,white_high_45_up,black_high_135_up,14,left,0.5081849,1,14,26,0,FALSE,9,1,1,1,TRUE,FALSE,high_6,0.75,-1,3,,,,,,,,,,,165,8,3.2.2021,164.9756661
189,"['low', 3]",3,white,45,left,up,low,white_low_45_up,black_low_135_up,3,left,0.2466384,1,3,14,1,FALSE,2,0,1,1,TRUE,FALSE,low_3,0.75,-1,3,,,,,,,,,,,165,8,3.2.2021,164.9756661
190,"['high', 6]",6,black,135,left,up,high,black_high_135_up,white_high_45_up,13,left,0.2879378,1,13,27,1,TRUE,10,1,1,1,TRUE,FALSE,high_6,0.75,-1,3,,,,,,,,,,,165,8,3.2.2021,164.9756661
191,"['low', 3]",3,black,45,right,down,low,black_low_45_down,white_low_135_down,2,right,0.3602462,1,2,15,1,FALSE,2,0,1,1,TRUE,FALSE,low_3,0.75,-1,3,,,,,,,,,,,165,8,3.2.2021,164.9756661
192,"['high', 2]",2,white,135,right,down,high,white_high_135_down,black_high_45_down,18,right,0.4033159,1,18,18,1,FALSE,11,1,1,1,TRUE,FALSE,high_2,0.75,-1,3,,,,,,,,,,,165,8,3.2.2021,164.9756661
193,"['low', 2]",2,white,135,right,down,low,white_low_135_down,black_low_45_down,8,right,0.3035388,1,8,16,1,TRUE,10,1,1,1,TRUE,FALSE,low_2,0.75,-1,3,,,,,,,,,,,165,8,3.2.2021,164.9756661
194,"['high', 4]",4,white,45,left,down,high,white_high_45_down,black_high_135_down,6,left,0.3454016,1,6,18,1,TRUE,8,1,1,1,TRUE,FALSE,high_4,0.75,-1,3,,,,,,,,,,,165,8,3.2.2021,164.9756661
195,"['low', 6]",6,white,45,left,up,low,white_low_45_up,black_low_135_up,3,left,0.239794,1,3,13,1,FALSE,4,0,1,1,TRUE,FALSE,low_6,0.75,-1,3,,,,,,,,,,,165,8,3.2.2021,164.9756661
196,"['low', 4]",4,black,45,right,down,low,black_low_45_down,white_low_135_down,6,right,0.1979449,1,6,18,1,TRUE,10,1,1,1,TRUE,FALSE,low_4,0.75,-1,3,,,,,,,,,,,165,8,3.2.2021,164.9756661
197,"['low', 2]",2,white,45,left,down,low,white_low_45_down,black_low_135_down,7,left,0.1677952,1,7,17,1,FALSE,10,1,1,1,TRUE,FALSE,low_2,0.75,-1,3,,,,,,,,,,,165,8,3.2.2021,164.9756661
198,"['low', 4]",4,white,135,right,up,low,white_low_135_up,black_low_45_up,5,right,0.3939519,1,5,19,1,FALSE,10,1,1,1,TRUE,FALSE,low_4,0.75,-1,3,,,,,,,,,,,165,8,3.2.2021,164.9756661
199,"['low', 6]",6,white,135,right,down,low,white_low_135_down,black_low_45_down,2,right,0.2439666,1,2,14,1,FALSE,4,0,1,1,TRUE,FALSE,low_6,0.75,-1,3,,,,,,,,,,,165,8,3.2.2021,164.9756661
200,"['low', 2]",2,white,45,left,down,low,white_low_45_down,black_low_135_down,6,right,0.5035021,0,6,18,1,FALSE,10,1,1,1,TRUE,FALSE,low_2,0.75,-1,3,,,,,,,,,,,165,8,3.2.2021,164.9756661
201,"['low', 3]",3,white,135,right,up,low,white_low_135_up,black_low_45_up,1,left,0.8604944,0,1,16,1,FALSE,2,0,1,1,TRUE,FALSE,low_3,0.75,-1,3,,,,,,,,,,,165,8,3.2.2021,164.9756661
202,"['high', 3]",3,black,45,right,up,high,black_high_45_up,white_high_135_up,14,right,0.2661246,1,14,23,0,TRUE,9,1,1,1,TRUE,FALSE,high_3,0.75,-1,3,,,,,,,,,,,165,8,3.2.2021,164.9756661
203,"['low', 6]",6,white,135,right,up,low,white_low_135_up,black_low_45_up,1,right,0.6413009,1,1,15,1,FALSE,4,0,1,1,TRUE,FALSE,low_6,0.75,-1,3,,,,,,,,,,,165,8,3.2.2021,164.9756661
204,"['low', 4]",4,black,45,right,up,low,black_low_45_up,white_low_135_up,4,right,0.2461946,1,4,20,1,FALSE,10,1,1,1,TRUE,FALSE,low_4,0.75,-1,3,,,,,,,,,,,165,8,3.2.2021,164.9756661
205,"['low', 2]",2,black,45,right,up,low,black_low_45_up,white_low_135_up,9,right,0.1692168,1,9,19,0,TRUE,11,1,1,1,TRUE,FALSE,low_2,0.75,-1,3,,,,,,,,,,,165,8,3.2.2021,164.9756661
206,"['high', 1]",1,black,45,right,up,high,black_high_45_up,white_high_135_up,28,left,2.1915032,0,28,16,1,FALSE,7,1,1,1,TRUE,FALSE,high_1,0.75,-1,3,,,,,,,,,,,165,8,3.2.2021,164.9756661
207,"['high', 2]",2,black,135,left,up,high,black_high_135_up,white_high_45_up,17,right,0.6268593,0,17,19,1,FALSE,11,1,1,1,TRUE,FALSE,high_2,0.75,-1,3,,,,,,,,,,,165,8,3.2.2021,164.9756661
208,"['high', 4]",4,white,45,left,down,high,white_high_45_down,black_high_135_down,5,right,0.2611514,0,5,19,1,FALSE,8,1,1,1,TRUE,FALSE,high_4,0.75,-1,3,,,,,,,,,,,165,8,3.2.2021,164.9756661
209,"['high', 2]",2,black,135,left,down,high,black_high_135_down,white_high_45_down,20,left,0.4360777,1,20,20,0,TRUE,12,1,1,1,TRUE,FALSE,high_2,0.75,-1,3,,,,,,,,,,,165,8,3.2.2021,164.9756661
210,"['high', 6]",6,white,135,right,up,high,white_high_135_up,black_high_45_up,12,right,0.246456,1,12,28,1,FALSE,10,1,1,1,TRUE,FALSE,high_6,0.75,-1,3,,,,,,,,,,,165,8,3.2.2021,164.9756661
211,"['low', 4]",4,white,135,right,up,low,white_low_135_up,black_low_45_up,3,right,0.1670641,1,3,21,1,FALSE,10,1,1,1,TRUE,FALSE,low_4,0.75,-1,3,,,,,,,,,,,165,8,3.2.2021,164.9756661
212,"['high', 1]",1,black,45,right,down,high,black_high_45_down,white_high_135_down,31,right,1.2009069,1,31,17,0,TRUE,8,1,1,1,TRUE,FALSE,high_1,0.75,-1,3,,,,,,,,,,,165,8,3.2.2021,164.9756661
213,"['low', 4]",4,white,45,left,down,low,white_low_45_down,black_low_135_down,2,right,0.2553902,0,2,22,1,FALSE,10,1,1,1,TRUE,FALSE,low_4,0.75,-1,3,,,,,,,,,,,165,8,3.2.2021,164.9756661
214,"['low', 2]",2,white,45,left,down,low,white_low_45_down,black_low_135_down,8,left,1.5615765,1,8,20,1,TRUE,12,1,1,1,TRUE,FALSE,low_2,0.75,-1,3,,,,,,,,,,,165,8,3.2.2021,164.9756661
215,"['high', 4]",4,white,135,right,down,high,white_high_135_down,black_high_45_down,8,right,0.3543027,1,8,20,0,TRUE,9,1,1,1,TRUE,FALSE,high_4,0.75,-1,3,,,,,,,,,,,165,8,3.2.2021,164.9756661
216,"['low', 4]",4,white,45,left,up,low,white_low_45_up,black_low_135_up,5,left,0.0217336,1,5,23,0,TRUE,11,1,1,1,TRUE,FALSE,low_4,0.75,-1,3,,,,,,,,,,,165,8,3.2.2021,164.9756661
217,"['high', 4]",4,black,135,left,up,high,black_high_135_up,white_high_45_up,7,right,0.4046005,0,7,21,1,TRUE,10,1,1,1,TRUE,FALSE,high_4,0.75,-1,3,,,,,,,,,,,165,8,3.2.2021,164.9756661
218,"['high', 3]",3,white,45,left,up,high,white_high_45_up,black_high_135_up,13,left,0.091389,1,13,24,1,TRUE,10,1,1,1,TRUE,FALSE,high_3,0.75,-1,3,,,,,,,,,,,165,8,3.2.2021,164.9756661
219,"['low', 6]",6,white,135,right,up,low,white_low_135_up,black_low_45_up,1,right,0.1937021,1,1,16,1,FALSE,4,0,1,1,TRUE,FALSE,low_6,0.75,-1,3,,,,,,,,,,,165,8,3.2.2021,164.9756661
220,"['high', 4]",4,white,45,left,down,high,white_high_45_down,black_high_135_down,10,left,0.1774706,1,10,22,0,TRUE,11,1,1,1,TRUE,FALSE,high_4,0.75,-1,3,,,,,,,,,,,165,8,3.2.2021,164.9756661
221,"['high', 4]",4,black,135,left,up,high,black_high_135_up,white_high_45_up,9,left,0.3798967,1,9,23,1,TRUE,12,1,1,1,TRUE,FALSE,high_4,0.75,-1,3,,,,,,,,,,,165,8,3.2.2021,164.9756661
222,"['high', 2]",2,white,135,right,down,high,white_high_135_down,black_high_45_down,19,right,0.3841801,1,19,21,1,TRUE,13,1,1,1,TRUE,FALSE,high_2,0.75,-1,3,,,,,,,,,,,165,8,3.2.2021,164.9756661
223,"['low', 1]",1,white,45,left,down,low,white_low_45_down,black_low_135_down,18,left,0.2307818,1,18,26,1,TRUE,14,1,1,1,TRUE,FALSE,low_1,0.75,-1,3,,,,,,,,,,,165,8,3.2.2021,164.9756661
224,"['high', 4]",4,white,135,right,up,high,white_high_135_up,black_high_45_up,8,right,0.0798104,1,8,24,1,FALSE,12,1,1,1,TRUE,FALSE,high_4,0.75,-1,3,,,,,,,,,,,165,8,3.2.2021,164.9756661
225,"['low', 3]",3,white,45,left,down,low,white_low_45_down,black_low_135_down,4,left,0.1945416,1,4,17,0,TRUE,3,0,1,1,TRUE,FALSE,low_3,0.75,-1,3,,,,,,,,,,,165,8,3.2.2021,164.9756661
226,"['low', 6]",6,black,135,left,up,low,black_low_135_up,white_low_45_up,1,left,0.5533802,1,1,17,1,FALSE,4,0,1,1,TRUE,FALSE,low_6,0.75,-1,3,,,,,,,,,,,165,8,3.2.2021,164.9756661
227,"['high', 1]",1,black,45,right,down,high,black_high_45_down,white_high_135_down,30,left,0.9080322,0,30,18,1,TRUE,9,1,1,1,TRUE,FALSE,high_1,0.75,-1,3,,,,,,,,,,,165,8,3.2.2021,164.9756661
228,"['low', 6]",6,black,135,left,down,low,black_low_135_down,white_low_45_down,1,left,0.3129083,1,1,18,1,FALSE,4,0,1,1,TRUE,FALSE,low_6,0.75,-1,3,,,,,,,,,,,165,8,3.2.2021,164.9756661
229,"['low', 3]",3,black,135,left,up,low,black_low_135_up,white_low_45_up,3,left,1.0464753,1,3,18,1,TRUE,4,0,1,1,TRUE,FALSE,low_3,0.75,-1,3,,,,,,,,,,,165,8,3.2.2021,164.9756661
230,"['high', 1]",1,white,45,left,up,high,white_high_45_up,black_high_135_up,33,left,0.1981118,1,33,19,0,TRUE,10,1,1,1,TRUE,FALSE,high_1,0.75,-1,3,,,,,,,,,,,165,8,3.2.2021,164.9756661
231,"['low', 4]",4,white,45,left,up,low,white_low_45_up,black_low_135_up,4,left,0.2911788,1,4,24,1,TRUE,12,1,1,1,TRUE,FALSE,low_4,0.75,-1,3,,,,,,,,,,,165,8,3.2.2021,164.9756661
232,"['low', 1]",1,white,135,right,up,low,white_low_135_up,black_low_45_up,17,right,0.1830618,1,17,27,1,FALSE,14,1,1,1,TRUE,FALSE,low_1,0.75,-1,3,,,,,,,,,,,165,8,3.2.2021,164.9756661
233,"['low', 6]",6,black,45,right,up,low,black_low_45_up,white_low_135_up,1,right,0.2665506,1,1,19,1,FALSE,4,0,1,1,TRUE,FALSE,low_6,0.75,-1,3,,,,,,,,,,,165,8,3.2.2021,164.9756661
234,"['high', 4]",4,black,45,right,up,high,black_high_45_up,white_high_135_up,7,left,0.6615578,0,7,25,1,FALSE,12,1,1,1,TRUE,FALSE,high_4,0.75,-1,3,,,,,,,,,,,165,8,3.2.2021,164.9756661
235,"['high', 3]",3,white,135,right,down,high,white_high_135_down,black_high_45_down,12,right,0.0925908,1,12,25,1,FALSE,10,1,1,1,TRUE,FALSE,high_3,0.75,-1,3,,,,,,,,,,,165,8,3.2.2021,164.9756661
236,"['low', 1]",1,black,45,right,up,low,black_low_45_up,white_low_135_up,16,left,0.1343361,0,16,28,1,FALSE,14,1,1,1,TRUE,FALSE,low_1,0.75,-1,3,,,,,,,,,,,165,8,3.2.2021,164.9756661
237,"['low', 3]",3,white,45,left,up,low,white_low_45_up,black_low_135_up,2,left,0.4027194,1,2,19,1,FALSE,4,0,1,1,TRUE,FALSE,low_3,0.75,-1,3,,,,,,,,,,,165,8,3.2.2021,164.9756661
238,"['high', 1]",1,white,45,left,down,high,white_high_45_down,black_high_135_down,32,left,0.113587,1,32,20,1,TRUE,11,1,1,1,TRUE,FALSE,high_1,0.75,-1,3,,,,,,,,,,,165,8,3.2.2021,164.9756661
239,"['low', 3]",3,black,45,right,up,low,black_low_45_up,white_low_135_up,1,left,0.3885429,0,1,20,1,FALSE,4,0,1,1,TRUE,FALSE,low_3,0.75,-1,3,,,,,,,,,,,165,8,3.2.2021,164.9756661
240,"['high', 2]",2,white,45,left,down,high,white_high_45_down,black_high_135_down,18,left,0.2652381,1,18,22,1,FALSE,13,1,1,1,TRUE,FALSE,high_2,0.75,-1,3,,,,,,,,,,,165,8,3.2.2021,164.9756661
241,"['high', 1]",1,white,45,left,up,high,white_high_45_up,black_high_135_up,31,left,0.0577121,1,31,21,1,FALSE,11,1,1,1,TRUE,FALSE,high_1,0.75,-1,3,,,,,,,,,,,165,8,3.2.2021,164.9756661
242,"['low', 6]",6,black,135,left,down,low,black_low_135_down,white_low_45_down,1,left,0.3387983,1,1,20,1,FALSE,4,0,1,1,TRUE,FALSE,low_6,0.75,-1,3,,,,,,,,,,,165,8,3.2.2021,164.9756661
243,"['high', 4]",4,white,135,right,down,high,white_high_135_down,black_high_45_down,10,right,0.1047306,1,10,26,0,TRUE,13,1,1,1,TRUE,FALSE,high_4,0.75,-1,3,,,,,,,,,,,165,8,3.2.2021,164.9756661
244,"['low', 1]",1,white,45,left,up,low,white_low_45_up,black_low_135_up,19,left,0.1900759,1,19,29,0,TRUE,15,1,1,1,TRUE,FALSE,low_1,0.75,-1,3,,,,,,,,,,,165,8,3.2.2021,164.9756661
245,"['low', 4]",4,black,45,right,down,low,black_low_45_down,white_low_135_down,3,right,0.2249049,1,3,25,1,FALSE,12,1,1,1,TRUE,FALSE,low_4,0.75,-1,3,,,,,,,,,,,165,8,3.2.2021,164.9756661
246,"['low', 2]",2,white,45,left,down,low,white_low_45_down,black_low_135_down,7,left,0.1971236,1,7,21,1,FALSE,12,1,1,1,TRUE,FALSE,low_2,0.75,-1,3,,,,,,,,,,,165,8,3.2.2021,164.9756661
247,"['low', 6]",6,black,135,left,down,low,black_low_135_down,white_low_45_down,1,left,0.3962774,1,1,21,1,FALSE,4,0,1,1,TRUE,FALSE,low_6,0.75,-1,3,,,,,,,,,,,165,8,3.2.2021,164.9756661
248,"['low', 6]",6,white,135,right,down,low,white_low_135_down,black_low_45_down,1,left,0.3268648,0,1,22,1,FALSE,4,0,1,1,TRUE,FALSE,low_6,0.75,-1,3,,,,,,,,,,,165,8,3.2.2021,164.9756661
249,"['low', 3]",3,white,135,right,up,low,white_low_135_up,black_low_45_up,4,right,0.3297947,1,4,21,0,TRUE,5,1,1,1,TRUE,FALSE,low_3,0.75,-1,3,,,,,,,,,,,165,8,3.2.2021,164.9756661
250,"['low', 4]",4,black,45,right,down,low,black_low_45_down,white_low_135_down,2,right,0.251547,1,2,26,1,FALSE,12,1,1,1,TRUE,FALSE,low_4,0.75,-1,3,,,,,,,,,,,165,8,3.2.2021,164.9756661
251,"['low', 2]",2,black,45,right,down,low,black_low_45_down,white_low_135_down,6,right,0.1641576,1,6,22,1,FALSE,12,1,1,1,TRUE,FALSE,low_2,0.75,-1,3,,,,,,,,,,,165,8,3.2.2021,164.9756661
252,"['high', 4]",4,white,45,left,up,high,white_high_45_up,black_high_135_up,9,left,0.1038151,1,9,27,1,TRUE,14,1,1,1,TRUE,FALSE,high_4,0.75,-1,3,,,,,,,,,,,165,8,3.2.2021,164.9756661
253,"['high', 1]",1,black,45,right,up,high,black_high_45_up,white_high_135_up,30,right,0.308833,1,30,22,1,FALSE,11,1,1,1,TRUE,FALSE,high_1,0.75,-1,3,,,,,,,,,,,165,8,3.2.2021,164.9756661
254,"['high', 2]",2,black,45,right,up,high,black_high_45_up,white_high_135_up,17,left,0.2599816,0,17,23,1,FALSE,13,1,1,1,TRUE,FALSE,high_2,0.75,-1,3,,,,,,,,,,,165,8,3.2.2021,164.9756661
255,"['low', 2]",2,white,135,right,up,low,white_low_135_up,black_low_45_up,5,right,0.210464,1,5,23,1,FALSE,12,1,1,1,TRUE,FALSE,low_2,0.75,-1,3,,,,,,,,,,,165,8,3.2.2021,164.9756661
256,"['low', 1]",1,white,135,right,up,low,white_low_135_up,black_low_45_up,18,right,0.1312276,1,18,30,1,TRUE,16,1,1,1,TRUE,FALSE,low_1,0.75,-1,3,,,,,,,,,,,165,8,3.2.2021,164.9756661
257,"['low', 3]",3,white,135,right,down,low,white_low_135_down,black_low_45_down,3,right,0.1986879,1,3,22,1,TRUE,6,1,1,1,TRUE,FALSE,low_3,0.75,-1,3,,,,,,,,,,,165,8,3.2.2021,164.9756661
258,"['low', 1]",1,white,135,right,down,low,white_low_135_down,black_low_45_down,17,right,0.4210087,1,17,31,1,FALSE,16,1,1,1,TRUE,FALSE,low_1,0.75,-1,3,,,,,,,,,,,165,8,3.2.2021,164.9756661
259,"['low', 2]",2,white,135,right,down,low,white_low_135_down,black_low_45_down,4,right,0.0385317,1,4,24,1,FALSE,12,1,1,1,TRUE,FALSE,low_2,0.75,-1,3,,,,,,,,,,,165,8,3.2.2021,164.9756661
260,"['high', 4]",4,white,135,right,up,high,white_high_135_up,black_high_45_up,8,right,0.3835318,1,8,28,1,FALSE,14,1,1,1,TRUE,FALSE,high_4,0.75,-1,3,,,,,,,,,,,165,8,3.2.2021,164.9756661
261,"['low', 1]",1,black,135,left,up,low,black_low_135_up,white_low_45_up,16,right,0.7591237,0,16,32,1,FALSE,16,1,1,1,TRUE,FALSE,low_1,0.75,-1,3,,,,,,,,,,,165,8,3.2.2021,164.9756661
262,"['high', 3]",3,black,45,right,up,high,black_high_45_up,white_high_135_up,11,right,0.2442792,1,11,26,1,FALSE,10,1,1,1,TRUE,FALSE,high_3,0.75,-1,3,,,,,,,,,,,165,8,3.2.2021,164.9756661
263,"['high', 1]",1,black,135,left,down,high,black_high_135_down,white_high_45_down,29,left,0.3450044,1,29,23,1,FALSE,11,1,1,1,TRUE,FALSE,high_1,0.75,-1,3,,,,,,,,,,,165,8,3.2.2021,164.9756661
264,"['high', 3]",3,black,135,left,down,high,black_high_135_down,white_high_45_down,10,right,0.5145651,0,10,27,1,FALSE,10,1,1,1,TRUE,FALSE,high_3,0.75,-1,3,,,,,,,,,,,165,8,3.2.2021,164.9756661
265,"['low', 3]",3,black,135,left,down,low,black_low_135_down,white_low_45_down,2,left,0.2999198,1,2,23,1,FALSE,6,1,1,1,TRUE,FALSE,low_3,0.75,-1,3,,,,,,,,,,,165,8,3.2.2021,164.9756661
266,"['low', 3]",3,white,135,right,down,low,white_low_135_down,black_low_45_down,1,right,0.216536,1,1,24,1,FALSE,6,1,1,1,TRUE,FALSE,low_3,0.75,-1,3,,,,,,,,,,,165,8,3.2.2021,164.9756661
267,"['low', 4]",4,black,45,right,up,low,black_low_45_up,white_low_135_up,1,right,0.2991335,1,1,27,1,FALSE,12,1,1,1,TRUE,FALSE,low_4,0.75,-1,3,,,,,,,,,,,165,8,3.2.2021,164.9756661
268,"['low', 3]",3,black,135,left,up,low,black_low_135_up,white_low_45_up,1,left,0.3634507,1,1,25,1,FALSE,6,1,1,1,TRUE,FALSE,low_3,0.75,-1,3,,,,,,,,,,,165,8,3.2.2021,164.9756661
269,"['high', 3]",3,white,45,left,up,high,white_high_45_up,black_high_135_up,13,left,0.2269529,1,13,28,0,TRUE,11,1,1,1,TRUE,FALSE,high_3,0.75,-1,3,,,,,,,,,,,165,8,3.2.2021,164.9756661
270,"['low', 6]",6,black,45,right,up,low,black_low_45_up,white_low_135_up,4,right,0.0127759,1,4,23,0,TRUE,5,1,1,1,TRUE,FALSE,low_6,0.75,-1,3,,,,,,,,,,,165,8,3.2.2021,164.9756661
271,"['low', 1]",1,black,45,right,down,low,black_low_45_down,white_low_135_down,19,right,0.387554,1,19,33,0,TRUE,17,1,1,1,TRUE,FALSE,low_1,0.75,-1,3,,,,,,,,,,,165,8,3.2.2021,164.9756661
272,"['low', 1]",1,black,135,left,down,low,black_low_135_down,white_low_45_down,18,left,0.415958,1,18,34,1,TRUE,18,1,1,1,TRUE,FALSE,low_1,0.75,-1,3,,,,,,,,,,,165,8,3.2.2021,164.9756661
273,"['high', 2]",2,black,135,left,down,high,black_high_135_down,white_high_45_down,20,right,0.9640964,0,20,24,0,TRUE,14,1,1,1,TRUE,FALSE,high_2,0.75,-1,3,,,,,,,,,,,165,8,3.2.2021,164.9756661
274,"['high', 2]",2,white,45,left,up,high,white_high_45_up,black_high_135_up,23,left,0.2082402,1,23,25,0,FALSE,14,1,1,1,TRUE,FALSE,high_2,0.75,-1,3,,,,,,,,,,,165,8,3.2.2021,164.9756661
275,"['low', 3]",3,white,135,right,up,low,white_low_135_up,black_low_45_up,1,left,0.4542072,0,1,26,1,FALSE,6,1,1,1,TRUE,FALSE,low_3,0.75,-1,3,,,,,,,,,,,165,8,3.2.2021,164.9756661
276,"['high', 6]",6,black,135,left,up,high,black_high_135_up,white_high_45_up,11,left,0.3545805,1,11,29,1,FALSE,10,1,1,1,TRUE,FALSE,high_6,0.75,-1,3,,,,,,,,,,,165,8,3.2.2021,164.9756661
277,"['low', 6]",6,white,135,right,up,low,white_low_135_up,black_low_45_up,3,right,0.1220006,1,3,24,1,TRUE,6,1,1,1,TRUE,FALSE,low_6,0.75,-1,3,,,,,,,,,,,165,8,3.2.2021,164.9756661
278,"['low', 2]",2,black,135,left,down,low,black_low_135_down,white_low_45_down,3,left,0.6142713,1,3,25,1,FALSE,12,1,1,1,TRUE,FALSE,low_2,0.75,-1,3,,,,,,,,,,,165,8,3.2.2021,164.9756661
279,"['low', 2]",2,white,135,right,up,low,white_low_135_up,black_low_45_up,2,left,0.4084398,0,2,26,1,FALSE,12,1,1,1,TRUE,FALSE,low_2,0.75,-1,3,,,,,,,,,,,165,8,3.2.2021,164.9756661
280,"['low', 6]",6,white,135,right,down,low,white_low_135_down,black_low_45_down,2,right,0.2393899,1,2,25,1,FALSE,6,1,1,1,TRUE,FALSE,low_6,0.75,-1,3,,,,,,,,,,,165,8,3.2.2021,164.9756661
281,"['low', 3]",3,black,135,left,up,low,black_low_135_up,white_low_45_up,4,left,0.1764517,1,4,27,0,TRUE,7,1,1,1,TRUE,FALSE,low_3,0.75,-1,3,,,,,,,,,,,165,8,3.2.2021,164.9756661
282,"['high', 6]",6,white,135,right,down,high,white_high_135_down,black_high_45_down,10,right,0.6516557,1,10,30,1,FALSE,10,1,1,1,TRUE,FALSE,high_6,0.75,-1,3,,,,,,,,,,,165,8,3.2.2021,164.9756661
283,"['high', 2]",2,white,45,left,down,high,white_high_45_down,black_high_135_down,22,left,0.2521346,1,22,26,1,TRUE,15,1,1,1,TRUE,FALSE,high_2,0.75,-1,3,,,,,,,,,,,165,8,3.2.2021,164.9756661
284,"['high', 3]",3,white,135,right,up,high,white_high_135_up,black_high_45_up,12,right,0.4227319,1,12,29,1,TRUE,12,1,1,1,TRUE,FALSE,high_3,0.75,-1,3,,,,,,,,,,,165,8,3.2.2021,164.9756661
285,"['high', 6]",6,black,45,right,up,high,black_high_45_up,white_high_135_up,9,right,0.2742823,1,9,31,1,FALSE,10,1,1,1,TRUE,FALSE,high_6,0.75,-1,3,,,,,,,,,,,165,8,3.2.2021,164.9756661
286,"['low', 3]",3,black,135,left,up,low,black_low_135_up,white_low_45_up,3,right,0.6168459,0,3,28,1,TRUE,8,1,1,1,TRUE,FALSE,low_3,0.75,-1,3,,,,,,,,,,,165,8,3.2.2021,164.9756661
287,"['high', 2]",2,black,135,left,up,high,black_high_135_up,white_high_45_up,21,left,0.2586958,1,21,27,1,FALSE,15,1,1,1,TRUE,FALSE,high_2,0.75,-1,3,,,,,,,,,,,165,8,3.2.2021,164.9756661
288,"['low', 2]",2,black,135,left,up,low,black_low_135_up,white_low_45_up,5,left,0.816085,1,5,27,0,TRUE,13,1,1,1,TRUE,FALSE,low_2,0.75,-1,3,,,,,,,,,,,165,8,3.2.2021,164.9756661
289,"['low', 6]",6,black,135,left,up,low,black_low_135_up,white_low_45_up,1,left,0.2619302,1,1,26,1,FALSE,6,1,1,1,TRUE,FALSE,low_6,0.75,-1,3,,,,,,,,,,,165,8,3.2.2021,164.9756661
290,"['high', 6]",6,white,45,left,up,high,white_high_45_up,black_high_135_up,8,left,0.0832667,1,8,32,1,FALSE,10,1,1,1,TRUE,FALSE,high_6,0.75,-1,3,,,,,,,,,,,165,8,3.2.2021,164.9756661
291,"['high', 3]",3,black,135,left,up,high,black_high_135_up,white_high_45_up,11,left,0.2004639,1,11,30,1,FALSE,12,1,1,1,TRUE,FALSE,high_3,0.75,-1,3,,,,,,,,,,,165,8,3.2.2021,164.9756661
292,"['high', 4]",4,black,45,right,up,high,black_high_45_up,white_high_135_up,7,left,0.1219645,0,7,29,1,FALSE,14,1,1,1,TRUE,FALSE,high_4,0.75,-1,3,,,,,,,,,,,165,8,3.2.2021,164.9756661
293,"['low', 1]",1,black,135,left,down,low,black_low_135_down,white_low_45_down,17,left,0.4214642,1,17,35,1,FALSE,18,1,1,1,TRUE,FALSE,low_1,0.75,-1,3,,,,,,,,,,,165,8,3.2.2021,164.9756661
294,"['high', 4]",4,white,135,right,down,high,white_high_135_down,black_high_45_down,10,right,0.2361841,1,10,30,0,TRUE,15,1,1,1,TRUE,FALSE,high_4,0.75,-1,3,,,,,,,,,,,165,8,3.2.2021,164.9756661
295,"['low', 2]",2,white,45,left,up,low,white_low_45_up,black_low_135_up,4,left,0.2663232,1,4,28,1,TRUE,14,1,1,1,TRUE,FALSE,low_2,0.75,-1,3,,,,,,,,,,,165,8,3.2.2021,164.9756661
296,"['high', 2]",2,black,135,left,up,high,black_high_135_up,white_high_45_up,20,right,0.6315125,0,20,28,1,FALSE,15,1,1,1,TRUE,FALSE,high_2,0.75,-1,3,,,,,,,,,,,165,8,3.2.2021,164.9756661
297,"['high', 6]",6,black,45,right,down,high,black_high_45_down,white_high_135_down,7,right,0.1699579,1,7,33,1,FALSE,10,1,1,1,TRUE,FALSE,high_6,0.75,-1,3,,,,,,,,,,,165,8,3.2.2021,164.9756661
298,"['low', 6]",6,white,135,right,up,low,white_low_135_up,black_low_45_up,1,right,0.2400775,1,1,27,1,FALSE,6,1,1,1,TRUE,FALSE,low_6,0.75,-1,3,,,,,,,,,,,165,8,3.2.2021,164.9756661
299,"['low', 2]",2,white,135,right,down,low,white_low_135_down,black_low_45_down,3,right,0.2403817,1,3,29,1,FALSE,14,1,1,1,TRUE,FALSE,low_2,0.75,-1,3,,,,,,,,,,,165,8,3.2.2021,164.9756661
300,"['low', 4]",4,black,45,right,down,low,black_low_45_down,white_low_135_down,1,right,0.3597988,1,1,28,1,FALSE,12,1,1,1,TRUE,FALSE,low_4,0.75,-1,3,,,,,,,,,,,165,8,3.2.2021,164.9756661
301,"['high', 1]",1,black,45,right,up,high,black_high_45_up,white_high_135_up,28,right,0.5244878,1,28,24,1,FALSE,11,1,1,1,TRUE,FALSE,high_1,0.75,-1,3,,,,,,,,,,,165,8,3.2.2021,164.9756661
302,"['low', 3]",3,black,45,right,up,low,black_low_45_up,white_low_135_up,6,right,0.1886181,1,6,29,0,TRUE,9,1,1,1,TRUE,FALSE,low_3,0.75,-1,3,,,,,,,,,,,165,8,3.2.2021,164.9756661
303,"['high', 3]",3,black,135,left,down,high,black_high_135_down,white_high_45_down,10,left,0.2166934,1,10,31,1,FALSE,12,1,1,1,TRUE,FALSE,high_3,0.75,-1,3,,,,,,,,,,,165,8,3.2.2021,164.9756661
304,"['high', 2]",2,white,45,left,up,high,white_high_45_up,black_high_135_up,23,left,0.1188603,1,23,29,0,TRUE,16,1,1,1,TRUE,FALSE,high_2,0.75,-1,3,,,,,,,,,,,165,8,3.2.2021,164.9756661
305,"['low', 3]",3,white,135,right,up,low,white_low_135_up,black_low_45_up,5,right,0.2468919,1,5,30,1,TRUE,10,1,1,1,TRUE,FALSE,low_3,0.75,-1,3,,,,,,,,,,,165,8,3.2.2021,164.9756661
306,"['high', 1]",1,white,45,left,down,high,white_high_45_down,black_high_135_down,27,left,0.1687287,1,27,25,1,FALSE,11,1,1,1,TRUE,FALSE,high_1,0.75,-1,3,,,,,,,,,,,165,8,3.2.2021,164.9756661
307,"['low', 3]",3,white,45,left,down,low,white_low_45_down,black_low_135_down,4,left,0.2090246,1,4,31,1,FALSE,10,1,1,1,TRUE,FALSE,low_3,0.75,-1,3,,,,,,,,,,,165,8,3.2.2021,164.9756661
308,"['high', 1]",1,black,45,right,down,high,black_high_45_down,white_high_135_down,26,right,0.390529,1,26,26,1,FALSE,11,1,1,1,TRUE,FALSE,high_1,0.75,-1,3,,,,,,,,,,,165,8,3.2.2021,164.9756661
309,"['high', 2]",2,black,135,left,up,high,black_high_135_up,white_high_45_up,22,right,0.3315254,0,22,30,1,TRUE,17,1,1,1,TRUE,FALSE,high_2,0.75,-1,3,,,,,,,,,,,165,8,3.2.2021,164.9756661
310,"['high', 6]",6,black,135,left,down,high,black_high_135_down,white_high_45_down,6,left,0.2080468,1,6,34,1,FALSE,10,1,1,1,TRUE,FALSE,high_6,0.75,-1,3,,,,,,,,,,,165,8,3.2.2021,164.9756661
311,"['high', 2]",2,black,45,right,down,high,black_high_45_down,white_high_135_down,25,right,0.3632163,1,25,31,0,TRUE,18,1,1,1,TRUE,FALSE,high_2,0.75,-1,3,,,,,,,,,,,165,8,3.2.2021,164.9756661
312,"['low', 3]",3,white,135,right,up,low,white_low_135_up,black_low_45_up,3,right,0.2259998,1,3,32,1,FALSE,10,1,1,1,TRUE,FALSE,low_3,0.75,-1,3,,,,,,,,,,,165,8,3.2.2021,164.9756661
313,"['low', 1]",1,white,45,left,up,low,white_low_45_up,black_low_135_up,16,left,0.2664165,1,16,36,1,FALSE,18,1,1,1,TRUE,FALSE,low_1,0.75,-1,3,,,,,,,,,,,165,8,3.2.2021,164.9756661
314,"['high', 6]",6,black,45,right,up,high,black_high_45_up,white_high_135_up,5,right,0.0656809,1,5,35,1,FALSE,10,1,1,1,TRUE,FALSE,high_6,0.75,-1,3,,,,,,,,,,,165,8,3.2.2021,164.9756661
315,"['low', 6]",6,white,45,left,up,low,white_low_45_up,black_low_135_up,1,left,0.1857124,1,1,28,1,FALSE,6,1,1,1,TRUE,FALSE,low_6,0.75,-1,3,,,,,,,,,,,165,8,3.2.2021,164.9756661
316,"['high', 6]",6,white,45,left,down,high,white_high_45_down,black_high_135_down,4,right,0.4226972,0,4,36,1,FALSE,10,1,1,1,TRUE,FALSE,high_6,0.75,-1,3,,,,,,,,,,,165,8,3.2.2021,164.9756661
317,"['high', 3]",3,black,45,right,down,high,black_high_45_down,white_high_135_down,9,right,0.1644606,1,9,32,1,FALSE,12,1,1,1,TRUE,FALSE,high_3,0.75,-1,3,,,,,,,,,,,165,8,3.2.2021,164.9756661
318,"['low', 1]",1,white,135,right,down,low,white_low_135_down,black_low_45_down,15,right,0.1154399,1,15,37,1,FALSE,18,1,1,1,TRUE,FALSE,low_1,0.75,-1,3,,,,,,,,,,,165,8,3.2.2021,164.9756661
319,"['low', 6]",6,black,45,right,up,low,black_low_45_up,white_low_135_up,1,right,0.2214466,1,1,29,1,FALSE,6,1,1,1,TRUE,FALSE,low_6,0.75,-1,3,,,,,,,,,,,165,8,3.2.2021,164.9756661
320,"['high', 3]",3,white,45,left,down,high,white_high_45_down,black_high_135_down,8,left,0.1189778,1,8,33,1,FALSE,12,1,1,1,TRUE,FALSE,high_3,0.75,-1,3,,,,,,,,,,,165,8,3.2.2021,164.9756661
321,"['low', 3]",3,black,135,left,down,low,black_low_135_down,white_low_45_down,2,right,0.3970363,0,2,33,1,FALSE,10,1,1,1,TRUE,FALSE,low_3,0.75,-1,3,,,,,,,,,,,165,8,3.2.2021,164.9756661
322,"['high', 6]",6,white,45,left,up,high,white_high_45_up,black_high_135_up,7,left,0.4909328,1,7,37,0,TRUE,11,1,1,1,TRUE,FALSE,high_6,0.75,-1,3,,,,,,,,,,,165,8,3.2.2021,164.9756661
323,"['high', 6]",6,white,135,right,up,high,white_high_135_up,black_high_45_up,6,right,0.2152807,1,6,38,1,TRUE,12,1,1,1,TRUE,FALSE,high_6,0.75,-1,3,,,,,,,,,,,165,8,3.2.2021,164.9756661
324,"['high', 1]",1,black,135,left,up,high,black_high_135_up,white_high_45_up,25,left,0.4836304,1,25,27,1,FALSE,11,1,1,1,TRUE,FALSE,high_1,0.75,-1,3,,,,,,,,,,,165,8,3.2.2021,164.9756661
325,"['low', 2]",2,black,135,left,up,low,black_low_135_up,white_low_45_up,2,right,0.3277823,0,2,30,1,FALSE,14,1,1,1,TRUE,FALSE,low_2,0.75,-1,3,,,,,,,,,,,165,8,3.2.2021,164.9756661
326,"['high', 4]",4,black,45,right,up,high,black_high_45_up,white_high_135_up,9,right,0.1269411,1,9,31,1,TRUE,16,1,1,1,TRUE,FALSE,high_4,0.75,-1,3,,,,,,,,,,,165,8,3.2.2021,164.9756661
327,"['high', 3]",3,white,45,left,up,high,white_high_45_up,black_high_135_up,7,left,0.1430589,1,7,34,1,FALSE,12,1,1,1,TRUE,FALSE,high_3,0.75,-1,3,,,,,,,,,,,165,8,3.2.2021,164.9756661
328,"['low', 3]",3,white,45,left,down,low,white_low_45_down,black_low_135_down,5,left,0.1828075,1,5,34,0,TRUE,11,1,1,1,TRUE,FALSE,low_3,0.75,-1,3,,,,,,,,,,,165,8,3.2.2021,164.9756661
329,"['low', 6]",6,white,135,right,up,low,white_low_135_up,black_low_45_up,1,right,0.2541745,1,1,30,1,FALSE,6,1,1,1,TRUE,FALSE,low_6,0.75,-1,3,,,,,,,,,,,165,8,3.2.2021,164.9756661
330,"['low', 1]",1,white,135,right,up,low,white_low_135_up,black_low_45_up,14,right,0.0784687,1,14,38,1,FALSE,18,1,1,1,TRUE,FALSE,low_1,0.75,-1,3,,,,,,,,,,,165,8,3.2.2021,164.9756661
331,"['high', 1]",1,white,45,left,up,high,white_high_45_up,black_high_135_up,24,left,0.371364,1,24,28,1,FALSE,11,1,1,1,TRUE,FALSE,high_1,0.75,-1,3,,,,,,,,,,,165,8,3.2.2021,164.9756661
332,"['high', 4]",4,black,45,right,up,high,black_high_45_up,white_high_135_up,8,right,0.1645554,1,8,32,1,FALSE,16,1,1,1,TRUE,FALSE,high_4,0.75,-1,3,,,,,,,,,,,165,8,3.2.2021,164.9756661
333,"['high', 6]",6,white,45,left,down,high,white_high_45_down,black_high_135_down,5,left,0.0201747,1,5,39,1,FALSE,12,1,1,1,TRUE,FALSE,high_6,0.75,-1,3,,,,,,,,,,,165,8,3.2.2021,164.9756661
334,"['low', 6]",6,white,135,right,down,low,white_low_135_down,black_low_45_down,1,right,0.2183422,1,1,31,1,FALSE,6,1,1,1,TRUE,FALSE,low_6,0.75,-1,3,,,,,,,,,,,165,8,3.2.2021,164.9756661
335,"['low', 4]",4,black,135,left,down,low,black_low_135_down,white_low_45_down,1,right,0.2910471,0,1,29,1,FALSE,12,1,1,1,TRUE,FALSE,low_4,0.75,-1,3,,,,,,,,,,,165,8,3.2.2021,164.9756661
336,"['high', 2]",2,white,45,left,up,high,white_high_45_up,black_high_135_up,24,left,0.193116,1,24,32,1,TRUE,19,1,1,1,TRUE,FALSE,high_2,0.75,-1,3,,,,,,,,,,,165,8,3.2.2021,164.9756661
337,"['high', 1]",1,white,45,left,down,high,white_high_45_down,black_high_135_down,23,left,0.252875,1,23,29,1,FALSE,11,1,1,1,TRUE,FALSE,high_1,0.75,-1,3,,,,,,,,,,,165,8,3.2.2021,164.9756661
338,"['low', 4]",4,black,135,left,down,low,black_low_135_down,white_low_45_down,4,right,1.9085851,0,4,30,0,TRUE,13,1,1,1,TRUE,FALSE,low_4,0.75,-1,3,,,,,,,,,,,165,8,3.2.2021,164.9756661
339,"['high', 2]",2,white,45,left,up,high,white_high_45_up,black_high_135_up,23,left,0.3457384,1,23,33,1,FALSE,19,1,1,1,TRUE,FALSE,high_2,0.75,-1,3,,,,,,,,,,,165,8,3.2.2021,164.9756661
340,"['low', 1]",1,black,45,right,down,low,black_low_45_down,white_low_135_down,13,left,1.2247453,0,13,39,1,FALSE,18,1,1,1,TRUE,FALSE,low_1,0.75,-1,3,,,,,,,,,,,165,8,3.2.2021,164.9756661
341,"['low', 2]",2,black,135,left,up,low,black_low_135_up,white_low_45_up,5,left,0.3467235,1,5,31,0,TRUE,15,1,1,1,TRUE,FALSE,low_2,0.75,-1,3,,,,,,,,,,,165,8,3.2.2021,164.9756661
342,"['low', 6]",6,white,45,left,down,low,white_low_45_down,black_low_135_down,1,left,0.3022626,1,1,32,1,FALSE,6,1,1,1,TRUE,FALSE,low_6,0.75,-1,3,,,,,,,,,,,165,8,3.2.2021,164.9756661
343,"['high', 6]",6,black,135,left,down,high,black_high_135_down,white_high_45_down,4,left,0.4361562,1,4,40,1,FALSE,12,1,1,1,TRUE,FALSE,high_6,0.75,-1,3,,,,,,,,,,,165,8,3.2.2021,164.9756661
344,"['low', 4]",4,white,45,left,down,low,white_low_45_down,black_low_135_down,7,left,0.1436867,1,7,31,0,FALSE,13,1,1,1,TRUE,FALSE,low_4,0.75,-1,3,,,,,,,,,,,165,8,3.2.2021,164.9756661
345,"['low', 2]",2,white,135,right,down,low,white_low_135_down,black_low_45_down,4,right,0.473602,1,4,32,1,TRUE,16,1,1,1,TRUE,FALSE,low_2,0.75,-1,3,,,,,,,,,,,165,8,3.2.2021,164.9756661
346,"['low', 2]",2,black,135,left,up,low,black_low_135_up,white_low_45_up,3,left,0.4276751,1,3,33,1,FALSE,16,1,1,1,TRUE,FALSE,low_2,0.75,-1,3,,,,,,,,,,,165,8,3.2.2021,164.9756661
347,"['high', 1]",1,white,135,right,up,high,white_high_135_up,black_high_45_up,22,right,0.2888854,1,22,30,1,FALSE,11,1,1,1,TRUE,FALSE,high_1,0.75,-1,3,,,,,,,,,,,165,8,3.2.2021,164.9756661
348,"['high', 1]",1,white,135,right,up,high,white_high_135_up,black_high_45_up,21,right,0.2330097,1,21,31,1,FALSE,11,1,1,1,TRUE,FALSE,high_1,0.75,-1,3,,,,,,,,,,,165,8,3.2.2021,164.9756661
349,"['low', 4]",4,white,135,right,up,low,white_low_135_up,black_low_45_up,6,right,0.224273,1,6,32,1,TRUE,14,1,1,1,TRUE,FALSE,low_4,0.75,-1,3,,,,,,,,,,,165,8,3.2.2021,164.9756661
350,"['high', 1]",1,black,135,left,up,high,black_high_135_up,white_high_45_up,20,right,0.4250509,0,20,32,1,FALSE,11,1,1,1,TRUE,FALSE,high_1,0.75,-1,3,,,,,,,,,,,165,8,3.2.2021,164.9756661
351,"['low', 4]",4,white,45,left,down,low,white_low_45_down,black_low_135_down,5,left,0.2068717,1,5,33,1,FALSE,14,1,1,1,TRUE,FALSE,low_4,0.75,-1,3,,,,,,,,,,,165,8,3.2.2021,164.9756661
352,"['low', 4]",4,white,45,left,down,low,white_low_45_down,black_low_135_down,4,left,0.5227457,1,4,34,1,FALSE,14,1,1,1,TRUE,FALSE,low_4,0.75,-1,3,,,,,,,,,,,165,8,3.2.2021,164.9756661
353,"['high', 3]",3,black,135,left,down,high,black_high_135_down,white_high_45_down,6,left,2.5776418,1,6,35,1,FALSE,12,1,1,1,TRUE,FALSE,high_3,0.75,-1,3,,,,,,,,,,,165,8,3.2.2021,164.9756661
354,"['low', 4]",4,black,135,left,up,low,black_low_135_up,white_low_45_up,3,left,1.5658361,1,3,35,1,FALSE,14,1,1,1,TRUE,FALSE,low_4,0.75,-1,3,,,,,,,,,,,165,8,3.2.2021,164.9756661
355,"['high', 4]",4,black,135,left,down,high,black_high_135_down,white_high_45_down,7,right,1.3604688,0,7,33,1,FALSE,16,1,1,1,TRUE,FALSE,high_4,0.75,-1,3,,,,,,,,,,,165,8,3.2.2021,164.9756661
356,"['low', 3]",3,black,45,right,up,low,black_low_45_up,white_low_135_up,4,right,0.7133998,1,4,35,1,TRUE,12,1,1,1,TRUE,FALSE,low_3,0.75,-1,3,,,,,,,,,,,165,8,3.2.2021,164.9756661
357,"['low', 6]",6,white,45,left,down,low,white_low_45_down,black_low_135_down,1,left,0.8424479,1,1,33,1,FALSE,6,1,1,1,TRUE,FALSE,low_6,0.75,-1,3,,,,,,,,,,,165,8,3.2.2021,164.9756661
358,"['low', 4]",4,white,135,right,up,low,white_low_135_up,black_low_45_up,2,right,0.1906528,1,2,36,1,FALSE,14,1,1,1,TRUE,FALSE,low_4,0.75,-1,3,,,,,,,,,,,165,8,3.2.2021,164.9756661
359,"['low', 2]",2,black,135,left,down,low,black_low_135_down,white_low_45_down,2,right,0.2309571,0,2,34,1,FALSE,16,1,1,1,TRUE,FALSE,low_2,0.75,-1,3,,,,,,,,,,,165,8,3.2.2021,164.9756661
360,"['high', 3]",3,white,135,right,up,high,white_high_135_up,black_high_45_up,5,right,0.6999423,1,5,36,1,FALSE,12,1,1,1,TRUE,FALSE,high_3,0.75,-1,3,,,,,,,,,,,165,8,3.2.2021,164.9756661
361,"['high', 6]",6,white,45,left,down,high,white_high_45_down,black_high_135_down,3,left,1.026992,1,3,41,1,FALSE,12,1,1,1,TRUE,FALSE,high_6,0.75,-1,3,,,,,,,,,,,165,8,3.2.2021,164.9756661
362,"['low', 1]",1,white,45,left,up,low,white_low_45_up,black_low_135_up,16,left,0.2001745,1,16,40,0,TRUE,19,1,1,1,TRUE,FALSE,low_1,0.75,-1,3,,,,,,,,,,,165,8,3.2.2021,164.9756661
363,"['low', 1]",1,white,45,left,up,low,white_low_45_up,black_low_135_up,15,left,0.131676,1,15,41,1,TRUE,20,1,1,1,TRUE,FALSE,low_1,0.75,-1,3,,,,,,,,,,,165,8,3.2.2021,164.9756661
364,"['low', 4]",4,black,135,left,up,low,black_low_135_up,white_low_45_up,1,left,0.5310614,1,1,37,1,FALSE,14,1,1,1,TRUE,FALSE,low_4,0.75,-1,3,,,,,,,,,,,165,8,3.2.2021,164.9756661
365,"['high', 3]",3,black,45,right,down,high,black_high_45_down,white_high_135_down,4,left,1.9405954,0,4,37,1,FALSE,12,1,1,1,TRUE,FALSE,high_3,0.75,-1,3,,,,,,,,,,,165,8,3.2.2021,164.9756661
366,"['high', 2]",2,black,135,left,down,high,black_high_135_down,white_high_45_down,22,right,0.7812102,0,22,34,1,FALSE,19,1,1,1,TRUE,FALSE,high_2,0.75,-1,3,,,,,,,,,,,165,8,3.2.2021,164.9756661
367,"['high', 1]",1,black,135,left,down,high,black_high_135_down,white_high_45_down,23,left,0.376168,1,23,33,0,TRUE,12,1,1,1,TRUE,FALSE,high_1,0.75,-1,3,,,,,,,,,,,165,8,3.2.2021,164.9756661
368,"['high', 1]",1,white,45,left,down,high,white_high_45_down,black_high_135_down,22,left,0.2580558,1,22,34,1,TRUE,13,1,1,1,TRUE,FALSE,high_1,0.75,-1,3,,,,,,,,,,,165,8,3.2.2021,164.9756661
369,"['low', 4]",4,black,45,right,down,low,black_low_45_down,white_low_135_down,1,right,1.052314,1,1,38,1,FALSE,14,1,1,1,TRUE,FALSE,low_4,0.75,-1,3,,,,,,,,,,,165,8,3.2.2021,164.9756661
370,"['low', 2]",2,white,135,right,up,low,white_low_135_up,black_low_45_up,5,right,0.1110322,1,5,35,0,TRUE,17,1,1,1,TRUE,FALSE,low_2,0.75,-1,3,,,,,,,,,,,165,8,3.2.2021,164.9756661
371,"['high', 6]",6,white,135,right,up,high,white_high_135_up,black_high_45_up,2,right,0.4754328,1,2,42,1,FALSE,12,1,1,1,TRUE,FALSE,high_6,0.75,-1,3,,,,,,,,,,,165,8,3.2.2021,164.9756661
372,"['high', 4]",4,black,135,left,up,high,black_high_135_up,white_high_45_up,10,left,0.2465625,1,10,34,0,TRUE,17,1,1,1,TRUE,FALSE,high_4,0.75,-1,3,,,,,,,,,,,165,8,3.2.2021,164.9756661
373,"['low', 1]",1,black,45,right,down,low,black_low_45_down,white_low_135_down,14,right,0.454119,1,14,42,1,FALSE,20,1,1,1,TRUE,FALSE,low_1,0.75,-1,3,,,,,,,,,,,165,8,3.2.2021,164.9756661
374,"['high', 1]",1,black,135,left,up,high,black_high_135_up,white_high_45_up,21,left,0.3788776,1,21,35,1,FALSE,13,1,1,1,TRUE,FALSE,high_1,0.75,-1,3,,,,,,,,,,,165,8,3.2.2021,164.9756661
375,"['low', 2]",2,white,135,right,down,low,white_low_135_down,black_low_45_down,4,right,0.2576348,1,4,36,1,TRUE,18,1,1,1,TRUE,FALSE,low_2,0.75,-1,3,,,,,,,,,,,165,8,3.2.2021,164.9756661
376,"['low', 2]",2,white,135,right,down,low,white_low_135_down,black_low_45_down,3,right,0.1972893,1,3,37,1,FALSE,18,1,1,1,TRUE,FALSE,low_2,0.75,-1,3,,,,,,,,,,,165,8,3.2.2021,164.9756661
377,"['low', 3]",3,white,135,right,up,low,white_low_135_up,black_low_45_up,3,right,0.4018302,1,3,36,1,FALSE,12,1,1,1,TRUE,FALSE,low_3,0.75,-1,3,,,,,,,,,,,165,8,3.2.2021,164.9756661
378,"['high', 3]",3,white,135,right,up,high,white_high_135_up,black_high_45_up,7,right,0.2621563,1,7,38,0,TRUE,13,1,1,1,TRUE,FALSE,high_3,0.75,-1,3,,,,,,,,,,,165,8,3.2.2021,164.9756661
379,"['low', 4]",4,black,45,right,down,low,black_low_45_down,white_low_135_down,1,left,0.9088759,0,1,39,1,FALSE,14,1,1,1,TRUE,FALSE,low_4,0.75,-1,3,,,,,,,,,,,165,8,3.2.2021,164.9756661
380,"['high', 6]",6,black,135,left,up,high,black_high_135_up,white_high_45_up,1,right,0.4266473,0,1,43,1,FALSE,12,1,1,1,TRUE,FALSE,high_6,0.75,-1,3,,,,,,,,,,,165,8,3.2.2021,164.9756661
381,"['high', 2]",2,white,45,left,down,high,white_high_45_down,black_high_135_down,25,left,0.1985921,1,25,35,0,TRUE,20,1,1,1,TRUE,FALSE,high_2,0.75,-1,3,,,,,,,,,,,165,8,3.2.2021,164.9756661
382,"['high', 6]",6,black,135,left,up,high,black_high_135_up,white_high_45_up,4,left,0.2089938,1,4,44,0,TRUE,13,1,1,1,TRUE,FALSE,high_6,0.75,-1,3,,,,,,,,,,,165,8,3.2.2021,164.9756661
383,"['high', 6]",6,white,135,right,up,high,white_high_135_up,black_high_45_up,3,right,0.2366604,1,3,45,1,TRUE,14,1,1,1,TRUE,FALSE,high_6,0.75,-1,3,,,,,,,,,,,165,8,3.2.2021,164.9756661
384,"['low', 1]",1,black,45,right,down,low,black_low_45_down,white_low_135_down,13,right,0.5438693,1,13,43,1,FALSE,20,1,1,1,TRUE,FALSE,low_1,0.75,-1,3,,,,,,,,,,,165,8,3.2.2021,164.9756661
385,"['high', 1]",1,white,45,left,up,high,white_high_45_up,black_high_135_up,20,left,0.1917755,1,20,36,1,FALSE,13,1,1,1,TRUE,FALSE,high_1,0.75,-1,3,,,,,,,,,,,165,8,3.2.2021,164.9756661
386,"['high', 1]",1,white,45,left,up,high,white_high_45_up,black_high_135_up,19,left,0.055724,1,19,37,1,FALSE,13,1,1,1,TRUE,FALSE,high_1,0.75,-1,3,,,,,,,,,,,165,8,3.2.2021,164.9756661
387,"['low', 2]",2,white,135,right,up,low,white_low_135_up,black_low_45_up,2,right,0.2894815,1,2,38,1,FALSE,18,1,1,1,TRUE,FALSE,low_2,0.75,-1,3,,,,,,,,,,,165,8,3.2.2021,164.9756661
388,"['high', 1]",1,white,135,right,up,high,white_high_135_up,black_high_45_up,18,right,0.1728902,1,18,38,1,FALSE,13,1,1,1,TRUE,FALSE,high_1,0.75,-1,3,,,,,,,,,,,165,8,3.2.2021,164.9756661
389,"['low', 6]",6,white,135,right,down,low,white_low_135_down,black_low_45_down,1,left,0.6675254,0,1,34,1,FALSE,6,1,1,1,TRUE,FALSE,low_6,0.75,-1,3,,,,,,,,,,,165,8,3.2.2021,164.9756661
390,"['high', 6]",6,white,45,left,down,high,white_high_45_down,black_high_135_down,2,right,0.2319196,0,2,46,1,FALSE,14,1,1,1,TRUE,FALSE,high_6,0.75,-1,3,,,,,,,,,,,165,8,3.2.2021,164.9756661
391,"['low', 4]",4,black,135,left,up,low,black_low_135_up,white_low_45_up,4,left,0.1345722,1,4,40,0,TRUE,15,1,1,1,TRUE,FALSE,low_4,0.75,-1,3,,,,,,,,,,,165,8,3.2.2021,164.9756661
392,"['high', 1]",1,white,45,left,up,high,white_high_45_up,black_high_135_up,17,left,0.0063696,1,17,39,1,FALSE,13,1,1,1,TRUE,FALSE,high_1,0.75,-1,3,,,,,,,,,,,165,8,3.2.2021,164.9756661
393,"['low', 3]",3,white,45,left,up,low,white_low_45_up,black_low_135_up,2,left,0.4953868,1,2,37,1,FALSE,12,1,1,1,TRUE,FALSE,low_3,0.75,-1,3,,,,,,,,,,,165,8,3.2.2021,164.9756661
394,"['high', 4]",4,white,45,left,up,high,white_high_45_up,black_high_135_up,9,left,0.3050042,1,9,35,1,TRUE,18,1,1,1,TRUE,FALSE,high_4,0.75,-1,3,,,,,,,,,,,165,8,3.2.2021,164.9756661
395,"['high', 4]",4,white,45,left,down,high,white_high_45_down,black_high_135_down,8,left,0.4466072,1,8,36,1,FALSE,18,1,1,1,TRUE,FALSE,high_4,0.75,-1,3,,,,,,,,,,,165,8,3.2.2021,164.9756661
396,"['low', 3]",3,white,45,left,up,low,white_low_45_up,black_low_135_up,1,left,0.4028649,1,1,38,1,FALSE,12,1,1,1,TRUE,FALSE,low_3,0.75,-1,3,,,,,,,,,,,165,8,3.2.2021,164.9756661
397,"['low', 4]",4,black,135,left,down,low,black_low_135_down,white_low_45_down,3,left,0.174174,1,3,41,1,TRUE,16,1,1,1,TRUE,FALSE,low_4,0.75,-1,3,,,,,,,,,,,165,8,3.2.2021,164.9756661
398,"['low', 3]",3,white,45,left,down,low,white_low_45_down,black_low_135_down,1,right,1.11086,0,1,39,1,FALSE,12,1,1,1,TRUE,FALSE,low_3,0.75,-1,3,,,,,,,,,,,165,8,3.2.2021,164.9756661
399,"['high', 3]",3,black,135,left,down,high,black_high_135_down,white_high_45_down,6,left,0.2994131,1,6,39,1,TRUE,14,1,1,1,TRUE,FALSE,high_3,0.75,-1,3,,,,,,,,,,,165,8,3.2.2021,164.9756661
400,"['low', 3]",3,white,45,left,down,low,white_low_45_down,black_low_135_down,4,left,0.1087562,1,4,40,0,TRUE,13,1,1,1,TRUE,FALSE,low_3,0.75,-1,3,,,,,,,,,,,165,8,3.2.2021,164.9756661
401,"['high', 4]",4,white,135,right,down,high,white_high_135_down,black_high_45_down,7,right,0.0820039,1,7,37,1,FALSE,18,1,1,1,TRUE,FALSE,high_4,0.75,-1,3,,,,,,,,,,,165,8,3.2.2021,164.9756661
402,"['high', 2]",2,white,45,left,up,high,white_high_45_up,black_high_135_up,24,left,0.0482103,1,24,36,1,TRUE,21,1,1,1,TRUE,FALSE,high_2,0.75,-1,3,,,,,,,,,,,165,8,3.2.2021,164.9756661
403,"['low', 4]",4,white,45,left,down,low,white_low_45_down,black_low_135_down,2,left,0.2156424,1,2,42,1,FALSE,16,1,1,1,TRUE,FALSE,low_4,0.75,-1,3,,,,,,,,,,,165,8,3.2.2021,164.9756661
404,"['low', 3]",3,white,45,left,down,low,white_low_45_down,black_low_135_down,3,left,0.2090846,1,3,41,1,TRUE,14,1,1,1,TRUE,FALSE,low_3,0.75,-1,3,,,,,,,,,,,165,8,3.2.2021,164.9756661
405,"['low', 1]",1,black,135,left,up,low,black_low_135_up,white_low_45_up,12,right,0.1901821,0,12,44,1,FALSE,20,1,1,1,TRUE,FALSE,low_1,0.75,-1,3,,,,,,,,,,,165,8,3.2.2021,164.9756661
406,"['low', 3]",3,black,135,left,up,low,black_low_135_up,white_low_45_up,2,left,0.3236512,1,2,42,1,FALSE,14,1,1,1,TRUE,FALSE,low_3,0.75,-1,3,,,,,,,,,,,165,8,3.2.2021,164.9756661
407,"['low', 3]",3,white,45,left,down,low,white_low_45_down,black_low_135_down,1,left,0.2847341,1,1,43,1,FALSE,14,1,1,1,TRUE,FALSE,low_3,0.75,-1,3,,,,,,,,,,,165,8,3.2.2021,164.9756661
408,"['high', 4]",4,white,45,left,down,high,white_high_45_down,black_high_135_down,6,left,0.1120629,1,6,38,1,FALSE,18,1,1,1,TRUE,FALSE,high_4,0.75,-1,3,,,,,,,,,,,165,8,3.2.2021,164.9756661
409,"['low', 4]",4,black,45,right,up,low,black_low_45_up,white_low_135_up,1,right,0.1604045,1,1,43,1,FALSE,16,1,1,1,TRUE,FALSE,low_4,0.75,-1,3,,,,,,,,,,,165,8,3.2.2021,164.9756661
410,"['low', 1]",1,white,135,right,down,low,white_low_135_down,black_low_45_down,15,right,0.1129225,1,15,45,0,TRUE,21,1,1,1,TRUE,FALSE,low_1,0.75,-1,3,,,,,,,,,,,165,8,3.2.2021,164.9756661
411,"['low', 6]",6,black,45,right,down,low,black_low_45_down,white_low_135_down,4,right,0.3276406,1,4,35,0,TRUE,7,1,1,1,TRUE,FALSE,low_6,0.75,-1,3,,,,,,,,,,,165,8,3.2.2021,164.9756661
412,"['low', 6]",6,white,135,right,up,low,white_low_135_up,black_low_45_up,3,right,0.0106969,1,3,36,1,TRUE,8,1,1,1,TRUE,FALSE,low_6,0.75,-1,3,,,,,,,,,,,165,8,3.2.2021,164.9756661
413,"['low', 4]",4,black,45,right,down,low,black_low_45_down,white_low_135_down,1,right,0.179739,1,1,44,1,FALSE,16,1,1,1,TRUE,FALSE,low_4,0.75,-1,3,,,,,,,,,,,165,8,3.2.2021,164.9756661
414,"['high', 3]",3,white,135,right,down,high,white_high_135_down,black_high_45_down,5,right,0.1420163,1,5,40,1,FALSE,14,1,1,1,TRUE,FALSE,high_3,0.75,-1,3,,,,,,,,,,,165,8,3.2.2021,164.9756661
415,"['low', 1]",1,white,45,left,up,low,white_low_45_up,black_low_135_up,14,left,0.1281486,1,14,46,1,TRUE,22,1,1,1,TRUE,FALSE,low_1,0.75,-1,3,,,,,,,,,,,165,8,3.2.2021,164.9756661
416,"['high', 1]",1,black,45,right,down,high,black_high_45_down,white_high_135_down,16,left,0.8567794,0,16,40,1,FALSE,13,1,1,1,TRUE,FALSE,high_1,0.75,-1,3,,,,,,,,,,,165,8,3.2.2021,164.9756661
417,"['high', 2]",2,white,135,right,down,high,white_high_135_down,black_high_45_down,23,right,0.349058,1,23,37,1,FALSE,21,1,1,1,TRUE,FALSE,high_2,0.75,-1,3,,,,,,,,,,,165,8,3.2.2021,164.9756661
418,"['low', 4]",4,black,135,left,up,low,black_low_135_up,white_low_45_up,1,right,0.3730225,0,1,45,1,FALSE,16,1,1,1,TRUE,FALSE,low_4,0.75,-1,3,,,,,,,,,,,165,8,3.2.2021,164.9756661
419,"['low', 1]",1,white,45,left,up,low,white_low_45_up,black_low_135_up,13,left,0.1253278,1,13,47,1,FALSE,22,1,1,1,TRUE,FALSE,low_1,0.75,-1,3,,,,,,,,,,,165,8,3.2.2021,164.9756661
420,"['high', 3]",3,white,135,right,up,high,white_high_135_up,black_high_45_up,4,right,0.2269816,1,4,41,1,FALSE,14,1,1,1,TRUE,FALSE,high_3,0.75,-1,3,,,,,,,,,,,165,8,3.2.2021,164.9756661
421,"['low', 6]",6,black,135,left,up,low,black_low_135_up,white_low_45_up,2,left,0.2145266,1,2,37,1,FALSE,8,1,1,1,TRUE,FALSE,low_6,0.75,-1,3,,,,,,,,,,,165,8,3.2.2021,164.9756661
422,"['low', 6]",6,white,45,left,up,low,white_low_45_up,black_low_135_up,1,left,0.2199802,1,1,38,1,FALSE,8,1,1,1,TRUE,FALSE,low_6,0.75,-1,3,,,,,,,,,,,165,8,3.2.2021,164.9756661
423,"['low', 6]",6,black,135,left,up,low,black_low_135_up,white_low_45_up,1,left,0.2241312,1,1,39,1,FALSE,8,1,1,1,TRUE,FALSE,low_6,0.75,-1,3,,,,,,,,,,,165,8,3.2.2021,164.9756661
424,"['low', 2]",2,white,135,right,up,low,white_low_135_up,black_low_45_up,1,right,0.1746476,1,1,39,1,FALSE,18,1,1,1,TRUE,FALSE,low_2,0.75,-1,3,,,,,,,,,,,165,8,3.2.2021,164.9756661
425,"['high', 1]",1,white,135,right,down,high,white_high_135_down,black_high_45_down,19,right,0.4038878,1,19,41,0,TRUE,14,1,1,1,TRUE,FALSE,high_1,0.75,-1,3,,,,,,,,,,,165,8,3.2.2021,164.9756661
426,"['high', 3]",3,white,135,right,up,high,white_high_135_up,black_high_45_up,3,right,0.5267386,1,3,42,1,FALSE,14,1,1,1,TRUE,FALSE,high_3,0.75,-1,3,,,,,,,,,,,165,8,3.2.2021,164.9756661
427,"['high', 6]",6,black,135,left,up,high,black_high_135_up,white_high_45_up,5,left,0.4325297,1,5,47,0,TRUE,15,1,1,1,TRUE,FALSE,high_6,0.75,-1,3,,,,,,,,,,,165,8,3.2.2021,164.9756661
428,"['low', 1]",1,white,135,right,down,low,white_low_135_down,black_low_45_down,12,right,0.1331348,1,12,48,1,FALSE,22,1,1,1,TRUE,FALSE,low_1,0.75,-1,3,,,,,,,,,,,165,8,3.2.2021,164.9756661
429,"['high', 3]",3,white,135,right,up,high,white_high_135_up,black_high_45_up,2,left,0.2292619,0,2,43,1,FALSE,14,1,1,1,TRUE,FALSE,high_3,0.75,-1,3,,,,,,,,,,,165,8,3.2.2021,164.9756661
430,"['high', 3]",3,white,45,left,down,high,white_high_45_down,black_high_135_down,5,right,0.137754,0,5,44,0,TRUE,15,1,1,1,TRUE,FALSE,high_3,0.75,-1,3,,,,,,,,,,,165,8,3.2.2021,164.9756661
431,"['high', 3]",3,white,135,right,down,high,white_high_135_down,black_high_45_down,8,right,0.1100664,1,8,45,0,FALSE,15,1,1,1,TRUE,FALSE,high_3,0.75,-1,3,,,,,,,,,,,165,8,3.2.2021,164.9756661
432,"['low', 6]",6,black,45,right,down,low,black_low_45_down,white_low_135_down,1,right,0.1855327,1,1,40,1,FALSE,8,1,1,1,TRUE,FALSE,low_6,0.75,-1,3,,,,,,,,,,,165,8,3.2.2021,164.9756661
433,"['low', 2]",2,white,45,left,up,low,white_low_45_up,black_low_135_up,1,left,0.2728332,1,1,40,1,FALSE,18,1,1,1,TRUE,FALSE,low_2,0.75,-1,3,,,,,,,,,,,165,8,3.2.2021,164.9756661
434,"['low', 3]",3,black,135,left,up,low,black_low_135_up,white_low_45_up,1,left,0.3237667,1,1,44,1,FALSE,14,1,1,1,TRUE,FALSE,low_3,0.75,-1,3,,,,,,,,,,,165,8,3.2.2021,164.9756661
435,"['high', 4]",4,black,135,left,down,high,black_high_135_down,white_high_45_down,5,right,0.1314867,0,5,39,1,FALSE,18,1,1,1,TRUE,FALSE,high_4,0.75,-1,3,,,,,,,,,,,165,8,3.2.2021,164.9756661
436,"['high', 3]",3,black,45,right,down,high,black_high_45_down,white_high_135_down,7,right,0.1237896,1,7,46,1,TRUE,16,1,1,1,TRUE,FALSE,high_3,0.75,-1,3,,,,,,,,,,,165,8,3.2.2021,164.9756661
437,"['high', 1]",1,black,45,right,up,high,black_high_45_up,white_high_135_up,18,left,0.2642602,0,18,42,1,TRUE,15,1,1,1,TRUE,FALSE,high_1,0.75,-1,3,,,,,,,,,,,165,8,3.2.2021,164.9756661
438,"['low', 2]",2,white,45,left,up,low,white_low_45_up,black_low_135_up,1,left,0.4012317,1,1,41,1,FALSE,18,1,1,1,TRUE,FALSE,low_2,0.75,-1,3,,,,,,,,,,,165,8,3.2.2021,164.9756661
439,"['low', 2]",2,black,45,right,up,low,black_low_45_up,white_low_135_up,1,right,0.6275474,1,1,42,1,FALSE,18,1,1,1,TRUE,FALSE,low_2,0.75,-1,3,,,,,,,,,,,165,8,3.2.2021,164.9756661
440,"['high', 2]",2,black,45,right,up,high,black_high_45_up,white_high_135_up,22,right,0.5498611,1,22,38,1,FALSE,21,1,1,1,TRUE,FALSE,high_2,0.75,-1,3,,,,,,,,,,,165,8,3.2.2021,164.9756661
441,"['high', 6]",6,black,135,left,down,high,black_high_135_down,white_high_45_down,4,right,0.6390775,0,4,48,1,TRUE,16,1,1,1,TRUE,FALSE,high_6,0.75,-1,3,,,,,,,,,,,165,8,3.2.2021,164.9756661
442,"['low', 6]",6,white,135,right,up,low,white_low_135_up,black_low_45_up,1,left,0.4002756,0,1,41,1,FALSE,8,1,1,1,TRUE,FALSE,low_6,0.75,-1,3,,,,,,,,,,,165,8,3.2.2021,164.9756661
443,"['high', 1]",1,white,135,right,down,high,white_high_135_down,black_high_45_down,21,right,0.2622749,1,21,43,0,TRUE,16,1,1,1,TRUE,FALSE,high_1,0.75,-1,3,,,,,,,,,,,165,8,3.2.2021,164.9756661
444,"['high', 1]",1,white,135,right,up,high,white_high_135_up,black_high_45_up,20,right,0.3976738,1,20,44,1,TRUE,17,1,1,1,TRUE,FALSE,high_1,0.75,-1,3,,,,,,,,,,,165,8,3.2.2021,164.9756661
445,"['low', 2]",2,black,135,left,up,low,black_low_135_up,white_low_45_up,1,left,0.3440956,1,1,43,1,FALSE,18,1,1,1,TRUE,FALSE,low_2,0.75,-1,3,,,,,,,,,,,165,8,3.2.2021,164.9756661
446,"['low', 1]",1,black,135,left,up,low,black_low_135_up,white_low_45_up,11,right,0.2354785,0,11,49,1,FALSE,22,1,1,1,TRUE,FALSE,low_1,0.75,-1,3,,,,,,,,,,,165,8,3.2.2021,164.9756661
447,"['high', 3]",3,white,135,right,up,high,white_high_135_up,black_high_45_up,6,right,0.3537505,1,6,47,1,FALSE,16,1,1,1,TRUE,FALSE,high_3,0.75,-1,3,,,,,,,,,,,165,8,3.2.2021,164.9756661
448,"['low', 2]",2,white,135,right,down,low,white_low_135_down,black_low_45_down,1,left,0.4047483,0,1,44,1,FALSE,18,1,1,1,TRUE,FALSE,low_2,0.75,-1,3,,,,,,,,,,,165,8,3.2.2021,164.9756661
449,"['high', 3]",3,black,135,left,up,high,black_high_135_up,white_high_45_up,5,left,0.213952,1,5,48,1,FALSE,16,1,1,1,TRUE,FALSE,high_3,0.75,-1,3,,,,,,,,,,,165,8,3.2.2021,164.9756661
450,"['high', 1]",1,white,45,left,up,high,white_high_45_up,black_high_135_up,19,left,0.1493259,1,19,45,1,FALSE,17,1,1,1,TRUE,FALSE,high_1,0.75,-1,3,,,,,,,,,,,165,8,3.2.2021,164.9756661
451,"['high', 3]",3,white,135,right,down,high,white_high_135_down,black_high_45_down,4,right,0.179903,1,4,49,1,FALSE,16,1,1,1,TRUE,FALSE,high_3,0.75,-1,3,,,,,,,,,,,165,8,3.2.2021,164.9756661
452,"['high', 1]",1,white,45,left,up,high,white_high_45_up,black_high_135_up,18,left,0.1445979,1,18,46,1,FALSE,17,1,1,1,TRUE,FALSE,high_1,0.75,-1,3,,,,,,,,,,,165,8,3.2.2021,164.9756661
453,"['high', 1]",1,black,135,left,down,high,black_high_135_down,white_high_45_down,17,right,0.2444094,0,17,47,1,FALSE,17,1,1,1,TRUE,FALSE,high_1,0.75,-1,3,,,,,,,,,,,165,8,3.2.2021,164.9756661
454,"['high', 1]",1,black,45,right,down,high,black_high_45_down,white_high_135_down,20,left,0.9793344,0,20,48,0,TRUE,18,1,1,1,TRUE,FALSE,high_1,0.75,-1,3,,,,,,,,,,,165,8,3.2.2021,164.9756661
455,"['high', 2]",2,black,45,right,down,high,black_high_45_down,white_high_135_down,21,right,0.5215631,1,21,39,1,FALSE,21,1,1,1,TRUE,FALSE,high_2,0.75,-1,3,,,,,,,,,,,165,8,3.2.2021,164.9756661
456,"['low', 4]",4,white,45,left,up,low,white_low_45_up,black_low_135_up,4,left,0.1670981,1,4,46,0,TRUE,17,1,1,1,TRUE,FALSE,low_4,0.75,-1,3,,,,,,,,,,,165,8,3.2.2021,164.9756661
457,"['high', 3]",3,black,45,right,up,high,black_high_45_up,white_high_135_up,3,left,0.3298037,0,3,50,1,FALSE,16,1,1,1,TRUE,FALSE,high_3,0.75,-1,3,,,,,,,,,,,165,8,3.2.2021,164.9756661
458,"['high', 2]",2,white,135,right,up,high,white_high_135_up,black_high_45_up,20,left,0.0869235,0,20,40,1,FALSE,21,1,1,1,TRUE,FALSE,high_2,0.75,-1,3,,,,,,,,,,,165,8,3.2.2021,164.9756661
459,"['low', 2]",2,black,135,left,down,low,black_low_135_down,white_low_45_down,4,left,0.597234,1,4,45,0,TRUE,19,1,1,1,TRUE,FALSE,low_2,0.75,-1,3,,,,,,,,,,,165,8,3.2.2021,164.9756661
460,"['low', 2]",2,white,135,right,up,low,white_low_135_up,black_low_45_up,3,right,0.5104574,1,3,46,1,TRUE,20,1,1,1,TRUE,FALSE,low_2,0.75,-1,3,,,,,,,,,,,165,8,3.2.2021,164.9756661
461,"['high', 3]",3,white,45,left,down,high,white_high_45_down,black_high_135_down,6,left,0.6166612,1,6,51,0,TRUE,17,1,1,1,TRUE,FALSE,high_3,0.75,-1,3,,,,,,,,,,,165,8,3.2.2021,164.9756661
462,"['low', 4]",4,black,135,left,down,low,black_low_135_down,white_low_45_down,3,right,1.1453975,0,3,47,1,TRUE,18,1,1,1,TRUE,FALSE,low_4,0.75,-1,3,,,,,,,,,,,165,8,3.2.2021,164.9756661
463,"['high', 6]",6,black,45,right,up,high,black_high_45_up,white_high_135_up,7,right,0.3838652,1,7,49,0,TRUE,17,1,1,1,TRUE,FALSE,high_6,0.75,-1,3,,,,,,,,,,,165,8,3.2.2021,164.9756661
464,"['low', 3]",3,white,45,left,up,low,white_low_45_up,black_low_135_up,1,left,0.2815546,1,1,45,1,FALSE,14,1,1,1,TRUE,FALSE,low_3,0.75,-1,3,,,,,,,,,,,165,8,3.2.2021,164.9756661
465,"['high', 4]",4,black,45,right,down,high,black_high_45_down,white_high_135_down,8,right,0.4111705,1,8,40,0,TRUE,19,1,1,1,TRUE,FALSE,high_4,0.75,-1,3,,,,,,,,,,,165,8,3.2.2021,164.9756661
466,"['high', 6]",6,white,45,left,up,high,white_high_45_up,black_high_135_up,6,left,0.3691073,1,6,50,1,TRUE,18,1,1,1,TRUE,FALSE,high_6,0.75,-1,3,,,,,,,,,,,165,8,3.2.2021,164.9756661
467,"['high', 4]",4,white,135,right,down,high,white_high_135_down,black_high_45_down,7,right,0.1938844,1,7,41,1,TRUE,20,1,1,1,TRUE,FALSE,high_4,0.75,-1,3,,,,,,,,,,,165,8,3.2.2021,164.9756661
468,"['high', 4]",4,black,45,right,down,high,black_high_45_down,white_high_135_down,6,right,0.1413864,1,6,42,1,FALSE,20,1,1,1,TRUE,FALSE,high_4,0.75,-1,3,,,,,,,,,,,165,8,3.2.2021,164.9756661
469,"['low', 1]",1,white,45,left,up,low,white_low_45_up,black_low_135_up,14,left,0.1713475,1,14,50,0,TRUE,23,1,1,1,TRUE,FALSE,low_1,0.75,-1,3,,,,,,,,,,,165,8,3.2.2021,164.9756661
470,"['low', 6]",6,black,135,left,up,low,black_low_135_up,white_low_45_up,4,left,0.0832638,1,4,42,0,TRUE,9,1,1,1,TRUE,FALSE,low_6,0.75,-1,3,,,,,,,,,,,165,8,3.2.2021,164.9756661
471,"['low', 3]",3,black,45,right,down,low,black_low_45_down,white_low_135_down,1,right,0.5492224,1,1,46,1,FALSE,14,1,1,1,TRUE,FALSE,low_3,0.75,-1,3,,,,,,,,,,,165,8,3.2.2021,164.9756661
472,"['low', 4]",4,black,45,right,up,low,black_low_45_up,white_low_135_up,6,right,0.0875115,1,6,48,0,TRUE,19,1,1,1,TRUE,FALSE,low_4,0.75,-1,3,,,,,,,,,,,165,8,3.2.2021,164.9756661
473,"['high', 3]",3,white,45,left,down,high,white_high_45_down,black_high_135_down,5,left,0.124713,1,5,52,1,TRUE,18,1,1,1,TRUE,FALSE,high_3,0.75,-1,3,,,,,,,,,,,165,8,3.2.2021,164.9756661
474,"['low', 1]",1,black,135,left,down,low,black_low_135_down,white_low_45_down,13,left,0.4474654,1,13,51,1,TRUE,24,1,1,1,TRUE,FALSE,low_1,0.75,-1,3,,,,,,,,,,,165,8,3.2.2021,164.9756661
475,"['low', 6]",6,black,45,right,down,low,black_low_45_down,white_low_135_down,3,right,0.6668401,1,3,43,1,TRUE,10,1,1,1,TRUE,FALSE,low_6,0.75,-1,3,,,,,,,,,,,165,8,3.2.2021,164.9756661
476,"['high', 1]",1,black,135,left,down,high,black_high_135_down,white_high_45_down,23,left,0.7903562,1,23,49,0,FALSE,18,1,1,1,TRUE,FALSE,high_1,0.75,-1,3,,,,,,,,,,,165,8,3.2.2021,164.9756661
477,"['high', 6]",6,black,45,right,up,high,black_high_45_up,white_high_135_up,5,right,0.1564658,1,5,51,1,FALSE,18,1,1,1,TRUE,FALSE,high_6,0.75,-1,3,,,,,,,,,,,165,8,3.2.2021,164.9756661
478,"['high', 6]",6,black,45,right,down,high,black_high_45_down,white_high_135_down,4,right,0.0782196,1,4,52,1,FALSE,18,1,1,1,TRUE,FALSE,high_6,0.75,-1,3,,,,,,,,,,,165,8,3.2.2021,164.9756661
479,"['high', 3]",3,black,45,right,down,high,black_high_45_down,white_high_135_down,4,right,0.2173308,1,4,53,1,FALSE,18,1,1,1,TRUE,FALSE,high_3,0.75,-1,3,,,,,,,,,,,165,8,3.2.2021,164.9756661
480,"['high', 6]",6,black,135,left,down,high,black_high_135_down,white_high_45_down,3,right,0.3870997,0,3,53,1,FALSE,18,1,1,1,TRUE,FALSE,high_6,0.75,-1,3,,,,,,,,,,,165,8,3.2.2021,164.9756661
481,"['low', 1]",1,black,135,left,up,low,black_low_135_up,white_low_45_up,12,right,1.2377833,0,12,52,1,FALSE,24,1,1,1,TRUE,FALSE,low_1,0.75,-1,3,,,,,,,,,,,165,8,3.2.2021,164.9756661
482,"['high', 1]",1,black,45,right,down,high,black_high_45_down,white_high_135_down,22,right,0.911872,1,22,50,1,TRUE,19,1,1,1,TRUE,FALSE,high_1,0.75,-1,3,,,,,,,,,,,165,8,3.2.2021,164.9756661
483,"['low', 3]",3,black,135,left,up,low,black_low_135_up,white_low_45_up,1,left,0.4388121,1,1,47,1,FALSE,14,1,1,1,TRUE,FALSE,low_3,0.75,-1,3,,,,,,,,,,,165,8,3.2.2021,164.9756661
484,"['high', 4]",4,black,45,right,up,high,black_high_45_up,white_high_135_up,5,left,0.2464256,0,5,43,1,FALSE,20,1,1,1,TRUE,FALSE,high_4,0.75,-1,3,,,,,,,,,,,165,8,3.2.2021,164.9756661
485,"['low', 4]",4,black,45,right,down,low,black_low_45_down,white_low_135_down,5,right,0.056344,1,5,49,1,TRUE,20,1,1,1,TRUE,FALSE,low_4,0.75,-1,3,,,,,,,,,,,165,8,3.2.2021,164.9756661
486,"['low', 1]",1,white,135,right,up,low,white_low_135_up,black_low_45_up,15,right,0.1845256,1,15,53,0,TRUE,25,1,1,1,TRUE,FALSE,low_1,0.75,-1,3,,,,,,,,,,,165,8,3.2.2021,164.9756661
487,"['low', 6]",6,black,135,left,down,low,black_low_135_down,white_low_45_down,2,left,0.1672216,1,2,44,1,FALSE,10,1,1,1,TRUE,FALSE,low_6,0.75,-1,3,,,,,,,,,,,165,8,3.2.2021,164.9756661
488,"['low', 3]",3,black,135,left,down,low,black_low_135_down,white_low_45_down,1,right,0.3162504,0,1,48,1,FALSE,14,1,1,1,TRUE,FALSE,low_3,0.75,-1,3,,,,,,,,,,,165,8,3.2.2021,164.9756661
489,"['low', 2]",2,white,135,right,down,low,white_low_135_down,black_low_45_down,2,right,0.4308274,1,2,47,1,FALSE,20,1,1,1,TRUE,FALSE,low_2,0.75,-1,3,,,,,,,,,,,165,8,3.2.2021,164.9756661
490,"['low', 6]",6,black,45,right,up,low,black_low_45_up,white_low_135_up,1,right,0.5694748,1,1,45,1,FALSE,10,1,1,1,TRUE,FALSE,low_6,0.75,-1,3,,,,,,,,,,,165,8,3.2.2021,164.9756661
491,"['low', 3]",3,white,45,left,down,low,white_low_45_down,black_low_135_down,4,left,0.1952144,1,4,49,0,TRUE,15,1,1,1,TRUE,FALSE,low_3,0.75,-1,3,,,,,,,,,,,165,8,3.2.2021,164.9756661
492,"['low', 2]",2,black,45,right,down,low,black_low_45_down,white_low_135_down,1,right,0.4321339,1,1,48,1,FALSE,20,1,1,1,TRUE,FALSE,low_2,0.75,-1,3,,,,,,,,,,,165,8,3.2.2021,164.9756661
493,"['low', 1]",1,white,135,right,down,low,white_low_135_down,black_low_45_down,14,right,0.1913507,1,14,54,1,TRUE,26,1,1,1,TRUE,FALSE,low_1,0.75,-1,3,,,,,,,,,,,165,8,3.2.2021,164.9756661
494,"['low', 2]",2,black,45,right,up,low,black_low_45_up,white_low_135_up,1,left,0.4447511,0,1,49,1,FALSE,20,1,1,1,TRUE,FALSE,low_2,0.75,-1,3,,,,,,,,,,,165,8,3.2.2021,164.9756661
495,"['high', 3]",3,white,45,left,up,high,white_high_45_up,black_high_135_up,3,right,0.5397747,0,3,54,1,FALSE,18,1,1,1,TRUE,FALSE,high_3,0.75,-1,3,,,,,,,,,,,165,8,3.2.2021,164.9756661
496,"['low', 6]",6,white,45,left,down,low,white_low_45_down,black_low_135_down,1,left,0.8640879,1,1,46,1,FALSE,10,1,1,1,TRUE,FALSE,low_6,0.75,-1,3,,,,,,,,,,,165,8,3.2.2021,164.9756661
497,"['high', 2]",2,white,45,left,up,high,white_high_45_up,black_high_135_up,23,left,0.2264565,1,23,41,0,TRUE,22,1,1,1,TRUE,FALSE,high_2,0.75,-1,3,,,,,,,,,,,165,8,3.2.2021,164.9756661
498,"['high', 3]",3,black,45,right,down,high,black_high_45_down,white_high_135_down,6,right,0.2895195,1,6,55,0,TRUE,19,1,1,1,TRUE,FALSE,high_3,0.75,-1,3,,,,,,,,,,,165,8,3.2.2021,164.9756661
499,"['high', 6]",6,white,45,left,down,high,white_high_45_down,black_high_135_down,6,left,0.0188753,1,6,54,0,TRUE,19,1,1,1,TRUE,FALSE,high_6,0.75,-1,3,,,,,,,,,,,165,8,3.2.2021,164.9756661
500,"['low', 4]",4,white,45,left,down,low,white_low_45_down,black_low_135_down,4,left,0.2201575,1,4,50,1,FALSE,20,1,1,1,TRUE,FALSE,low_4,0.75,-1,3,,,,,,,,,,,165,8,3.2.2021,164.9756661
501,"['low', 2]",2,black,45,right,down,low,black_low_45_down,white_low_135_down,4,left,0.7824807,0,4,50,0,TRUE,21,1,1,1,TRUE,FALSE,low_2,0.75,-1,3,,,,,,,,,,,165,8,3.2.2021,164.9756661
502,"['high', 3]",3,black,135,left,up,high,black_high_135_up,white_high_45_up,5,left,0.2690802,1,5,56,1,TRUE,20,1,1,1,TRUE,FALSE,high_3,0.75,-1,3,,,,,,,,,,,165,8,3.2.2021,164.9756661
503,"['high', 2]",2,black,135,left,down,high,black_high_135_down,white_high_45_down,22,left,1.0554053,1,22,42,1,TRUE,23,1,1,1,TRUE,FALSE,high_2,0.75,-1,3,,,,,,,,,,,165,8,3.2.2021,164.9756661
504,"['high', 4]",4,black,45,right,up,high,black_high_45_up,white_high_135_up,8,right,0.194015,1,8,44,0,TRUE,21,1,1,1,TRUE,FALSE,high_4,0.75,-1,3,,,,,,,,,,,165,8,3.2.2021,164.9756661
505,"['high', 6]",6,black,45,right,down,high,black_high_45_down,white_high_135_down,5,right,0.2133164,1,5,55,1,TRUE,20,1,1,1,TRUE,FALSE,high_6,0.75,-1,3,,,,,,,,,,,165,8,3.2.2021,164.9756661
506,"['high', 3]",3,white,135,right,down,high,white_high_135_down,black_high_45_down,4,right,0.2434043,1,4,57,1,FALSE,20,1,1,1,TRUE,FALSE,high_3,0.75,-1,3,,,,,,,,,,,165,8,3.2.2021,164.9756661
507,"['high', 2]",2,black,45,right,down,high,black_high_45_down,white_high_135_down,21,right,0.368149,1,21,43,1,FALSE,23,1,1,1,TRUE,FALSE,high_2,0.75,-1,3,,,,,,,,,,,165,8,3.2.2021,164.9756661
508,"['low', 3]",3,white,45,left,up,low,white_low_45_up,black_low_135_up,3,left,0.3122067,1,3,50,1,TRUE,16,1,1,1,TRUE,FALSE,low_3,0.75,-1,3,,,,,,,,,,,165,8,3.2.2021,164.9756661
509,"['high', 2]",2,black,135,left,down,high,black_high_135_down,white_high_45_down,20,left,0.9394596,1,20,44,1,FALSE,23,1,1,1,TRUE,FALSE,high_2,0.75,-1,3,,,,,,,,,,,165,8,3.2.2021,164.9756661
510,"['high', 4]",4,black,45,right,down,high,black_high_45_down,white_high_135_down,7,right,0.1168277,1,7,45,1,TRUE,22,1,1,1,TRUE,FALSE,high_4,0.75,-1,3,,,,,,,,,,,165,8,3.2.2021,164.9756661
511,"['high', 3]",3,white,135,right,down,high,white_high_135_down,black_high_45_down,3,right,0.2552285,1,3,58,1,FALSE,20,1,1,1,TRUE,FALSE,high_3,0.75,-1,3,,,,,,,,,,,165,8,3.2.2021,164.9756661
512,"['high', 4]",4,black,135,left,down,high,black_high_135_down,white_high_45_down,6,left,0.2374812,1,6,46,1,FALSE,22,1,1,1,TRUE,FALSE,high_4,0.75,-1,3,,,,,,,,,,,165,8,3.2.2021,164.9756661
513,"['low', 2]",2,white,135,right,up,low,white_low_135_up,black_low_45_up,7,right,0.1759467,1,7,51,0,FALSE,21,1,1,1,TRUE,FALSE,low_2,0.75,-1,3,,,,,,,,,,,165,8,3.2.2021,164.9756661
514,"['high', 6]",6,black,45,right,up,high,black_high_45_up,white_high_135_up,4,right,0.0803574,1,4,56,1,FALSE,20,1,1,1,TRUE,FALSE,high_6,0.75,-1,3,,,,,,,,,,,165,8,3.2.2021,164.9756661
515,"['low', 6]",6,black,45,right,up,low,black_low_45_up,white_low_135_up,1,right,0.273713,1,1,47,1,FALSE,10,1,1,1,TRUE,FALSE,low_6,0.75,-1,3,,,,,,,,,,,165,8,3.2.2021,164.9756661
516,"['low', 6]",6,white,45,left,up,low,white_low_45_up,black_low_135_up,1,left,0.2581702,1,1,48,1,FALSE,10,1,1,1,TRUE,FALSE,low_6,0.75,-1,3,,,,,,,,,,,165,8,3.2.2021,164.9756661
517,"['high', 1]",1,white,135,right,up,high,white_high_135_up,black_high_45_up,21,right,0.2335168,1,21,51,1,FALSE,19,1,1,1,TRUE,FALSE,high_1,0.75,-1,3,,,,,,,,,,,165,8,3.2.2021,164.9756661
518,"['high', 2]",2,white,135,right,up,high,white_high_135_up,black_high_45_up,19,right,0.3381276,1,19,45,1,FALSE,23,1,1,1,TRUE,FALSE,high_2,0.75,-1,3,,,,,,,,,,,165,8,3.2.2021,164.9756661
519,"['low', 1]",1,white,45,left,down,low,white_low_45_down,black_low_135_down,13,left,0.2835458,1,13,55,1,FALSE,26,1,1,1,TRUE,FALSE,low_1,0.75,-1,3,,,,,,,,,,,165,8,3.2.2021,164.9756661
520,"['low', 2]",2,black,135,left,down,low,black_low_135_down,white_low_45_down,6,left,0.3490239,1,6,52,1,TRUE,22,1,1,1,TRUE,FALSE,low_2,0.75,-1,3,,,,,,,,,,,165,8,3.2.2021,164.9756661
521,"['high', 1]",1,black,45,right,up,high,black_high_45_up,white_high_135_up,20,right,0.9742937,1,20,52,1,FALSE,19,1,1,1,TRUE,FALSE,high_1,0.75,-1,3,,,,,,,,,,,165,8,3.2.2021,164.9756661
522,"['low', 2]",2,black,45,right,down,low,black_low_45_down,white_low_135_down,5,left,0.2659033,0,5,53,1,FALSE,22,1,1,1,TRUE,FALSE,low_2,0.75,-1,3,,,,,,,,,,,165,8,3.2.2021,164.9756661
523,"['low', 1]",1,white,45,left,up,low,white_low_45_up,black_low_135_up,12,left,0.1965901,1,12,56,1,FALSE,26,1,1,1,TRUE,FALSE,low_1,0.75,-1,3,,,,,,,,,,,165,8,3.2.2021,164.9756661
524,"['low', 4]",4,white,45,left,down,low,white_low_45_down,black_low_135_down,3,left,0.2849017,1,3,51,1,FALSE,20,1,1,1,TRUE,FALSE,low_4,0.75,-1,3,,,,,,,,,,,165,8,3.2.2021,164.9756661
525,"['high', 2]",2,white,45,left,down,high,white_high_45_down,black_high_135_down,18,left,0.1522075,1,18,46,1,FALSE,23,1,1,1,TRUE,FALSE,high_2,0.75,-1,3,,,,,,,,,,,165,8,3.2.2021,164.9756661
526,"['low', 6]",6,black,135,left,down,low,black_low_135_down,white_low_45_down,1,left,0.2324575,1,1,49,1,FALSE,10,1,1,1,TRUE,FALSE,low_6,0.75,-1,3,,,,,,,,,,,165,8,3.2.2021,164.9756661
527,"['low', 2]",2,white,135,right,up,low,white_low_135_up,black_low_45_up,8,right,0.1868303,1,8,54,0,TRUE,23,1,1,1,TRUE,FALSE,low_2,0.75,-1,3,,,,,,,,,,,165,8,3.2.2021,164.9756661
528,"['high', 1]",1,white,45,left,down,high,white_high_45_down,black_high_135_down,19,left,0.0971523,1,19,53,1,FALSE,19,1,1,1,TRUE,FALSE,high_1,0.75,-1,3,,,,,,,,,,,165,8,3.2.2021,164.9756661
529,"['high', 2]",2,white,45,left,up,high,white_high_45_up,black_high_135_up,17,left,0.0694183,1,17,47,1,FALSE,23,1,1,1,TRUE,FALSE,high_2,0.75,-1,3,,,,,,,,,,,165,8,3.2.2021,164.9756661
530,"['low', 1]",1,white,45,left,down,low,white_low_45_down,black_low_135_down,11,left,0.1269242,1,11,57,1,FALSE,26,1,1,1,TRUE,FALSE,low_1,0.75,-1,3,,,,,,,,,,,165,8,3.2.2021,164.9756661
531,"['low', 6]",6,white,45,left,down,low,white_low_45_down,black_low_135_down,1,left,0.480319,1,1,50,1,FALSE,10,1,1,1,TRUE,FALSE,low_6,0.75,-1,3,,,,,,,,,,,165,8,3.2.2021,164.9756661
532,"['high', 1]",1,black,135,left,down,high,black_high_135_down,white_high_45_down,18,right,0.4516999,0,18,54,1,FALSE,19,1,1,1,TRUE,FALSE,high_1,0.75,-1,3,,,,,,,,,,,165,8,3.2.2021,164.9756661
533,"['high', 3]",3,white,135,right,down,high,white_high_135_down,black_high_45_down,2,left,0.6630142,0,2,59,1,FALSE,20,1,1,1,TRUE,FALSE,high_3,0.75,-1,3,,,,,,,,,,,165,8,3.2.2021,164.9756661
534,"['high', 4]",4,black,45,right,up,high,black_high_45_up,white_high_135_up,5,right,0.3067531,1,5,47,1,FALSE,22,1,1,1,TRUE,FALSE,high_4,0.75,-1,3,,,,,,,,,,,165,8,3.2.2021,164.9756661
