trial_number,trial_type,cycle_number,first_color,first_orientation,correct_response,visual_field,spatial_frequency,first_stim,second_stim,stimulus_frame_duration,answer,rt,accuracy,staircase_dv,staircase_trial_num,staircase_previous_correct,staircase_reversal,staircase_reversal_num,staircase_phase,staircase_step_size,staircase_powers_law,staircase_siam,staircase_over,staircase_name,staircase_conv_p,staircase_step_hit,staircase_step_miss,threshold_low1,threshold_low2,threshold_low3,threshold_low4,threshold_low6,threshold_high1,threshold_high2,threshold_high3,threshold_high4,threshold_high6,frame_rate,participant,psychopyVersion,frame_rate_detected
0,"['high', 4]",4,white,135,right,up,high,white_high_135_up,black_high_45_up,8,right,0.1867553,1,8,0,None,FALSE,0,0,1,1,TRUE,FALSE,high_4,0.75,-1,3,,,,,,,,,,,165,6,3.2.2021,164.9639636
1,"['low', 1]",1,white,45,left,down,low,white_low_45_down,black_low_135_down,8,left,0.2236892,1,8,0,None,FALSE,0,0,1,1,TRUE,FALSE,low_1,0.75,-1,3,,,,,,,,,,,165,6,3.2.2021,164.9639636
2,"['low', 6]",6,white,135,right,down,low,white_low_135_down,black_low_45_down,4,left,0.4443847,0,4,0,None,FALSE,0,0,1,1,TRUE,FALSE,low_6,0.75,-1,3,,,,,,,,,,,165,6,3.2.2021,164.9639636
3,"['high', 2]",2,white,45,left,down,high,white_high_45_down,black_high_135_down,8,right,0.2350162,0,8,0,None,FALSE,0,0,1,1,TRUE,FALSE,high_2,0.75,-1,3,,,,,,,,,,,165,6,3.2.2021,164.9639636
4,"['high', 3]",3,black,45,right,down,high,black_high_45_down,white_high_135_down,8,right,0.2167434,1,8,0,None,FALSE,0,0,1,1,TRUE,FALSE,high_3,0.75,-1,3,,,,,,,,,,,165,6,3.2.2021,164.9639636
5,"['low', 6]",6,black,45,right,up,low,black_low_45_up,white_low_135_up,7,left,1.0643814,0,7,1,0,FALSE,0,0,1,1,TRUE,FALSE,low_6,0.75,-1,3,,,,,,,,,,,165,6,3.2.2021,164.9639636
6,"['low', 6]",6,white,135,right,up,low,white_low_135_up,black_low_45_up,10,left,0.3275959,0,10,2,0,FALSE,0,0,1,1,TRUE,FALSE,low_6,0.75,-1,3,,,,,,,,,,,165,6,3.2.2021,164.9639636
7,"['low', 6]",6,white,135,right,up,low,white_low_135_up,black_low_45_up,13,right,0.222682,1,13,3,0,FALSE,0,0,1,1,TRUE,FALSE,low_6,0.75,-1,3,,,,,,,,,,,165,6,3.2.2021,164.9639636
8,"['low', 6]",6,black,45,right,down,low,black_low_45_down,white_low_135_down,12,right,0.2393784,1,12,4,1,TRUE,1,0,1,1,TRUE,FALSE,low_6,0.75,-1,3,,,,,,,,,,,165,6,3.2.2021,164.9639636
9,"['low', 6]",6,black,135,left,down,low,black_low_135_down,white_low_45_down,11,left,0.8840291,1,11,5,1,FALSE,1,0,1,1,TRUE,FALSE,low_6,0.75,-1,3,,,,,,,,,,,165,6,3.2.2021,164.9639636
10,"['low', 6]",6,black,45,right,down,low,black_low_45_down,white_low_135_down,10,left,0.3057245,0,10,6,1,FALSE,1,0,1,1,TRUE,FALSE,low_6,0.75,-1,3,,,,,,,,,,,165,6,3.2.2021,164.9639636
11,"['high', 6]",6,white,45,left,up,high,white_high_45_up,black_high_135_up,8,left,0.2618241,1,8,0,None,FALSE,0,0,1,1,TRUE,FALSE,high_6,0.75,-1,3,,,,,,,,,,,165,6,3.2.2021,164.9639636
12,"['low', 1]",1,white,135,right,down,low,white_low_135_down,black_low_45_down,7,right,0.334256,1,7,1,1,FALSE,0,0,1,1,TRUE,FALSE,low_1,0.75,-1,3,,,,,,,,,,,165,6,3.2.2021,164.9639636
13,"['high', 2]",2,white,45,left,up,high,white_high_45_up,black_high_135_up,11,left,0.2265405,1,11,1,0,FALSE,0,0,1,1,TRUE,FALSE,high_2,0.75,-1,3,,,,,,,,,,,165,6,3.2.2021,164.9639636
14,"['low', 4]",4,white,45,left,down,low,white_low_45_down,black_low_135_down,4,left,0.2286224,1,4,0,None,FALSE,0,0,1,1,TRUE,FALSE,low_4,0.75,-1,3,,,,,,,,,,,165,6,3.2.2021,164.9639636
15,"['low', 6]",6,black,135,left,up,low,black_low_135_up,white_low_45_up,13,left,0.2238333,1,13,7,0,TRUE,2,0,1,1,TRUE,FALSE,low_6,0.75,-1,3,,,,,,,,,,,165,6,3.2.2021,164.9639636
16,"['low', 2]",2,black,45,right,up,low,black_low_45_up,white_low_135_up,4,left,0.2460512,0,4,0,None,FALSE,0,0,1,1,TRUE,FALSE,low_2,0.75,-1,3,,,,,,,,,,,165,6,3.2.2021,164.9639636
17,"['high', 6]",6,black,135,left,up,high,black_high_135_up,white_high_45_up,7,left,0.7550452,1,7,1,1,FALSE,0,0,1,1,TRUE,FALSE,high_6,0.75,-1,3,,,,,,,,,,,165,6,3.2.2021,164.9639636
18,"['high', 2]",2,white,45,left,up,high,white_high_45_up,black_high_135_up,10,left,0.2308988,1,10,2,1,TRUE,1,0,1,1,TRUE,FALSE,high_2,0.75,-1,3,,,,,,,,,,,165,6,3.2.2021,164.9639636
19,"['low', 2]",2,white,135,right,down,low,white_low_135_down,black_low_45_down,7,left,0.3949635,0,7,1,0,FALSE,0,0,1,1,TRUE,FALSE,low_2,0.75,-1,3,,,,,,,,,,,165,6,3.2.2021,164.9639636
20,"['low', 4]",4,black,135,left,down,low,black_low_135_down,white_low_45_down,3,left,0.185614,1,3,1,1,FALSE,0,0,1,1,TRUE,FALSE,low_4,0.75,-1,3,,,,,,,,,,,165,6,3.2.2021,164.9639636
21,"['high', 4]",4,white,45,left,down,high,white_high_45_down,black_high_135_down,7,left,0.8519343,1,7,1,1,FALSE,0,0,1,1,TRUE,FALSE,high_4,0.75,-1,3,,,,,,,,,,,165,6,3.2.2021,164.9639636
22,"['low', 2]",2,white,45,left,up,low,white_low_45_up,black_low_135_up,10,left,0.2471769,1,10,2,0,FALSE,0,0,1,1,TRUE,FALSE,low_2,0.75,-1,3,,,,,,,,,,,165,6,3.2.2021,164.9639636
23,"['low', 4]",4,black,135,left,up,low,black_low_135_up,white_low_45_up,2,left,0.3132305,1,2,2,1,FALSE,0,0,1,1,TRUE,FALSE,low_4,0.75,-1,3,,,,,,,,,,,165,6,3.2.2021,164.9639636
24,"['high', 1]",1,black,45,right,up,high,black_high_45_up,white_high_135_up,12,left,0.2414632,0,12,0,None,FALSE,0,0,1,1,TRUE,FALSE,high_1,0.75,-1,3,,,,,,,,,,,165,6,3.2.2021,164.9639636
25,"['low', 4]",4,white,135,right,down,low,white_low_135_down,black_low_45_down,1,left,0.2306149,0,1,3,1,FALSE,0,0,1,1,TRUE,FALSE,low_4,0.75,-1,3,,,,,,,,,,,165,6,3.2.2021,164.9639636
26,"['low', 2]",2,black,135,left,up,low,black_low_135_up,white_low_45_up,9,left,0.8403669,1,9,3,1,TRUE,1,0,1,1,TRUE,FALSE,low_2,0.75,-1,3,,,,,,,,,,,165,6,3.2.2021,164.9639636
27,"['low', 3]",3,black,135,left,down,low,black_low_135_down,white_low_45_down,4,left,0.2501137,1,4,0,None,FALSE,0,0,1,1,TRUE,FALSE,low_3,0.75,-1,3,,,,,,,,,,,165,6,3.2.2021,164.9639636
28,"['low', 1]",1,white,45,left,down,low,white_low_45_down,black_low_135_down,6,left,0.1587931,1,6,2,1,FALSE,0,0,1,1,TRUE,FALSE,low_1,0.75,-1,3,,,,,,,,,,,165,6,3.2.2021,164.9639636
29,"['low', 1]",1,white,135,right,up,low,white_low_135_up,black_low_45_up,5,right,0.1727974,1,5,3,1,FALSE,0,0,1,1,TRUE,FALSE,low_1,0.75,-1,3,,,,,,,,,,,165,6,3.2.2021,164.9639636
30,"['high', 2]",2,black,45,right,up,high,black_high_45_up,white_high_135_up,9,left,0.2876395,0,9,3,1,FALSE,1,0,1,1,TRUE,FALSE,high_2,0.75,-1,3,,,,,,,,,,,165,6,3.2.2021,164.9639636
31,"['low', 6]",6,black,135,left,down,low,black_low_135_down,white_low_45_down,12,left,1.0333603,1,12,8,1,TRUE,3,0,1,1,TRUE,FALSE,low_6,0.75,-1,3,,,,,,,,,,,165,6,3.2.2021,164.9639636
32,"['high', 4]",4,black,135,left,up,high,black_high_135_up,white_high_45_up,6,left,0.2312092,1,6,2,1,FALSE,0,0,1,1,TRUE,FALSE,high_4,0.75,-1,3,,,,,,,,,,,165,6,3.2.2021,164.9639636
33,"['high', 2]",2,black,45,right,down,high,black_high_45_down,white_high_135_down,12,left,0.2166499,0,12,4,0,TRUE,2,0,1,1,TRUE,FALSE,high_2,0.75,-1,3,,,,,,,,,,,165,6,3.2.2021,164.9639636
34,"['high', 6]",6,white,45,left,up,high,white_high_45_up,black_high_135_up,6,left,0.8025894,1,6,2,1,FALSE,0,0,1,1,TRUE,FALSE,high_6,0.75,-1,3,,,,,,,,,,,165,6,3.2.2021,164.9639636
35,"['high', 6]",6,black,135,left,down,high,black_high_135_down,white_high_45_down,5,left,0.1775906,1,5,3,1,FALSE,0,0,1,1,TRUE,FALSE,high_6,0.75,-1,3,,,,,,,,,,,165,6,3.2.2021,164.9639636
36,"['low', 1]",1,white,135,right,up,low,white_low_135_up,black_low_45_up,4,right,0.2082708,1,4,4,1,FALSE,0,0,1,1,TRUE,FALSE,low_1,0.75,-1,3,,,,,,,,,,,165,6,3.2.2021,164.9639636
37,"['high', 2]",2,white,45,left,up,high,white_high_45_up,black_high_135_up,15,left,0.3102364,1,15,5,0,FALSE,2,0,1,1,TRUE,FALSE,high_2,0.75,-1,3,,,,,,,,,,,165,6,3.2.2021,164.9639636
38,"['high', 3]",3,white,45,left,down,high,white_high_45_down,black_high_135_down,7,left,0.2128641,1,7,1,1,FALSE,0,0,1,1,TRUE,FALSE,high_3,0.75,-1,3,,,,,,,,,,,165,6,3.2.2021,164.9639636
39,"['high', 1]",1,black,45,right,up,high,black_high_45_up,white_high_135_up,15,right,0.5798699,1,15,1,0,FALSE,0,0,1,1,TRUE,FALSE,high_1,0.75,-1,3,,,,,,,,,,,165,6,3.2.2021,164.9639636
40,"['high', 1]",1,black,135,left,down,high,black_high_135_down,white_high_45_down,14,right,0.1996469,0,14,2,1,TRUE,1,0,1,1,TRUE,FALSE,high_1,0.75,-1,3,,,,,,,,,,,165,6,3.2.2021,164.9639636
41,"['low', 6]",6,white,135,right,down,low,white_low_135_down,black_low_45_down,11,right,1.163886,1,11,9,1,FALSE,3,0,1,1,TRUE,FALSE,low_6,0.75,-1,3,,,,,,,,,,,165,6,3.2.2021,164.9639636
42,"['high', 3]",3,black,45,right,down,high,black_high_45_down,white_high_135_down,6,left,0.2818037,0,6,2,1,FALSE,0,0,1,1,TRUE,FALSE,high_3,0.75,-1,3,,,,,,,,,,,165,6,3.2.2021,164.9639636
43,"['low', 3]",3,black,45,right,down,low,black_low_45_down,white_low_135_down,3,left,0.2291513,0,3,1,1,FALSE,0,0,1,1,TRUE,FALSE,low_3,0.75,-1,3,,,,,,,,,,,165,6,3.2.2021,164.9639636
44,"['low', 4]",4,black,135,left,up,low,black_low_135_up,white_low_45_up,4,left,0.0725823,1,4,4,0,TRUE,1,0,1,1,TRUE,FALSE,low_4,0.75,-1,3,,,,,,,,,,,165,6,3.2.2021,164.9639636
45,"['low', 2]",2,white,45,left,up,low,white_low_45_up,black_low_135_up,8,right,0.1848521,0,8,4,1,FALSE,1,0,1,1,TRUE,FALSE,low_2,0.75,-1,3,,,,,,,,,,,165,6,3.2.2021,164.9639636
46,"['high', 3]",3,black,45,right,up,high,black_high_45_up,white_high_135_up,9,right,0.2134223,1,9,3,0,TRUE,1,0,1,1,TRUE,FALSE,high_3,0.75,-1,3,,,,,,,,,,,165,6,3.2.2021,164.9639636
47,"['low', 3]",3,black,45,right,down,low,black_low_45_down,white_low_135_down,6,left,0.231426,0,6,2,0,TRUE,1,0,1,1,TRUE,FALSE,low_3,0.75,-1,3,,,,,,,,,,,165,6,3.2.2021,164.9639636
48,"['low', 6]",6,white,135,right,up,low,white_low_135_up,black_low_45_up,10,left,0.7225222,0,10,10,1,FALSE,3,0,1,1,TRUE,FALSE,low_6,0.75,-1,3,,,,,,,,,,,165,6,3.2.2021,164.9639636
49,"['high', 1]",1,black,135,left,down,high,black_high_135_down,white_high_45_down,17,right,0.2708295,0,17,3,0,TRUE,2,0,1,1,TRUE,FALSE,high_1,0.75,-1,3,,,,,,,,,,,165,6,3.2.2021,164.9639636
50,"['high', 4]",4,white,45,left,down,high,white_high_45_down,black_high_135_down,5,left,0.9242799,1,5,3,1,FALSE,0,0,1,1,TRUE,FALSE,high_4,0.75,-1,3,,,,,,,,,,,165,6,3.2.2021,164.9639636
51,"['high', 2]",2,black,135,left,up,high,black_high_135_up,white_high_45_up,14,right,0.0682795,0,14,6,1,TRUE,3,0,1,1,TRUE,FALSE,high_2,0.75,-1,3,,,,,,,,,,,165,6,3.2.2021,164.9639636
52,"['high', 6]",6,white,135,right,down,high,white_high_135_down,black_high_45_down,4,left,0.7162567,0,4,4,1,FALSE,0,0,1,1,TRUE,FALSE,high_6,0.75,-1,3,,,,,,,,,,,165,6,3.2.2021,164.9639636
53,"['high', 6]",6,black,135,left,down,high,black_high_135_down,white_high_45_down,7,left,0.566411,1,7,5,0,TRUE,1,0,1,1,TRUE,FALSE,high_6,0.75,-1,3,,,,,,,,,,,165,6,3.2.2021,164.9639636
54,"['low', 3]",3,white,45,left,up,low,white_low_45_up,black_low_135_up,9,left,0.2325185,1,9,3,0,FALSE,1,0,1,1,TRUE,FALSE,low_3,0.75,-1,3,,,,,,,,,,,165,6,3.2.2021,164.9639636
55,"['high', 4]",4,black,135,left,up,high,black_high_135_up,white_high_45_up,4,left,0.2570979,1,4,4,1,FALSE,0,0,1,1,TRUE,FALSE,high_4,0.75,-1,3,,,,,,,,,,,165,6,3.2.2021,164.9639636
56,"['high', 6]",6,black,135,left,up,high,black_high_135_up,white_high_45_up,6,left,2.3482204,1,6,6,1,TRUE,2,0,1,1,TRUE,FALSE,high_6,0.75,-1,3,,,,,,,,,,,165,6,3.2.2021,164.9639636
57,"['high', 2]",2,white,135,right,down,high,white_high_135_down,black_high_45_down,17,right,0.313422,1,17,7,0,TRUE,4,0,1,1,TRUE,FALSE,high_2,0.75,-1,3,,,,,,,,,,,165,6,3.2.2021,164.9639636
58,"['high', 4]",4,black,45,right,down,high,black_high_45_down,white_high_135_down,3,left,0.2739185,0,3,5,1,FALSE,0,0,1,1,TRUE,FALSE,high_4,0.75,-1,3,,,,,,,,,,,165,6,3.2.2021,164.9639636
59,"['low', 2]",2,black,135,left,down,low,black_low_135_down,white_low_45_down,11,left,0.2744108,1,11,5,0,TRUE,2,0,1,1,TRUE,FALSE,low_2,0.75,-1,3,,,,,,,,,,,165,6,3.2.2021,164.9639636
60,"['high', 2]",2,black,45,right,down,high,black_high_45_down,white_high_135_down,16,right,1.4887037,1,16,8,1,TRUE,5,1,1,1,TRUE,FALSE,high_2,0.75,-1,3,,,,,,,,,,,165,6,3.2.2021,164.9639636
61,"['high', 6]",6,black,45,right,down,high,black_high_45_down,white_high_135_down,5,left,0.2231711,0,5,7,1,FALSE,2,0,1,1,TRUE,FALSE,high_6,0.75,-1,3,,,,,,,,,,,165,6,3.2.2021,164.9639636
62,"['high', 6]",6,black,135,left,down,high,black_high_135_down,white_high_45_down,8,left,0.1006321,1,8,8,0,TRUE,3,0,1,1,TRUE,FALSE,high_6,0.75,-1,3,,,,,,,,,,,165,6,3.2.2021,164.9639636
63,"['low', 3]",3,black,135,left,up,low,black_low_135_up,white_low_45_up,8,right,0.1605058,0,8,4,1,TRUE,2,0,1,1,TRUE,FALSE,low_3,0.75,-1,3,,,,,,,,,,,165,6,3.2.2021,164.9639636
64,"['high', 1]",1,white,45,left,up,high,white_high_45_up,black_high_135_up,20,left,0.3915648,1,20,4,0,FALSE,2,0,1,1,TRUE,FALSE,high_1,0.75,-1,3,,,,,,,,,,,165,6,3.2.2021,164.9639636
65,"['high', 4]",4,white,45,left,up,high,white_high_45_up,black_high_135_up,6,right,0.2175816,0,6,6,0,TRUE,1,0,1,1,TRUE,FALSE,high_4,0.75,-1,3,,,,,,,,,,,165,6,3.2.2021,164.9639636
66,"['high', 4]",4,white,135,right,down,high,white_high_135_down,black_high_45_down,9,left,0.1222532,0,9,7,0,FALSE,1,0,1,1,TRUE,FALSE,high_4,0.75,-1,3,,,,,,,,,,,165,6,3.2.2021,164.9639636
67,"['low', 1]",1,black,135,left,down,low,black_low_135_down,white_low_45_down,3,right,0.2431175,0,3,5,1,FALSE,0,0,1,1,TRUE,FALSE,low_1,0.75,-1,3,,,,,,,,,,,165,6,3.2.2021,164.9639636
68,"['high', 2]",2,white,135,right,down,high,white_high_135_down,black_high_45_down,15,right,0.4756379,1,15,9,1,FALSE,5,1,1,1,TRUE,FALSE,high_2,0.75,-1,3,,,,,,,,,,,165,6,3.2.2021,164.9639636
69,"['low', 6]",6,black,45,right,down,low,black_low_45_down,white_low_135_down,13,right,1.1702307,1,13,11,0,TRUE,4,0,1,1,TRUE,FALSE,low_6,0.75,-1,3,,,,,,,,,,,165,6,3.2.2021,164.9639636
70,"['low', 3]",3,black,45,right,up,low,black_low_45_up,white_low_135_up,11,left,0.3302567,0,11,5,0,TRUE,3,0,1,1,TRUE,FALSE,low_3,0.75,-1,3,,,,,,,,,,,165,6,3.2.2021,164.9639636
71,"['low', 1]",1,black,135,left,down,low,black_low_135_down,white_low_45_down,6,right,0.2775616,0,6,6,0,TRUE,1,0,1,1,TRUE,FALSE,low_1,0.75,-1,3,,,,,,,,,,,165,6,3.2.2021,164.9639636
72,"['low', 2]",2,white,135,right,down,low,white_low_135_down,black_low_45_down,10,right,0.2058349,1,10,6,1,TRUE,3,0,1,1,TRUE,FALSE,low_2,0.75,-1,3,,,,,,,,,,,165,6,3.2.2021,164.9639636
73,"['high', 1]",1,white,135,right,down,high,white_high_135_down,black_high_45_down,19,right,0.3015251,1,19,5,1,TRUE,3,0,1,1,TRUE,FALSE,high_1,0.75,-1,3,,,,,,,,,,,165,6,3.2.2021,164.9639636
74,"['high', 1]",1,black,135,left,up,high,black_high_135_up,white_high_45_up,18,right,0.2036475,0,18,6,1,FALSE,3,0,1,1,TRUE,FALSE,high_1,0.75,-1,3,,,,,,,,,,,165,6,3.2.2021,164.9639636
75,"['high', 1]",1,white,135,right,up,high,white_high_135_up,black_high_45_up,21,right,0.1480331,1,21,7,0,TRUE,4,0,1,1,TRUE,FALSE,high_1,0.75,-1,3,,,,,,,,,,,165,6,3.2.2021,164.9639636
76,"['low', 2]",2,black,135,left,up,low,black_low_135_up,white_low_45_up,9,right,0.234764,0,9,7,1,FALSE,3,0,1,1,TRUE,FALSE,low_2,0.75,-1,3,,,,,,,,,,,165,6,3.2.2021,164.9639636
77,"['low', 1]",1,black,45,right,up,low,black_low_45_up,white_low_135_up,9,right,0.1362561,1,9,7,0,FALSE,1,0,1,1,TRUE,FALSE,low_1,0.75,-1,3,,,,,,,,,,,165,6,3.2.2021,164.9639636
78,"['high', 1]",1,black,45,right,up,high,black_high_45_up,white_high_135_up,20,left,0.2365629,0,20,8,1,TRUE,5,1,1,1,TRUE,FALSE,high_1,0.75,-1,3,,,,,,,,,,,165,6,3.2.2021,164.9639636
79,"['low', 2]",2,white,45,left,down,low,white_low_45_down,black_low_135_down,12,left,0.1823865,1,12,8,0,TRUE,4,0,1,1,TRUE,FALSE,low_2,0.75,-1,3,,,,,,,,,,,165,6,3.2.2021,164.9639636
80,"['high', 3]",3,black,45,right,down,high,black_high_45_down,white_high_135_down,8,left,0.2366913,0,8,4,1,TRUE,2,0,1,1,TRUE,FALSE,high_3,0.75,-1,3,,,,,,,,,,,165,6,3.2.2021,164.9639636
81,"['high', 3]",3,white,135,right,up,high,white_high_135_up,black_high_45_up,11,right,0.0858081,1,11,5,0,TRUE,3,0,1,1,TRUE,FALSE,high_3,0.75,-1,3,,,,,,,,,,,165,6,3.2.2021,164.9639636
82,"['high', 2]",2,black,45,right,up,high,black_high_45_up,white_high_135_up,14,right,1.1705794,1,14,10,1,FALSE,5,1,1,1,TRUE,FALSE,high_2,0.75,-1,3,,,,,,,,,,,165,6,3.2.2021,164.9639636
83,"['high', 1]",1,white,45,left,up,high,white_high_45_up,black_high_135_up,23,left,0.275709,1,23,9,0,TRUE,6,1,1,1,TRUE,FALSE,high_1,0.75,-1,3,,,,,,,,,,,165,6,3.2.2021,164.9639636
84,"['low', 6]",6,black,45,right,down,low,black_low_45_down,white_low_135_down,12,right,0.4698941,1,12,12,1,TRUE,5,1,1,1,TRUE,FALSE,low_6,0.75,-1,3,,,,,,,,,,,165,6,3.2.2021,164.9639636
85,"['low', 4]",4,white,135,right,down,low,white_low_135_down,black_low_45_down,3,right,0.1967133,1,3,5,1,TRUE,2,0,1,1,TRUE,FALSE,low_4,0.75,-1,3,,,,,,,,,,,165,6,3.2.2021,164.9639636
86,"['low', 6]",6,black,45,right,down,low,black_low_45_down,white_low_135_down,11,right,0.1951678,1,11,13,1,FALSE,5,1,1,1,TRUE,FALSE,low_6,0.75,-1,3,,,,,,,,,,,165,6,3.2.2021,164.9639636
87,"['high', 2]",2,white,45,left,down,high,white_high_45_down,black_high_135_down,13,left,0.2580644,1,13,11,1,FALSE,5,1,1,1,TRUE,FALSE,high_2,0.75,-1,3,,,,,,,,,,,165,6,3.2.2021,164.9639636
88,"['low', 1]",1,black,135,left,down,low,black_low_135_down,white_low_45_down,8,right,0.1891469,0,8,8,1,TRUE,2,0,1,1,TRUE,FALSE,low_1,0.75,-1,3,,,,,,,,,,,165,6,3.2.2021,164.9639636
89,"['low', 1]",1,white,45,left,down,low,white_low_45_down,black_low_135_down,11,left,0.2148491,1,11,9,0,TRUE,3,0,1,1,TRUE,FALSE,low_1,0.75,-1,3,,,,,,,,,,,165,6,3.2.2021,164.9639636
90,"['low', 4]",4,white,45,left,down,low,white_low_45_down,black_low_135_down,2,left,0.6795416,1,2,6,1,FALSE,2,0,1,1,TRUE,FALSE,low_4,0.75,-1,3,,,,,,,,,,,165,6,3.2.2021,164.9639636
91,"['high', 3]",3,black,135,left,down,high,black_high_135_down,white_high_45_down,10,left,0.0168086,1,10,6,1,TRUE,4,0,1,1,TRUE,FALSE,high_3,0.75,-1,3,,,,,,,,,,,165,6,3.2.2021,164.9639636
92,"['low', 4]",4,black,135,left,down,low,black_low_135_down,white_low_45_down,1,left,0.4591481,1,1,7,1,FALSE,2,0,1,1,TRUE,FALSE,low_4,0.75,-1,3,,,,,,,,,,,165,6,3.2.2021,164.9639636
93,"['high', 1]",1,black,135,left,down,high,black_high_135_down,white_high_45_down,22,right,0.244872,0,22,10,1,TRUE,7,1,1,1,TRUE,FALSE,high_1,0.75,-1,3,,,,,,,,,,,165,6,3.2.2021,164.9639636
94,"['low', 1]",1,white,45,left,up,low,white_low_45_up,black_low_135_up,10,left,0.2405295,1,10,10,1,TRUE,4,0,1,1,TRUE,FALSE,low_1,0.75,-1,3,,,,,,,,,,,165,6,3.2.2021,164.9639636
95,"['high', 4]",4,black,45,right,up,high,black_high_45_up,white_high_135_up,12,right,2.6162822,1,12,8,0,FALSE,1,0,1,1,TRUE,FALSE,high_4,0.75,-1,3,,,,,,,,,,,165,6,3.2.2021,164.9639636
96,"['low', 2]",2,black,135,left,up,low,black_low_135_up,white_low_45_up,11,right,0.1981585,0,11,9,1,TRUE,5,1,1,1,TRUE,FALSE,low_2,0.75,-1,3,,,,,,,,,,,165,6,3.2.2021,164.9639636
97,"['high', 1]",1,white,45,left,down,high,white_high_45_down,black_high_135_down,25,left,0.2765703,1,25,11,0,TRUE,8,1,1,1,TRUE,FALSE,high_1,0.75,-1,3,,,,,,,,,,,165,6,3.2.2021,164.9639636
98,"['high', 6]",6,black,45,right,up,high,black_high_45_up,white_high_135_up,7,left,0.9930424,0,7,9,1,TRUE,4,0,1,1,TRUE,FALSE,high_6,0.75,-1,3,,,,,,,,,,,165,6,3.2.2021,164.9639636
99,"['low', 2]",2,white,135,right,up,low,white_low_135_up,black_low_45_up,14,right,0.2125062,1,14,10,0,TRUE,6,1,1,1,TRUE,FALSE,low_2,0.75,-1,3,,,,,,,,,,,165,6,3.2.2021,164.9639636
100,"['high', 4]",4,white,45,left,down,high,white_high_45_down,black_high_135_down,11,right,0.0960541,0,11,9,1,TRUE,2,0,1,1,TRUE,FALSE,high_4,0.75,-1,3,,,,,,,,,,,165,6,3.2.2021,164.9639636
101,"['low', 6]",6,white,45,left,up,low,white_low_45_up,black_low_135_up,10,right,0.369802,0,10,14,1,FALSE,5,1,1,1,TRUE,FALSE,low_6,0.75,-1,3,,,,,,,,,,,165,6,3.2.2021,164.9639636
102,"['low', 3]",3,white,45,left,up,low,white_low_45_up,black_low_135_up,14,left,0.1929064,1,14,6,0,FALSE,3,0,1,1,TRUE,FALSE,low_3,0.75,-1,3,,,,,,,,,,,165,6,3.2.2021,164.9639636
103,"['low', 4]",4,black,45,right,down,low,black_low_45_down,white_low_135_down,1,left,0.9369514,0,1,8,1,FALSE,2,0,1,1,TRUE,FALSE,low_4,0.75,-1,3,,,,,,,,,,,165,6,3.2.2021,164.9639636
104,"['high', 1]",1,white,45,left,up,high,white_high_45_up,black_high_135_up,24,left,0.2353505,1,24,12,1,TRUE,9,1,1,1,TRUE,FALSE,high_1,0.75,-1,3,,,,,,,,,,,165,6,3.2.2021,164.9639636
105,"['high', 6]",6,white,45,left,down,high,white_high_45_down,black_high_135_down,10,left,0.0581183,1,10,10,0,TRUE,5,1,1,1,TRUE,FALSE,high_6,0.75,-1,3,,,,,,,,,,,165,6,3.2.2021,164.9639636
106,"['low', 1]",1,white,135,right,down,low,white_low_135_down,black_low_45_down,9,right,0.2208778,1,9,11,1,FALSE,4,0,1,1,TRUE,FALSE,low_1,0.75,-1,3,,,,,,,,,,,165,6,3.2.2021,164.9639636
107,"['low', 2]",2,white,45,left,down,low,white_low_45_down,black_low_135_down,13,left,0.1997453,1,13,11,1,TRUE,7,1,1,1,TRUE,FALSE,low_2,0.75,-1,3,,,,,,,,,,,165,6,3.2.2021,164.9639636
108,"['high', 3]",3,black,135,left,down,high,black_high_135_down,white_high_45_down,9,left,0.218211,1,9,7,1,FALSE,4,0,1,1,TRUE,FALSE,high_3,0.75,-1,3,,,,,,,,,,,165,6,3.2.2021,164.9639636
109,"['high', 2]",2,black,135,left,down,high,black_high_135_down,white_high_45_down,12,right,0.2127314,0,12,12,1,FALSE,5,1,1,1,TRUE,FALSE,high_2,0.75,-1,3,,,,,,,,,,,165,6,3.2.2021,164.9639636
110,"['high', 1]",1,white,45,left,down,high,white_high_45_down,black_high_135_down,23,left,0.2110219,1,23,13,1,FALSE,9,1,1,1,TRUE,FALSE,high_1,0.75,-1,3,,,,,,,,,,,165,6,3.2.2021,164.9639636
111,"['high', 3]",3,black,135,left,down,high,black_high_135_down,white_high_45_down,8,right,0.1660504,0,8,8,1,FALSE,4,0,1,1,TRUE,FALSE,high_3,0.75,-1,3,,,,,,,,,,,165,6,3.2.2021,164.9639636
112,"['low', 6]",6,black,135,left,up,low,black_low_135_up,white_low_45_up,13,left,0.4574151,1,13,15,0,TRUE,6,1,1,1,TRUE,FALSE,low_6,0.75,-1,3,,,,,,,,,,,165,6,3.2.2021,164.9639636
113,"['high', 1]",1,white,135,right,down,high,white_high_135_down,black_high_45_down,22,right,0.2185425,1,22,14,1,FALSE,9,1,1,1,TRUE,FALSE,high_1,0.75,-1,3,,,,,,,,,,,165,6,3.2.2021,164.9639636
114,"['high', 2]",2,white,45,left,down,high,white_high_45_down,black_high_135_down,15,left,0.2149817,1,15,13,0,TRUE,6,1,1,1,TRUE,FALSE,high_2,0.75,-1,3,,,,,,,,,,,165,6,3.2.2021,164.9639636
115,"['low', 1]",1,black,45,right,up,low,black_low_45_up,white_low_135_up,8,left,0.1321879,0,8,12,1,FALSE,4,0,1,1,TRUE,FALSE,low_1,0.75,-1,3,,,,,,,,,,,165,6,3.2.2021,164.9639636
116,"['high', 4]",4,white,45,left,up,high,white_high_45_up,black_high_135_up,14,left,0.823111,1,14,10,0,TRUE,3,0,1,1,TRUE,FALSE,high_4,0.75,-1,3,,,,,,,,,,,165,6,3.2.2021,164.9639636
117,"['low', 6]",6,white,45,left,down,low,white_low_45_down,black_low_135_down,12,left,1.1298104,1,12,16,1,TRUE,7,1,1,1,TRUE,FALSE,low_6,0.75,-1,3,,,,,,,,,,,165,6,3.2.2021,164.9639636
118,"['high', 2]",2,white,135,right,up,high,white_high_135_up,black_high_45_up,14,right,0.2013664,1,14,14,1,TRUE,7,1,1,1,TRUE,FALSE,high_2,0.75,-1,3,,,,,,,,,,,165,6,3.2.2021,164.9639636
119,"['high', 4]",4,black,45,right,up,high,black_high_45_up,white_high_135_up,13,right,0.237737,1,13,11,1,TRUE,4,0,1,1,TRUE,FALSE,high_4,0.75,-1,3,,,,,,,,,,,165,6,3.2.2021,164.9639636
120,"['high', 4]",4,white,45,left,down,high,white_high_45_down,black_high_135_down,12,left,0.8093989,1,12,12,1,FALSE,4,0,1,1,TRUE,FALSE,high_4,0.75,-1,3,,,,,,,,,,,165,6,3.2.2021,164.9639636
121,"['high', 3]",3,black,135,left,up,high,black_high_135_up,white_high_45_up,11,left,0.1619386,1,11,9,0,TRUE,5,1,1,1,TRUE,FALSE,high_3,0.75,-1,3,,,,,,,,,,,165,6,3.2.2021,164.9639636
122,"['high', 4]",4,white,135,right,up,high,white_high_135_up,black_high_45_up,11,right,0.0337018,1,11,13,1,FALSE,4,0,1,1,TRUE,FALSE,high_4,0.75,-1,3,,,,,,,,,,,165,6,3.2.2021,164.9639636
123,"['low', 3]",3,black,135,left,up,low,black_low_135_up,white_low_45_up,13,left,0.9807154,1,13,7,1,TRUE,4,0,1,1,TRUE,FALSE,low_3,0.75,-1,3,,,,,,,,,,,165,6,3.2.2021,164.9639636
124,"['high', 4]",4,black,45,right,down,high,black_high_45_down,white_high_135_down,10,left,0.047373,0,10,14,1,FALSE,4,0,1,1,TRUE,FALSE,high_4,0.75,-1,3,,,,,,,,,,,165,6,3.2.2021,164.9639636
125,"['low', 3]",3,white,45,left,down,low,white_low_45_down,black_low_135_down,12,left,0.1232258,1,12,8,1,FALSE,4,0,1,1,TRUE,FALSE,low_3,0.75,-1,3,,,,,,,,,,,165,6,3.2.2021,164.9639636
126,"['high', 4]",4,white,135,right,down,high,white_high_135_down,black_high_45_down,13,right,0.0364053,1,13,15,0,TRUE,5,1,1,1,TRUE,FALSE,high_4,0.75,-1,3,,,,,,,,,,,165,6,3.2.2021,164.9639636
127,"['high', 2]",2,black,45,right,down,high,black_high_45_down,white_high_135_down,13,left,0.2017876,0,13,15,1,FALSE,7,1,1,1,TRUE,FALSE,high_2,0.75,-1,3,,,,,,,,,,,165,6,3.2.2021,164.9639636
128,"['low', 4]",4,black,45,right,down,low,black_low_45_down,white_low_135_down,4,left,0.2676957,0,4,9,0,TRUE,3,0,1,1,TRUE,FALSE,low_4,0.75,-1,3,,,,,,,,,,,165,6,3.2.2021,164.9639636
129,"['low', 3]",3,white,135,right,down,low,white_low_135_down,black_low_45_down,11,left,0.4043728,0,11,9,1,FALSE,4,0,1,1,TRUE,FALSE,low_3,0.75,-1,3,,,,,,,,,,,165,6,3.2.2021,164.9639636
130,"['low', 2]",2,white,45,left,down,low,white_low_45_down,black_low_135_down,12,left,0.2349469,1,12,12,1,FALSE,7,1,1,1,TRUE,FALSE,low_2,0.75,-1,3,,,,,,,,,,,165,6,3.2.2021,164.9639636
131,"['low', 6]",6,white,135,right,up,low,white_low_135_up,black_low_45_up,11,right,0.8955199,1,11,17,1,FALSE,7,1,1,1,TRUE,FALSE,low_6,0.75,-1,3,,,,,,,,,,,165,6,3.2.2021,164.9639636
132,"['low', 6]",6,white,45,left,up,low,white_low_45_up,black_low_135_up,10,left,0.062801,1,10,18,1,FALSE,7,1,1,1,TRUE,FALSE,low_6,0.75,-1,3,,,,,,,,,,,165,6,3.2.2021,164.9639636
133,"['high', 2]",2,white,45,left,up,high,white_high_45_up,black_high_135_up,16,left,0.2081908,1,16,16,0,TRUE,8,1,1,1,TRUE,FALSE,high_2,0.75,-1,3,,,,,,,,,,,165,6,3.2.2021,164.9639636
134,"['low', 3]",3,black,135,left,up,low,black_low_135_up,white_low_45_up,14,left,0.1873324,1,14,10,0,TRUE,5,1,1,1,TRUE,FALSE,low_3,0.75,-1,3,,,,,,,,,,,165,6,3.2.2021,164.9639636
135,"['high', 1]",1,white,135,right,down,high,white_high_135_down,black_high_45_down,21,right,0.2608702,1,21,15,1,FALSE,9,1,1,1,TRUE,FALSE,high_1,0.75,-1,3,,,,,,,,,,,165,6,3.2.2021,164.9639636
136,"['low', 2]",2,white,45,left,up,low,white_low_45_up,black_low_135_up,11,left,0.2456091,1,11,13,1,FALSE,7,1,1,1,TRUE,FALSE,low_2,0.75,-1,3,,,,,,,,,,,165,6,3.2.2021,164.9639636
137,"['high', 1]",1,white,135,right,down,high,white_high_135_down,black_high_45_down,20,right,0.1796701,1,20,16,1,FALSE,9,1,1,1,TRUE,FALSE,high_1,0.75,-1,3,,,,,,,,,,,165,6,3.2.2021,164.9639636
138,"['high', 6]",6,black,135,left,down,high,black_high_135_down,white_high_45_down,9,left,1.135798,1,9,11,1,TRUE,6,1,1,1,TRUE,FALSE,high_6,0.75,-1,3,,,,,,,,,,,165,6,3.2.2021,164.9639636
139,"['high', 1]",1,black,45,right,up,high,black_high_45_up,white_high_135_up,19,right,0.8759407,1,19,17,1,FALSE,9,1,1,1,TRUE,FALSE,high_1,0.75,-1,3,,,,,,,,,,,165,6,3.2.2021,164.9639636
140,"['low', 1]",1,white,45,left,down,low,white_low_45_down,black_low_135_down,11,left,0.2577477,1,11,13,0,TRUE,5,1,1,1,TRUE,FALSE,low_1,0.75,-1,3,,,,,,,,,,,165,6,3.2.2021,164.9639636
141,"['high', 2]",2,black,45,right,down,high,black_high_45_down,white_high_135_down,15,left,0.9044947,0,15,17,1,TRUE,9,1,1,1,TRUE,FALSE,high_2,0.75,-1,3,,,,,,,,,,,165,6,3.2.2021,164.9639636
142,"['low', 1]",1,white,45,left,up,low,white_low_45_up,black_low_135_up,10,left,0.2295966,1,10,14,1,TRUE,6,1,1,1,TRUE,FALSE,low_1,0.75,-1,3,,,,,,,,,,,165,6,3.2.2021,164.9639636
143,"['high', 1]",1,white,135,right,up,high,white_high_135_up,black_high_45_up,18,right,0.2198132,1,18,18,1,FALSE,9,1,1,1,TRUE,FALSE,high_1,0.75,-1,3,,,,,,,,,,,165,6,3.2.2021,164.9639636
144,"['high', 6]",6,white,45,left,up,high,white_high_45_up,black_high_135_up,8,left,1.0136424,1,8,12,1,FALSE,6,1,1,1,TRUE,FALSE,high_6,0.75,-1,3,,,,,,,,,,,165,6,3.2.2021,164.9639636
145,"['low', 4]",4,white,45,left,up,low,white_low_45_up,black_low_135_up,7,left,0.8638235,1,7,10,0,FALSE,3,0,1,1,TRUE,FALSE,low_4,0.75,-1,3,,,,,,,,,,,165,6,3.2.2021,164.9639636
146,"['high', 2]",2,black,45,right,up,high,black_high_45_up,white_high_135_up,18,right,0.2733996,1,18,18,0,TRUE,10,1,1,1,TRUE,FALSE,high_2,0.75,-1,3,,,,,,,,,,,165,6,3.2.2021,164.9639636
147,"['high', 3]",3,black,45,right,up,high,black_high_45_up,white_high_135_up,10,left,0.2503315,0,10,10,1,TRUE,6,1,1,1,TRUE,FALSE,high_3,0.75,-1,3,,,,,,,,,,,165,6,3.2.2021,164.9639636
148,"['high', 6]",6,white,45,left,up,high,white_high_45_up,black_high_135_up,7,left,0.2225657,1,7,13,1,FALSE,6,1,1,1,TRUE,FALSE,high_6,0.75,-1,3,,,,,,,,,,,165,6,3.2.2021,164.9639636
149,"['low', 1]",1,black,135,left,down,low,black_low_135_down,white_low_45_down,9,right,0.2394515,0,9,15,1,FALSE,6,1,1,1,TRUE,FALSE,low_1,0.75,-1,3,,,,,,,,,,,165,6,3.2.2021,164.9639636
150,"['low', 6]",6,white,135,right,down,low,white_low_135_down,black_low_45_down,9,right,0.0593291,1,9,19,1,FALSE,7,1,1,1,TRUE,FALSE,low_6,0.75,-1,3,,,,,,,,,,,165,6,3.2.2021,164.9639636
151,"['low', 3]",3,black,135,left,down,low,black_low_135_down,white_low_45_down,13,left,0.6032151,1,13,11,1,TRUE,6,1,1,1,TRUE,FALSE,low_3,0.75,-1,3,,,,,,,,,,,165,6,3.2.2021,164.9639636
152,"['low', 1]",1,white,135,right,down,low,white_low_135_down,black_low_45_down,12,right,0.1856043,1,12,16,0,TRUE,7,1,1,1,TRUE,FALSE,low_1,0.75,-1,3,,,,,,,,,,,165,6,3.2.2021,164.9639636
153,"['low', 1]",1,white,45,left,up,low,white_low_45_up,black_low_135_up,11,left,0.1970505,1,11,17,1,TRUE,8,1,1,1,TRUE,FALSE,low_1,0.75,-1,3,,,,,,,,,,,165,6,3.2.2021,164.9639636
154,"['high', 2]",2,black,45,right,down,high,black_high_45_down,white_high_135_down,17,left,0.5988926,0,17,19,1,TRUE,11,1,1,1,TRUE,FALSE,high_2,0.75,-1,3,,,,,,,,,,,165,6,3.2.2021,164.9639636
155,"['low', 1]",1,white,135,right,up,low,white_low_135_up,black_low_45_up,10,right,0.217494,1,10,18,1,FALSE,8,1,1,1,TRUE,FALSE,low_1,0.75,-1,3,,,,,,,,,,,165,6,3.2.2021,164.9639636
156,"['high', 1]",1,black,135,left,up,high,black_high_135_up,white_high_45_up,17,left,0.111433,1,17,19,1,FALSE,9,1,1,1,TRUE,FALSE,high_1,0.75,-1,3,,,,,,,,,,,165,6,3.2.2021,164.9639636
157,"['low', 3]",3,white,135,right,up,low,white_low_135_up,black_low_45_up,12,right,1.1396805,1,12,12,1,FALSE,6,1,1,1,TRUE,FALSE,low_3,0.75,-1,3,,,,,,,,,,,165,6,3.2.2021,164.9639636
158,"['low', 3]",3,white,45,left,up,low,white_low_45_up,black_low_135_up,11,left,0.1405348,1,11,13,1,FALSE,6,1,1,1,TRUE,FALSE,low_3,0.75,-1,3,,,,,,,,,,,165,6,3.2.2021,164.9639636
159,"['high', 6]",6,white,45,left,down,high,white_high_45_down,black_high_135_down,6,left,0.1857767,1,6,14,1,FALSE,6,1,1,1,TRUE,FALSE,high_6,0.75,-1,3,,,,,,,,,,,165,6,3.2.2021,164.9639636
160,"['high', 3]",3,white,45,left,down,high,white_high_45_down,black_high_135_down,13,left,0.6510955,1,13,11,0,TRUE,7,1,1,1,TRUE,FALSE,high_3,0.75,-1,3,,,,,,,,,,,165,6,3.2.2021,164.9639636
161,"['low', 2]",2,black,135,left,down,low,black_low_135_down,white_low_45_down,10,left,0.0247498,1,10,14,1,FALSE,7,1,1,1,TRUE,FALSE,low_2,0.75,-1,3,,,,,,,,,,,165,6,3.2.2021,164.9639636
162,"['high', 3]",3,white,45,left,down,high,white_high_45_down,black_high_135_down,12,left,0.1196593,1,12,12,1,TRUE,8,1,1,1,TRUE,FALSE,high_3,0.75,-1,3,,,,,,,,,,,165,6,3.2.2021,164.9639636
163,"['high', 6]",6,black,45,right,down,high,black_high_45_down,white_high_135_down,5,right,0.1506757,1,5,15,1,FALSE,6,1,1,1,TRUE,FALSE,high_6,0.75,-1,3,,,,,,,,,,,165,6,3.2.2021,164.9639636
164,"['high', 6]",6,black,135,left,down,high,black_high_135_down,white_high_45_down,4,left,0.6231386,1,4,16,1,FALSE,6,1,1,1,TRUE,FALSE,high_6,0.75,-1,3,,,,,,,,,,,165,6,3.2.2021,164.9639636
165,"['high', 3]",3,white,45,left,down,high,white_high_45_down,black_high_135_down,11,left,1.0358027,1,11,13,1,FALSE,8,1,1,1,TRUE,FALSE,high_3,0.75,-1,3,,,,,,,,,,,165,6,3.2.2021,164.9639636
166,"['low', 2]",2,white,135,right,down,low,white_low_135_down,black_low_45_down,9,right,0.1777386,1,9,15,1,FALSE,7,1,1,1,TRUE,FALSE,low_2,0.75,-1,3,,,,,,,,,,,165,6,3.2.2021,164.9639636
167,"['low', 6]",6,white,45,left,down,low,white_low_45_down,black_low_135_down,8,left,1.2787273,1,8,20,1,FALSE,7,1,1,1,TRUE,FALSE,low_6,0.75,-1,3,,,,,,,,,,,165,6,3.2.2021,164.9639636
168,"['high', 4]",4,black,135,left,up,high,black_high_135_up,white_high_45_up,12,left,0.2431584,1,12,16,1,TRUE,6,1,1,1,TRUE,FALSE,high_4,0.75,-1,3,,,,,,,,,,,165,6,3.2.2021,164.9639636
169,"['high', 1]",1,black,45,right,up,high,black_high_45_up,white_high_135_up,16,left,0.228597,0,16,20,1,FALSE,9,1,1,1,TRUE,FALSE,high_1,0.75,-1,3,,,,,,,,,,,165,6,3.2.2021,164.9639636
170,"['high', 3]",3,white,45,left,up,high,white_high_45_up,black_high_135_up,10,left,0.0258272,1,10,14,1,FALSE,8,1,1,1,TRUE,FALSE,high_3,0.75,-1,3,,,,,,,,,,,165,6,3.2.2021,164.9639636
171,"['high', 3]",3,black,45,right,up,high,black_high_45_up,white_high_135_up,9,left,0.173268,0,9,15,1,FALSE,8,1,1,1,TRUE,FALSE,high_3,0.75,-1,3,,,,,,,,,,,165,6,3.2.2021,164.9639636
172,"['low', 4]",4,white,135,right,up,low,white_low_135_up,black_low_45_up,6,right,0.1991056,1,6,11,1,TRUE,4,0,1,1,TRUE,FALSE,low_4,0.75,-1,3,,,,,,,,,,,165,6,3.2.2021,164.9639636
173,"['low', 3]",3,white,135,right,down,low,white_low_135_down,black_low_45_down,10,right,0.0105802,1,10,14,1,FALSE,6,1,1,1,TRUE,FALSE,low_3,0.75,-1,3,,,,,,,,,,,165,6,3.2.2021,164.9639636
174,"['low', 4]",4,black,45,right,up,low,black_low_45_up,white_low_135_up,5,right,0.0269875,1,5,12,1,FALSE,4,0,1,1,TRUE,FALSE,low_4,0.75,-1,3,,,,,,,,,,,165,6,3.2.2021,164.9639636
175,"['high', 3]",3,black,135,left,down,high,black_high_135_down,white_high_45_down,12,left,0.8230317,1,12,16,0,TRUE,9,1,1,1,TRUE,FALSE,high_3,0.75,-1,3,,,,,,,,,,,165,6,3.2.2021,164.9639636
176,"['low', 4]",4,white,135,right,down,low,white_low_135_down,black_low_45_down,4,right,0.1334882,1,4,13,1,FALSE,4,0,1,1,TRUE,FALSE,low_4,0.75,-1,3,,,,,,,,,,,165,6,3.2.2021,164.9639636
177,"['low', 4]",4,white,135,right,down,low,white_low_135_down,black_low_45_down,3,right,0.0328772,1,3,14,1,FALSE,4,0,1,1,TRUE,FALSE,low_4,0.75,-1,3,,,,,,,,,,,165,6,3.2.2021,164.9639636
178,"['low', 3]",3,black,135,left,down,low,black_low_135_down,white_low_45_down,9,left,0.7178169,1,9,15,1,FALSE,6,1,1,1,TRUE,FALSE,low_3,0.75,-1,3,,,,,,,,,,,165,6,3.2.2021,164.9639636
179,"['high', 3]",3,black,135,left,down,high,black_high_135_down,white_high_45_down,11,left,0.0929891,1,11,17,1,TRUE,10,1,1,1,TRUE,FALSE,high_3,0.75,-1,3,,,,,,,,,,,165,6,3.2.2021,164.9639636
180,"['low', 6]",6,black,45,right,down,low,black_low_45_down,white_low_135_down,7,right,1.5633456,1,7,21,1,FALSE,7,1,1,1,TRUE,FALSE,low_6,0.75,-1,3,,,,,,,,,,,165,6,3.2.2021,164.9639636
181,"['low', 3]",3,black,135,left,up,low,black_low_135_up,white_low_45_up,8,right,0.0266989,0,8,16,1,FALSE,6,1,1,1,TRUE,FALSE,low_3,0.75,-1,3,,,,,,,,,,,165,6,3.2.2021,164.9639636
182,"['low', 3]",3,white,45,left,down,low,white_low_45_down,black_low_135_down,11,left,0.3580021,1,11,17,0,TRUE,7,1,1,1,TRUE,FALSE,low_3,0.75,-1,3,,,,,,,,,,,165,6,3.2.2021,164.9639636
183,"['high', 4]",4,white,135,right,up,high,white_high_135_up,black_high_45_up,11,right,1.0029571,1,11,17,1,FALSE,6,1,1,1,TRUE,FALSE,high_4,0.75,-1,3,,,,,,,,,,,165,6,3.2.2021,164.9639636
184,"['high', 4]",4,black,45,right,down,high,black_high_45_down,white_high_135_down,10,left,0.2365309,0,10,18,1,FALSE,6,1,1,1,TRUE,FALSE,high_4,0.75,-1,3,,,,,,,,,,,165,6,3.2.2021,164.9639636
185,"['low', 2]",2,white,135,right,up,low,white_low_135_up,black_low_45_up,8,right,0.5916333,1,8,16,1,FALSE,7,1,1,1,TRUE,FALSE,low_2,0.75,-1,3,,,,,,,,,,,165,6,3.2.2021,164.9639636
186,"['high', 1]",1,black,45,right,down,high,black_high_45_down,white_high_135_down,19,left,0.3195349,0,19,21,0,TRUE,10,1,1,1,TRUE,FALSE,high_1,0.75,-1,3,,,,,,,,,,,165,6,3.2.2021,164.9639636
187,"['low', 2]",2,black,135,left,down,low,black_low_135_down,white_low_45_down,7,right,0.3552606,0,7,17,1,FALSE,7,1,1,1,TRUE,FALSE,low_2,0.75,-1,3,,,,,,,,,,,165,6,3.2.2021,164.9639636
188,"['low', 6]",6,black,135,left,up,low,black_low_135_up,white_low_45_up,6,right,0.4932212,0,6,22,1,FALSE,7,1,1,1,TRUE,FALSE,low_6,0.75,-1,3,,,,,,,,,,,165,6,3.2.2021,164.9639636
189,"['low', 1]",1,black,135,left,up,low,black_low_135_up,white_low_45_up,9,right,0.2081556,0,9,19,1,FALSE,8,1,1,1,TRUE,FALSE,low_1,0.75,-1,3,,,,,,,,,,,165,6,3.2.2021,164.9639636
190,"['high', 6]",6,black,135,left,down,high,black_high_135_down,white_high_45_down,3,left,0.2064321,1,3,17,1,FALSE,6,1,1,1,TRUE,FALSE,high_6,0.75,-1,3,,,,,,,,,,,165,6,3.2.2021,164.9639636
191,"['low', 2]",2,black,45,right,down,low,black_low_45_down,white_low_135_down,10,right,0.0246276,1,10,18,0,TRUE,8,1,1,1,TRUE,FALSE,low_2,0.75,-1,3,,,,,,,,,,,165,6,3.2.2021,164.9639636
192,"['low', 1]",1,black,45,right,up,low,black_low_45_up,white_low_135_up,12,left,0.0435753,0,12,20,0,TRUE,9,1,1,1,TRUE,FALSE,low_1,0.75,-1,3,,,,,,,,,,,165,6,3.2.2021,164.9639636
193,"['low', 6]",6,white,135,right,up,low,white_low_135_up,black_low_45_up,9,right,1.110736,1,9,23,0,TRUE,8,1,1,1,TRUE,FALSE,low_6,0.75,-1,3,,,,,,,,,,,165,6,3.2.2021,164.9639636
194,"['low', 1]",1,black,135,left,down,low,black_low_135_down,white_low_45_down,15,right,0.1757921,0,15,21,0,FALSE,9,1,1,1,TRUE,FALSE,low_1,0.75,-1,3,,,,,,,,,,,165,6,3.2.2021,164.9639636
195,"['high', 1]",1,white,45,left,up,high,white_high_45_up,black_high_135_up,22,left,0.2397667,1,22,22,0,FALSE,10,1,1,1,TRUE,FALSE,high_1,0.75,-1,3,,,,,,,,,,,165,6,3.2.2021,164.9639636
196,"['low', 6]",6,black,45,right,down,low,black_low_45_down,white_low_135_down,8,right,1.2225039,1,8,24,1,TRUE,9,1,1,1,TRUE,FALSE,low_6,0.75,-1,3,,,,,,,,,,,165,6,3.2.2021,164.9639636
197,"['low', 6]",6,white,45,left,up,low,white_low_45_up,black_low_135_up,7,left,0.2316522,1,7,25,1,FALSE,9,1,1,1,TRUE,FALSE,low_6,0.75,-1,3,,,,,,,,,,,165,6,3.2.2021,164.9639636
198,"['low', 1]",1,white,45,left,down,low,white_low_45_down,black_low_135_down,18,left,0.268738,1,18,22,0,FALSE,9,1,1,1,TRUE,FALSE,low_1,0.75,-1,3,,,,,,,,,,,165,6,3.2.2021,164.9639636
199,"['low', 2]",2,white,45,left,up,low,white_low_45_up,black_low_135_up,9,right,0.1575757,0,9,19,1,TRUE,9,1,1,1,TRUE,FALSE,low_2,0.75,-1,3,,,,,,,,,,,165,6,3.2.2021,164.9639636
200,"['low', 2]",2,black,45,right,down,low,black_low_45_down,white_low_135_down,12,right,0.0475391,1,12,20,0,TRUE,10,1,1,1,TRUE,FALSE,low_2,0.75,-1,3,,,,,,,,,,,165,6,3.2.2021,164.9639636
201,"['low', 4]",4,white,45,left,up,low,white_low_45_up,black_low_135_up,2,right,0.0255388,0,2,15,1,FALSE,4,0,1,1,TRUE,FALSE,low_4,0.75,-1,3,,,,,,,,,,,165,6,3.2.2021,164.9639636
202,"['low', 3]",3,black,135,left,down,low,black_low_135_down,white_low_45_down,10,left,0.5727467,1,10,18,1,TRUE,8,1,1,1,TRUE,FALSE,low_3,0.75,-1,3,,,,,,,,,,,165,6,3.2.2021,164.9639636
203,"['high', 1]",1,black,45,right,up,high,black_high_45_up,white_high_135_up,21,right,0.2087765,1,21,23,1,TRUE,11,1,1,1,TRUE,FALSE,high_1,0.75,-1,3,,,,,,,,,,,165,6,3.2.2021,164.9639636
204,"['high', 1]",1,white,135,right,down,high,white_high_135_down,black_high_45_down,20,right,0.1869393,1,20,24,1,FALSE,11,1,1,1,TRUE,FALSE,high_1,0.75,-1,3,,,,,,,,,,,165,6,3.2.2021,164.9639636
205,"['high', 3]",3,white,135,right,down,high,white_high_135_down,black_high_45_down,10,right,0.1701467,1,10,18,1,FALSE,10,1,1,1,TRUE,FALSE,high_3,0.75,-1,3,,,,,,,,,,,165,6,3.2.2021,164.9639636
206,"['high', 3]",3,white,45,left,up,high,white_high_45_up,black_high_135_up,9,left,0.1601991,1,9,19,1,FALSE,10,1,1,1,TRUE,FALSE,high_3,0.75,-1,3,,,,,,,,,,,165,6,3.2.2021,164.9639636
207,"['high', 3]",3,black,135,left,up,high,black_high_135_up,white_high_45_up,8,left,0.1998718,1,8,20,1,FALSE,10,1,1,1,TRUE,FALSE,high_3,0.75,-1,3,,,,,,,,,,,165,6,3.2.2021,164.9639636
208,"['low', 6]",6,white,45,left,up,low,white_low_45_up,black_low_135_up,6,right,0.5328818,0,6,26,1,FALSE,9,1,1,1,TRUE,FALSE,low_6,0.75,-1,3,,,,,,,,,,,165,6,3.2.2021,164.9639636
209,"['low', 3]",3,black,45,right,up,low,black_low_45_up,white_low_135_up,9,right,0.6521641,1,9,19,1,FALSE,8,1,1,1,TRUE,FALSE,low_3,0.75,-1,3,,,,,,,,,,,165,6,3.2.2021,164.9639636
210,"['high', 1]",1,black,135,left,down,high,black_high_135_down,white_high_45_down,19,right,0.1779914,0,19,25,1,FALSE,11,1,1,1,TRUE,FALSE,high_1,0.75,-1,3,,,,,,,,,,,165,6,3.2.2021,164.9639636
211,"['high', 3]",3,black,45,right,up,high,black_high_45_up,white_high_135_up,7,left,0.1439729,0,7,21,1,FALSE,10,1,1,1,TRUE,FALSE,high_3,0.75,-1,3,,,,,,,,,,,165,6,3.2.2021,164.9639636
212,"['high', 1]",1,black,45,right,down,high,black_high_45_down,white_high_135_down,22,right,0.0492865,1,22,26,0,TRUE,12,1,1,1,TRUE,FALSE,high_1,0.75,-1,3,,,,,,,,,,,165,6,3.2.2021,164.9639636
213,"['low', 3]",3,black,135,left,up,low,black_low_135_up,white_low_45_up,8,left,0.1750866,1,8,20,1,FALSE,8,1,1,1,TRUE,FALSE,low_3,0.75,-1,3,,,,,,,,,,,165,6,3.2.2021,164.9639636
214,"['high', 2]",2,black,135,left,up,high,black_high_135_up,white_high_45_up,20,left,0.2602029,1,20,20,0,TRUE,12,1,1,1,TRUE,FALSE,high_2,0.75,-1,3,,,,,,,,,,,165,6,3.2.2021,164.9639636
215,"['low', 6]",6,black,135,left,down,low,black_low_135_down,white_low_45_down,9,left,0.0241703,1,9,27,0,TRUE,10,1,1,1,TRUE,FALSE,low_6,0.75,-1,3,,,,,,,,,,,165,6,3.2.2021,164.9639636
216,"['low', 2]",2,white,45,left,up,low,white_low_45_up,black_low_135_up,11,left,0.0593769,1,11,21,1,TRUE,11,1,1,1,TRUE,FALSE,low_2,0.75,-1,3,,,,,,,,,,,165,6,3.2.2021,164.9639636
217,"['low', 6]",6,white,135,right,up,low,white_low_135_up,black_low_45_up,8,right,1.3540587,1,8,28,1,TRUE,11,1,1,1,TRUE,FALSE,low_6,0.75,-1,3,,,,,,,,,,,165,6,3.2.2021,164.9639636
218,"['high', 3]",3,black,45,right,up,high,black_high_45_up,white_high_135_up,10,left,0.0537134,0,10,22,0,TRUE,11,1,1,1,TRUE,FALSE,high_3,0.75,-1,3,,,,,,,,,,,165,6,3.2.2021,164.9639636
219,"['low', 4]",4,black,135,left,up,low,black_low_135_up,white_low_45_up,5,right,0.1534866,0,5,16,0,TRUE,5,1,1,1,TRUE,FALSE,low_4,0.75,-1,3,,,,,,,,,,,165,6,3.2.2021,164.9639636
220,"['low', 1]",1,black,135,left,up,low,black_low_135_up,white_low_45_up,17,left,0.0577841,1,17,23,1,TRUE,10,1,1,1,TRUE,FALSE,low_1,0.75,-1,3,,,,,,,,,,,165,6,3.2.2021,164.9639636
221,"['low', 1]",1,black,45,right,down,low,black_low_45_down,white_low_135_down,16,left,0.0433095,0,16,24,1,FALSE,10,1,1,1,TRUE,FALSE,low_1,0.75,-1,3,,,,,,,,,,,165,6,3.2.2021,164.9639636
222,"['high', 1]",1,white,45,left,up,high,white_high_45_up,black_high_135_up,21,left,0.2769063,1,21,27,1,TRUE,13,1,1,1,TRUE,FALSE,high_1,0.75,-1,3,,,,,,,,,,,165,6,3.2.2021,164.9639636
223,"['high', 6]",6,white,135,right,down,high,white_high_135_down,black_high_45_down,2,left,0.0079201,0,2,18,1,FALSE,6,1,1,1,TRUE,FALSE,high_6,0.75,-1,3,,,,,,,,,,,165,6,3.2.2021,164.9639636
224,"['low', 6]",6,white,45,left,up,low,white_low_45_up,black_low_135_up,7,left,0.745733,1,7,29,1,FALSE,11,1,1,1,TRUE,FALSE,low_6,0.75,-1,3,,,,,,,,,,,165,6,3.2.2021,164.9639636
225,"['low', 4]",4,black,135,left,down,low,black_low_135_down,white_low_45_down,8,left,0.0271708,1,8,17,0,FALSE,5,1,1,1,TRUE,FALSE,low_4,0.75,-1,3,,,,,,,,,,,165,6,3.2.2021,164.9639636
226,"['low', 4]",4,black,135,left,down,low,black_low_135_down,white_low_45_down,7,left,0.9908454,1,7,18,1,TRUE,6,1,1,1,TRUE,FALSE,low_4,0.75,-1,3,,,,,,,,,,,165,6,3.2.2021,164.9639636
227,"['high', 4]",4,black,135,left,up,high,black_high_135_up,white_high_45_up,13,right,0.8374742,0,13,19,0,TRUE,7,1,1,1,TRUE,FALSE,high_4,0.75,-1,3,,,,,,,,,,,165,6,3.2.2021,164.9639636
228,"['high', 4]",4,white,135,right,up,high,white_high_135_up,black_high_45_up,16,right,0.4695692,1,16,20,0,FALSE,7,1,1,1,TRUE,FALSE,high_4,0.75,-1,3,,,,,,,,,,,165,6,3.2.2021,164.9639636
229,"['high', 1]",1,white,135,right,up,high,white_high_135_up,black_high_45_up,20,right,0.2241125,1,20,28,1,FALSE,13,1,1,1,TRUE,FALSE,high_1,0.75,-1,3,,,,,,,,,,,165,6,3.2.2021,164.9639636
230,"['low', 6]",6,black,135,left,up,low,black_low_135_up,white_low_45_up,6,left,0.2144354,1,6,30,1,FALSE,11,1,1,1,TRUE,FALSE,low_6,0.75,-1,3,,,,,,,,,,,165,6,3.2.2021,164.9639636
231,"['high', 1]",1,white,45,left,up,high,white_high_45_up,black_high_135_up,19,left,0.3223411,1,19,29,1,FALSE,13,1,1,1,TRUE,FALSE,high_1,0.75,-1,3,,,,,,,,,,,165,6,3.2.2021,164.9639636
232,"['high', 2]",2,black,135,left,up,high,black_high_135_up,white_high_45_up,19,left,0.1911824,1,19,21,1,TRUE,13,1,1,1,TRUE,FALSE,high_2,0.75,-1,3,,,,,,,,,,,165,6,3.2.2021,164.9639636
233,"['high', 6]",6,white,135,right,down,high,white_high_135_down,black_high_45_down,5,left,0.2518641,0,5,19,0,TRUE,7,1,1,1,TRUE,FALSE,high_6,0.75,-1,3,,,,,,,,,,,165,6,3.2.2021,164.9639636
234,"['low', 6]",6,black,45,right,up,low,black_low_45_up,white_low_135_up,5,left,0.2331504,0,5,31,1,FALSE,11,1,1,1,TRUE,FALSE,low_6,0.75,-1,3,,,,,,,,,,,165,6,3.2.2021,164.9639636
235,"['low', 6]",6,black,135,left,down,low,black_low_135_down,white_low_45_down,8,left,0.2124894,1,8,32,0,TRUE,12,1,1,1,TRUE,FALSE,low_6,0.75,-1,3,,,,,,,,,,,165,6,3.2.2021,164.9639636
236,"['high', 6]",6,white,135,right,down,high,white_high_135_down,black_high_45_down,8,right,0.1663751,1,8,20,0,FALSE,7,1,1,1,TRUE,FALSE,high_6,0.75,-1,3,,,,,,,,,,,165,6,3.2.2021,164.9639636
237,"['low', 4]",4,white,45,left,down,low,white_low_45_down,black_low_135_down,6,left,0.1971986,1,6,19,1,FALSE,6,1,1,1,TRUE,FALSE,low_4,0.75,-1,3,,,,,,,,,,,165,6,3.2.2021,164.9639636
238,"['low', 1]",1,white,135,right,down,low,white_low_135_down,black_low_45_down,19,right,0.2050184,1,19,25,0,TRUE,11,1,1,1,TRUE,FALSE,low_1,0.75,-1,3,,,,,,,,,,,165,6,3.2.2021,164.9639636
239,"['low', 6]",6,black,135,left,down,low,black_low_135_down,white_low_45_down,7,left,0.7345461,1,7,33,1,TRUE,13,1,1,1,TRUE,FALSE,low_6,0.75,-1,3,,,,,,,,,,,165,6,3.2.2021,164.9639636
240,"['low', 6]",6,black,45,right,down,low,black_low_45_down,white_low_135_down,6,right,0.1964229,1,6,34,1,FALSE,13,1,1,1,TRUE,FALSE,low_6,0.75,-1,3,,,,,,,,,,,165,6,3.2.2021,164.9639636
241,"['low', 6]",6,black,135,left,up,low,black_low_135_up,white_low_45_up,5,right,0.2250129,0,5,35,1,FALSE,13,1,1,1,TRUE,FALSE,low_6,0.75,-1,3,,,,,,,,,,,165,6,3.2.2021,164.9639636
242,"['low', 3]",3,black,135,left,down,low,black_low_135_down,white_low_45_down,7,left,0.2137316,1,7,21,1,FALSE,8,1,1,1,TRUE,FALSE,low_3,0.75,-1,3,,,,,,,,,,,165,6,3.2.2021,164.9639636
243,"['low', 1]",1,white,135,right,up,low,white_low_135_up,black_low_45_up,18,right,0.2254091,1,18,26,1,TRUE,12,1,1,1,TRUE,FALSE,low_1,0.75,-1,3,,,,,,,,,,,165,6,3.2.2021,164.9639636
244,"['low', 4]",4,black,135,left,up,low,black_low_135_up,white_low_45_up,5,left,0.1918255,1,5,20,1,FALSE,6,1,1,1,TRUE,FALSE,low_4,0.75,-1,3,,,,,,,,,,,165,6,3.2.2021,164.9639636
245,"['high', 2]",2,black,135,left,down,high,black_high_135_down,white_high_45_down,18,right,0.183249,0,18,22,1,FALSE,13,1,1,1,TRUE,FALSE,high_2,0.75,-1,3,,,,,,,,,,,165,6,3.2.2021,164.9639636
246,"['low', 1]",1,black,45,right,up,low,black_low_45_up,white_low_135_up,17,left,1.7810125,0,17,27,1,FALSE,12,1,1,1,TRUE,FALSE,low_1,0.75,-1,3,,,,,,,,,,,165,6,3.2.2021,164.9639636
247,"['low', 3]",3,black,45,right,down,low,black_low_45_down,white_low_135_down,6,left,0.2088656,0,6,22,1,FALSE,8,1,1,1,TRUE,FALSE,low_3,0.75,-1,3,,,,,,,,,,,165,6,3.2.2021,164.9639636
248,"['high', 4]",4,white,135,right,down,high,white_high_135_down,black_high_45_down,15,right,0.5439163,1,15,21,1,TRUE,8,1,1,1,TRUE,FALSE,high_4,0.75,-1,3,,,,,,,,,,,165,6,3.2.2021,164.9639636
249,"['low', 4]",4,black,135,left,up,low,black_low_135_up,white_low_45_up,4,right,0.226733,0,4,21,1,FALSE,6,1,1,1,TRUE,FALSE,low_4,0.75,-1,3,,,,,,,,,,,165,6,3.2.2021,164.9639636
250,"['low', 3]",3,black,135,left,up,low,black_low_135_up,white_low_45_up,9,left,0.2612086,1,9,23,0,TRUE,9,1,1,1,TRUE,FALSE,low_3,0.75,-1,3,,,,,,,,,,,165,6,3.2.2021,164.9639636
251,"['high', 1]",1,black,45,right,down,high,black_high_45_down,white_high_135_down,18,left,0.1726706,0,18,30,1,FALSE,13,1,1,1,TRUE,FALSE,high_1,0.75,-1,3,,,,,,,,,,,165,6,3.2.2021,164.9639636
252,"['high', 6]",6,white,45,left,down,high,white_high_45_down,black_high_135_down,7,left,1.4913971,1,7,21,1,TRUE,8,1,1,1,TRUE,FALSE,high_6,0.75,-1,3,,,,,,,,,,,165,6,3.2.2021,164.9639636
253,"['high', 4]",4,white,135,right,down,high,white_high_135_down,black_high_45_down,14,right,0.0133703,1,14,22,1,FALSE,8,1,1,1,TRUE,FALSE,high_4,0.75,-1,3,,,,,,,,,,,165,6,3.2.2021,164.9639636
254,"['high', 2]",2,white,45,left,down,high,white_high_45_down,black_high_135_down,21,left,0.2088089,1,21,23,0,TRUE,14,1,1,1,TRUE,FALSE,high_2,0.75,-1,3,,,,,,,,,,,165,6,3.2.2021,164.9639636
255,"['low', 3]",3,white,135,right,down,low,white_low_135_down,black_low_45_down,8,right,0.7058762,1,8,24,1,TRUE,10,1,1,1,TRUE,FALSE,low_3,0.75,-1,3,,,,,,,,,,,165,6,3.2.2021,164.9639636
256,"['low', 4]",4,black,135,left,down,low,black_low_135_down,white_low_45_down,7,left,0.1926558,1,7,22,0,TRUE,7,1,1,1,TRUE,FALSE,low_4,0.75,-1,3,,,,,,,,,,,165,6,3.2.2021,164.9639636
257,"['low', 6]",6,black,45,right,up,low,black_low_45_up,white_low_135_up,8,right,0.2972602,1,8,36,0,TRUE,14,1,1,1,TRUE,FALSE,low_6,0.75,-1,3,,,,,,,,,,,165,6,3.2.2021,164.9639636
258,"['low', 6]",6,white,45,left,down,low,white_low_45_down,black_low_135_down,7,left,0.240661,1,7,37,1,TRUE,15,1,1,1,TRUE,FALSE,low_6,0.75,-1,3,,,,,,,,,,,165,6,3.2.2021,164.9639636
259,"['low', 1]",1,white,135,right,up,low,white_low_135_up,black_low_45_up,20,right,0.1605936,1,20,28,0,TRUE,13,1,1,1,TRUE,FALSE,low_1,0.75,-1,3,,,,,,,,,,,165,6,3.2.2021,164.9639636
260,"['high', 6]",6,black,45,right,up,high,black_high_45_up,white_high_135_up,6,right,0.034305,1,6,22,1,FALSE,8,1,1,1,TRUE,FALSE,high_6,0.75,-1,3,,,,,,,,,,,165,6,3.2.2021,164.9639636
261,"['low', 2]",2,black,135,left,down,low,black_low_135_down,white_low_45_down,10,left,0.2619252,1,10,22,1,FALSE,11,1,1,1,TRUE,FALSE,low_2,0.75,-1,3,,,,,,,,,,,165,6,3.2.2021,164.9639636
262,"['high', 4]",4,white,135,right,up,high,white_high_135_up,black_high_45_up,13,right,0.5092116,1,13,23,1,FALSE,8,1,1,1,TRUE,FALSE,high_4,0.75,-1,3,,,,,,,,,,,165,6,3.2.2021,164.9639636
263,"['high', 2]",2,black,135,left,down,high,black_high_135_down,white_high_45_down,20,right,0.0930924,0,20,24,1,TRUE,15,1,1,1,TRUE,FALSE,high_2,0.75,-1,3,,,,,,,,,,,165,6,3.2.2021,164.9639636
264,"['low', 2]",2,white,45,left,up,low,white_low_45_up,black_low_135_up,9,left,0.297184,1,9,23,1,FALSE,11,1,1,1,TRUE,FALSE,low_2,0.75,-1,3,,,,,,,,,,,165,6,3.2.2021,164.9639636
265,"['low', 2]",2,white,135,right,down,low,white_low_135_down,black_low_45_down,8,right,0.2722344,1,8,24,1,FALSE,11,1,1,1,TRUE,FALSE,low_2,0.75,-1,3,,,,,,,,,,,165,6,3.2.2021,164.9639636
266,"['high', 2]",2,black,135,left,down,high,black_high_135_down,white_high_45_down,23,left,0.2379531,1,23,25,0,TRUE,16,1,1,1,TRUE,FALSE,high_2,0.75,-1,3,,,,,,,,,,,165,6,3.2.2021,164.9639636
267,"['high', 1]",1,white,45,left,up,high,white_high_45_up,black_high_135_up,21,left,0.3341856,1,21,31,0,TRUE,14,1,1,1,TRUE,FALSE,high_1,0.75,-1,3,,,,,,,,,,,165,6,3.2.2021,164.9639636
268,"['high', 6]",6,white,135,right,up,high,white_high_135_up,black_high_45_up,5,right,0.2500011,1,5,23,1,FALSE,8,1,1,1,TRUE,FALSE,high_6,0.75,-1,3,,,,,,,,,,,165,6,3.2.2021,164.9639636
269,"['low', 6]",6,white,135,right,up,low,white_low_135_up,black_low_45_up,6,right,0.326714,1,6,38,1,FALSE,15,1,1,1,TRUE,FALSE,low_6,0.75,-1,3,,,,,,,,,,,165,6,3.2.2021,164.9639636
270,"['low', 2]",2,white,135,right,down,low,white_low_135_down,black_low_45_down,7,right,0.2287294,1,7,25,1,FALSE,11,1,1,1,TRUE,FALSE,low_2,0.75,-1,3,,,,,,,,,,,165,6,3.2.2021,164.9639636
271,"['high', 1]",1,black,45,right,up,high,black_high_45_up,white_high_135_up,20,right,0.1856813,1,20,32,1,TRUE,15,1,1,1,TRUE,FALSE,high_1,0.75,-1,3,,,,,,,,,,,165,6,3.2.2021,164.9639636
272,"['high', 6]",6,white,135,right,down,high,white_high_135_down,black_high_45_down,4,right,0.1248925,1,4,24,1,FALSE,8,1,1,1,TRUE,FALSE,high_6,0.75,-1,3,,,,,,,,,,,165,6,3.2.2021,164.9639636
273,"['high', 1]",1,black,45,right,up,high,black_high_45_up,white_high_135_up,19,left,0.2278323,0,19,33,1,FALSE,15,1,1,1,TRUE,FALSE,high_1,0.75,-1,3,,,,,,,,,,,165,6,3.2.2021,164.9639636
274,"['low', 6]",6,white,135,right,down,low,white_low_135_down,black_low_45_down,5,right,0.4695059,1,5,39,1,FALSE,15,1,1,1,TRUE,FALSE,low_6,0.75,-1,3,,,,,,,,,,,165,6,3.2.2021,164.9639636
275,"['high', 1]",1,white,45,left,down,high,white_high_45_down,black_high_135_down,22,left,0.3175705,1,22,34,0,TRUE,16,1,1,1,TRUE,FALSE,high_1,0.75,-1,3,,,,,,,,,,,165,6,3.2.2021,164.9639636
276,"['low', 1]",1,white,45,left,up,low,white_low_45_up,black_low_135_up,19,left,0.252106,1,19,29,1,TRUE,14,1,1,1,TRUE,FALSE,low_1,0.75,-1,3,,,,,,,,,,,165,6,3.2.2021,164.9639636
277,"['high', 1]",1,white,45,left,down,high,white_high_45_down,black_high_135_down,21,left,0.1216554,1,21,35,1,TRUE,17,1,1,1,TRUE,FALSE,high_1,0.75,-1,3,,,,,,,,,,,165,6,3.2.2021,164.9639636
278,"['high', 2]",2,black,45,right,down,high,black_high_45_down,white_high_135_down,22,left,0.0702067,0,22,26,1,TRUE,17,1,1,1,TRUE,FALSE,high_2,0.75,-1,3,,,,,,,,,,,165,6,3.2.2021,164.9639636
279,"['high', 4]",4,black,45,right,up,high,black_high_45_up,white_high_135_up,12,right,0.1964851,1,12,24,1,FALSE,8,1,1,1,TRUE,FALSE,high_4,0.75,-1,3,,,,,,,,,,,165,6,3.2.2021,164.9639636
280,"['high', 2]",2,white,45,left,down,high,white_high_45_down,black_high_135_down,25,left,0.1916901,1,25,27,0,TRUE,18,1,1,1,TRUE,FALSE,high_2,0.75,-1,3,,,,,,,,,,,165,6,3.2.2021,164.9639636
281,"['low', 4]",4,white,135,right,down,low,white_low_135_down,black_low_45_down,6,right,0.1489811,1,6,23,1,TRUE,8,1,1,1,TRUE,FALSE,low_4,0.75,-1,3,,,,,,,,,,,165,6,3.2.2021,164.9639636
282,"['low', 4]",4,white,45,left,up,low,white_low_45_up,black_low_135_up,5,left,0.1088397,1,5,24,1,FALSE,8,1,1,1,TRUE,FALSE,low_4,0.75,-1,3,,,,,,,,,,,165,6,3.2.2021,164.9639636
283,"['high', 6]",6,black,135,left,down,high,black_high_135_down,white_high_45_down,3,left,0.0167503,1,3,25,1,FALSE,8,1,1,1,TRUE,FALSE,high_6,0.75,-1,3,,,,,,,,,,,165,6,3.2.2021,164.9639636
284,"['low', 3]",3,black,45,right,down,low,black_low_45_down,white_low_135_down,7,left,0.1524095,0,7,25,1,FALSE,10,1,1,1,TRUE,FALSE,low_3,0.75,-1,3,,,,,,,,,,,165,6,3.2.2021,164.9639636
285,"['high', 4]",4,white,135,right,down,high,white_high_135_down,black_high_45_down,11,right,0.0135582,1,11,25,1,FALSE,8,1,1,1,TRUE,FALSE,high_4,0.75,-1,3,,,,,,,,,,,165,6,3.2.2021,164.9639636
286,"['high', 3]",3,white,135,right,up,high,white_high_135_up,black_high_45_up,13,right,0.0250334,1,13,23,0,FALSE,11,1,1,1,TRUE,FALSE,high_3,0.75,-1,3,,,,,,,,,,,165,6,3.2.2021,164.9639636
287,"['high', 6]",6,black,45,right,down,high,black_high_45_down,white_high_135_down,2,left,0.076391,0,2,26,1,FALSE,8,1,1,1,TRUE,FALSE,high_6,0.75,-1,3,,,,,,,,,,,165,6,3.2.2021,164.9639636
288,"['low', 3]",3,black,135,left,down,low,black_low_135_down,white_low_45_down,10,left,0.1788636,1,10,26,0,TRUE,11,1,1,1,TRUE,FALSE,low_3,0.75,-1,3,,,,,,,,,,,165,6,3.2.2021,164.9639636
289,"['low', 4]",4,black,45,right,up,low,black_low_45_up,white_low_135_up,4,left,0.2525558,0,4,25,1,FALSE,8,1,1,1,TRUE,FALSE,low_4,0.75,-1,3,,,,,,,,,,,165,6,3.2.2021,164.9639636
290,"['high', 6]",6,white,45,left,down,high,white_high_45_down,black_high_135_down,5,left,0.2380527,1,5,27,0,TRUE,9,1,1,1,TRUE,FALSE,high_6,0.75,-1,3,,,,,,,,,,,165,6,3.2.2021,164.9639636
291,"['high', 1]",1,white,45,left,down,high,white_high_45_down,black_high_135_down,20,left,0.2409004,1,20,36,1,FALSE,17,1,1,1,TRUE,FALSE,high_1,0.75,-1,3,,,,,,,,,,,165,6,3.2.2021,164.9639636
292,"['low', 1]",1,white,135,right,up,low,white_low_135_up,black_low_45_up,18,right,0.2109823,1,18,30,1,FALSE,14,1,1,1,TRUE,FALSE,low_1,0.75,-1,3,,,,,,,,,,,165,6,3.2.2021,164.9639636
293,"['low', 4]",4,black,45,right,down,low,black_low_45_down,white_low_135_down,7,right,0.249787,1,7,26,0,TRUE,9,1,1,1,TRUE,FALSE,low_4,0.75,-1,3,,,,,,,,,,,165,6,3.2.2021,164.9639636
294,"['high', 4]",4,black,45,right,down,high,black_high_45_down,white_high_135_down,10,left,0.1136255,0,10,26,1,FALSE,8,1,1,1,TRUE,FALSE,high_4,0.75,-1,3,,,,,,,,,,,165,6,3.2.2021,164.9639636
295,"['high', 6]",6,black,135,left,down,high,black_high_135_down,white_high_45_down,4,left,1.209965,1,4,28,1,TRUE,10,1,1,1,TRUE,FALSE,high_6,0.75,-1,3,,,,,,,,,,,165,6,3.2.2021,164.9639636
296,"['low', 2]",2,white,135,right,down,low,white_low_135_down,black_low_45_down,6,right,0.2792088,1,6,26,1,FALSE,11,1,1,1,TRUE,FALSE,low_2,0.75,-1,3,,,,,,,,,,,165,6,3.2.2021,164.9639636
297,"['high', 4]",4,black,135,left,up,high,black_high_135_up,white_high_45_up,13,left,0.2591968,1,13,27,0,TRUE,9,1,1,1,TRUE,FALSE,high_4,0.75,-1,3,,,,,,,,,,,165,6,3.2.2021,164.9639636
298,"['low', 4]",4,black,135,left,down,low,black_low_135_down,white_low_45_down,6,left,0.1419193,1,6,27,1,TRUE,10,1,1,1,TRUE,FALSE,low_4,0.75,-1,3,,,,,,,,,,,165,6,3.2.2021,164.9639636
299,"['low', 1]",1,white,135,right,up,low,white_low_135_up,black_low_45_up,17,right,0.2487505,1,17,31,1,FALSE,14,1,1,1,TRUE,FALSE,low_1,0.75,-1,3,,,,,,,,,,,165,6,3.2.2021,164.9639636
300,"['high', 2]",2,white,45,left,up,high,white_high_45_up,black_high_135_up,24,left,0.1064831,1,24,28,1,TRUE,19,1,1,1,TRUE,FALSE,high_2,0.75,-1,3,,,,,,,,,,,165,6,3.2.2021,164.9639636
301,"['high', 4]",4,black,135,left,up,high,black_high_135_up,white_high_45_up,12,left,0.9668369,1,12,28,1,TRUE,10,1,1,1,TRUE,FALSE,high_4,0.75,-1,3,,,,,,,,,,,165,6,3.2.2021,164.9639636
302,"['low', 4]",4,white,45,left,up,low,white_low_45_up,black_low_135_up,5,left,0.0324783,1,5,28,1,FALSE,10,1,1,1,TRUE,FALSE,low_4,0.75,-1,3,,,,,,,,,,,165,6,3.2.2021,164.9639636
303,"['low', 4]",4,white,45,left,up,low,white_low_45_up,black_low_135_up,4,left,0.540373,1,4,29,1,FALSE,10,1,1,1,TRUE,FALSE,low_4,0.75,-1,3,,,,,,,,,,,165,6,3.2.2021,164.9639636
304,"['low', 6]",6,black,135,left,up,low,black_low_135_up,white_low_45_up,4,left,0.2435201,1,4,40,1,FALSE,15,1,1,1,TRUE,FALSE,low_6,0.75,-1,3,,,,,,,,,,,165,6,3.2.2021,164.9639636
305,"['high', 3]",3,white,135,right,up,high,white_high_135_up,black_high_45_up,12,right,0.2317265,1,12,24,1,TRUE,12,1,1,1,TRUE,FALSE,high_3,0.75,-1,3,,,,,,,,,,,165,6,3.2.2021,164.9639636
306,"['high', 4]",4,white,135,right,down,high,white_high_135_down,black_high_45_down,11,right,0.0320232,1,11,29,1,FALSE,10,1,1,1,TRUE,FALSE,high_4,0.75,-1,3,,,,,,,,,,,165,6,3.2.2021,164.9639636
307,"['low', 6]",6,black,45,right,up,low,black_low_45_up,white_low_135_up,3,left,0.2562635,0,3,41,1,FALSE,15,1,1,1,TRUE,FALSE,low_6,0.75,-1,3,,,,,,,,,,,165,6,3.2.2021,164.9639636
308,"['low', 1]",1,black,45,right,up,low,black_low_45_up,white_low_135_up,16,left,0.2063137,0,16,32,1,FALSE,14,1,1,1,TRUE,FALSE,low_1,0.75,-1,3,,,,,,,,,,,165,6,3.2.2021,164.9639636
309,"['high', 6]",6,black,45,right,down,high,black_high_45_down,white_high_135_down,3,left,0.2187049,0,3,29,1,FALSE,10,1,1,1,TRUE,FALSE,high_6,0.75,-1,3,,,,,,,,,,,165,6,3.2.2021,164.9639636
310,"['high', 6]",6,white,135,right,down,high,white_high_135_down,black_high_45_down,6,left,0.4824578,0,6,30,0,TRUE,11,1,1,1,TRUE,FALSE,high_6,0.75,-1,3,,,,,,,,,,,165,6,3.2.2021,164.9639636
311,"['high', 6]",6,black,135,left,down,high,black_high_135_down,white_high_45_down,9,left,0.2142982,1,9,31,0,FALSE,11,1,1,1,TRUE,FALSE,high_6,0.75,-1,3,,,,,,,,,,,165,6,3.2.2021,164.9639636
312,"['high', 4]",4,white,135,right,down,high,white_high_135_down,black_high_45_down,10,right,0.2194465,1,10,30,1,FALSE,10,1,1,1,TRUE,FALSE,high_4,0.75,-1,3,,,,,,,,,,,165,6,3.2.2021,164.9639636
313,"['low', 6]",6,white,45,left,up,low,white_low_45_up,black_low_135_up,6,left,0.2319976,1,6,42,0,TRUE,16,1,1,1,TRUE,FALSE,low_6,0.75,-1,3,,,,,,,,,,,165,6,3.2.2021,164.9639636
314,"['high', 6]",6,black,45,right,down,high,black_high_45_down,white_high_135_down,8,right,0.0320345,1,8,32,1,TRUE,12,1,1,1,TRUE,FALSE,high_6,0.75,-1,3,,,,,,,,,,,165,6,3.2.2021,164.9639636
315,"['low', 2]",2,white,135,right,down,low,white_low_135_down,black_low_45_down,5,right,0.0991078,1,5,27,1,FALSE,11,1,1,1,TRUE,FALSE,low_2,0.75,-1,3,,,,,,,,,,,165,6,3.2.2021,164.9639636
316,"['low', 6]",6,black,135,left,down,low,black_low_135_down,white_low_45_down,5,right,0.1880652,0,5,43,1,TRUE,17,1,1,1,TRUE,FALSE,low_6,0.75,-1,3,,,,,,,,,,,165,6,3.2.2021,164.9639636
317,"['low', 6]",6,black,45,right,down,low,black_low_45_down,white_low_135_down,8,right,0.5488001,1,8,44,0,TRUE,18,1,1,1,TRUE,FALSE,low_6,0.75,-1,3,,,,,,,,,,,165,6,3.2.2021,164.9639636
318,"['high', 2]",2,white,135,right,down,high,white_high_135_down,black_high_45_down,23,right,0.2266043,1,23,29,1,FALSE,19,1,1,1,TRUE,FALSE,high_2,0.75,-1,3,,,,,,,,,,,165,6,3.2.2021,164.9639636
319,"['low', 2]",2,white,45,left,down,low,white_low_45_down,black_low_135_down,4,left,0.3166166,1,4,28,1,FALSE,11,1,1,1,TRUE,FALSE,low_2,0.75,-1,3,,,,,,,,,,,165,6,3.2.2021,164.9639636
320,"['low', 1]",1,white,135,right,up,low,white_low_135_up,black_low_45_up,19,right,0.3201236,1,19,33,0,TRUE,15,1,1,1,TRUE,FALSE,low_1,0.75,-1,3,,,,,,,,,,,165,6,3.2.2021,164.9639636
321,"['high', 1]",1,white,45,left,up,high,white_high_45_up,black_high_135_up,19,left,0.2688237,1,19,37,1,FALSE,17,1,1,1,TRUE,FALSE,high_1,0.75,-1,3,,,,,,,,,,,165,6,3.2.2021,164.9639636
322,"['high', 6]",6,white,135,right,up,high,white_high_135_up,black_high_45_up,7,right,0.4010279,1,7,33,1,FALSE,12,1,1,1,TRUE,FALSE,high_6,0.75,-1,3,,,,,,,,,,,165,6,3.2.2021,164.9639636
323,"['low', 3]",3,black,135,left,up,low,black_low_135_up,white_low_45_up,9,right,0.227339,0,9,27,1,TRUE,12,1,1,1,TRUE,FALSE,low_3,0.75,-1,3,,,,,,,,,,,165,6,3.2.2021,164.9639636
324,"['low', 3]",3,black,45,right,up,low,black_low_45_up,white_low_135_up,12,right,0.0357612,1,12,28,0,TRUE,13,1,1,1,TRUE,FALSE,low_3,0.75,-1,3,,,,,,,,,,,165,6,3.2.2021,164.9639636
325,"['low', 2]",2,white,45,left,up,low,white_low_45_up,black_low_135_up,3,left,0.2760651,1,3,29,1,FALSE,11,1,1,1,TRUE,FALSE,low_2,0.75,-1,3,,,,,,,,,,,165,6,3.2.2021,164.9639636
326,"['high', 3]",3,white,135,right,up,high,white_high_135_up,black_high_45_up,11,right,0.1513976,1,11,25,1,FALSE,12,1,1,1,TRUE,FALSE,high_3,0.75,-1,3,,,,,,,,,,,165,6,3.2.2021,164.9639636
327,"['high', 2]",2,white,45,left,up,high,white_high_45_up,black_high_135_up,22,left,0.2214393,1,22,30,1,FALSE,19,1,1,1,TRUE,FALSE,high_2,0.75,-1,3,,,,,,,,,,,165,6,3.2.2021,164.9639636
328,"['high', 4]",4,black,135,left,up,high,black_high_135_up,white_high_45_up,9,left,0.6959535,1,9,31,1,FALSE,10,1,1,1,TRUE,FALSE,high_4,0.75,-1,3,,,,,,,,,,,165,6,3.2.2021,164.9639636
329,"['high', 4]",4,white,135,right,up,high,white_high_135_up,black_high_45_up,8,right,0.2208205,1,8,32,1,FALSE,10,1,1,1,TRUE,FALSE,high_4,0.75,-1,3,,,,,,,,,,,165,6,3.2.2021,164.9639636
330,"['low', 3]",3,white,45,left,down,low,white_low_45_down,black_low_135_down,11,left,0.1851075,1,11,29,1,TRUE,14,1,1,1,TRUE,FALSE,low_3,0.75,-1,3,,,,,,,,,,,165,6,3.2.2021,164.9639636
331,"['low', 2]",2,black,45,right,down,low,black_low_45_down,white_low_135_down,2,left,0.2136795,0,2,30,1,FALSE,11,1,1,1,TRUE,FALSE,low_2,0.75,-1,3,,,,,,,,,,,165,6,3.2.2021,164.9639636
332,"['high', 6]",6,black,135,left,up,high,black_high_135_up,white_high_45_up,6,left,0.2106992,1,6,34,1,FALSE,12,1,1,1,TRUE,FALSE,high_6,0.75,-1,3,,,,,,,,,,,165,6,3.2.2021,164.9639636
333,"['low', 3]",3,white,45,left,down,low,white_low_45_down,black_low_135_down,10,left,0.3558196,1,10,30,1,FALSE,14,1,1,1,TRUE,FALSE,low_3,0.75,-1,3,,,,,,,,,,,165,6,3.2.2021,164.9639636
334,"['low', 3]",3,white,135,right,down,low,white_low_135_down,black_low_45_down,9,right,0.2370451,1,9,31,1,FALSE,14,1,1,1,TRUE,FALSE,low_3,0.75,-1,3,,,,,,,,,,,165,6,3.2.2021,164.9639636
335,"['high', 4]",4,white,45,left,up,high,white_high_45_up,black_high_135_up,7,left,0.2079428,1,7,33,1,FALSE,10,1,1,1,TRUE,FALSE,high_4,0.75,-1,3,,,,,,,,,,,165,6,3.2.2021,164.9639636
336,"['low', 3]",3,white,135,right,up,low,white_low_135_up,black_low_45_up,8,right,0.1006887,1,8,32,1,FALSE,14,1,1,1,TRUE,FALSE,low_3,0.75,-1,3,,,,,,,,,,,165,6,3.2.2021,164.9639636
337,"['high', 3]",3,white,45,left,up,high,white_high_45_up,black_high_135_up,10,left,0.0872294,1,10,26,1,FALSE,12,1,1,1,TRUE,FALSE,high_3,0.75,-1,3,,,,,,,,,,,165,6,3.2.2021,164.9639636
338,"['low', 2]",2,black,135,left,down,low,black_low_135_down,white_low_45_down,5,left,0.1015512,1,5,31,0,TRUE,12,1,1,1,TRUE,FALSE,low_2,0.75,-1,3,,,,,,,,,,,165,6,3.2.2021,164.9639636
339,"['high', 6]",6,white,45,left,down,high,white_high_45_down,black_high_135_down,5,left,0.1800586,1,5,35,1,FALSE,12,1,1,1,TRUE,FALSE,high_6,0.75,-1,3,,,,,,,,,,,165,6,3.2.2021,164.9639636
340,"['high', 6]",6,white,45,left,down,high,white_high_45_down,black_high_135_down,4,left,0.1744352,1,4,36,1,FALSE,12,1,1,1,TRUE,FALSE,high_6,0.75,-1,3,,,,,,,,,,,165,6,3.2.2021,164.9639636
341,"['low', 4]",4,black,135,left,down,low,black_low_135_down,white_low_45_down,3,left,0.1559436,1,3,30,1,FALSE,10,1,1,1,TRUE,FALSE,low_4,0.75,-1,3,,,,,,,,,,,165,6,3.2.2021,164.9639636
342,"['high', 3]",3,white,135,right,up,high,white_high_135_up,black_high_45_up,9,right,0.2037379,1,9,27,1,FALSE,12,1,1,1,TRUE,FALSE,high_3,0.75,-1,3,,,,,,,,,,,165,6,3.2.2021,164.9639636
343,"['low', 2]",2,black,135,left,down,low,black_low_135_down,white_low_45_down,4,left,0.1294025,1,4,32,1,TRUE,13,1,1,1,TRUE,FALSE,low_2,0.75,-1,3,,,,,,,,,,,165,6,3.2.2021,164.9639636
344,"['low', 1]",1,white,135,right,up,low,white_low_135_up,black_low_45_up,18,right,0.2129576,1,18,34,1,TRUE,16,1,1,1,TRUE,FALSE,low_1,0.75,-1,3,,,,,,,,,,,165,6,3.2.2021,164.9639636
345,"['high', 3]",3,black,45,right,down,high,black_high_45_down,white_high_135_down,8,left,0.1500666,0,8,28,1,FALSE,12,1,1,1,TRUE,FALSE,high_3,0.75,-1,3,,,,,,,,,,,165,6,3.2.2021,164.9639636
346,"['low', 1]",1,black,45,right,up,low,black_low_45_up,white_low_135_up,17,right,0.2102525,1,17,35,1,FALSE,16,1,1,1,TRUE,FALSE,low_1,0.75,-1,3,,,,,,,,,,,165,6,3.2.2021,164.9639636
347,"['low', 4]",4,black,135,left,down,low,black_low_135_down,white_low_45_down,2,left,0.3889326,1,2,31,1,FALSE,10,1,1,1,TRUE,FALSE,low_4,0.75,-1,3,,,,,,,,,,,165,6,3.2.2021,164.9639636
348,"['low', 1]",1,black,135,left,up,low,black_low_135_up,white_low_45_up,16,right,0.1499322,0,16,36,1,FALSE,16,1,1,1,TRUE,FALSE,low_1,0.75,-1,3,,,,,,,,,,,165,6,3.2.2021,164.9639636
349,"['high', 6]",6,white,135,right,up,high,white_high_135_up,black_high_45_up,3,left,0.2188806,0,3,37,1,FALSE,12,1,1,1,TRUE,FALSE,high_6,0.75,-1,3,,,,,,,,,,,165,6,3.2.2021,164.9639636
350,"['high', 1]",1,white,135,right,up,high,white_high_135_up,black_high_45_up,18,right,0.208831,1,18,38,1,FALSE,17,1,1,1,TRUE,FALSE,high_1,0.75,-1,3,,,,,,,,,,,165,6,3.2.2021,164.9639636
351,"['high', 3]",3,black,45,right,down,high,black_high_45_down,white_high_135_down,11,left,0.0593987,0,11,29,0,TRUE,13,1,1,1,TRUE,FALSE,high_3,0.75,-1,3,,,,,,,,,,,165,6,3.2.2021,164.9639636
352,"['low', 1]",1,white,135,right,down,low,white_low_135_down,black_low_45_down,19,right,0.1844268,1,19,37,0,TRUE,17,1,1,1,TRUE,FALSE,low_1,0.75,-1,3,,,,,,,,,,,165,6,3.2.2021,164.9639636
353,"['low', 1]",1,white,45,left,down,low,white_low_45_down,black_low_135_down,18,left,0.2025475,1,18,38,1,TRUE,18,1,1,1,TRUE,FALSE,low_1,0.75,-1,3,,,,,,,,,,,165,6,3.2.2021,164.9639636
354,"['high', 6]",6,white,135,right,up,high,white_high_135_up,black_high_45_up,6,right,0.0995535,1,6,38,0,TRUE,13,1,1,1,TRUE,FALSE,high_6,0.75,-1,3,,,,,,,,,,,165,6,3.2.2021,164.9639636
355,"['low', 2]",2,black,135,left,down,low,black_low_135_down,white_low_45_down,3,left,0.4752064,1,3,33,1,FALSE,13,1,1,1,TRUE,FALSE,low_2,0.75,-1,3,,,,,,,,,,,165,6,3.2.2021,164.9639636
356,"['high', 1]",1,black,135,left,down,high,black_high_135_down,white_high_45_down,17,left,0.2716021,1,17,39,1,FALSE,17,1,1,1,TRUE,FALSE,high_1,0.75,-1,3,,,,,,,,,,,165,6,3.2.2021,164.9639636
357,"['high', 3]",3,black,45,right,down,high,black_high_45_down,white_high_135_down,14,right,0.1776858,1,14,30,0,FALSE,13,1,1,1,TRUE,FALSE,high_3,0.75,-1,3,,,,,,,,,,,165,6,3.2.2021,164.9639636
358,"['low', 1]",1,white,45,left,down,low,white_low_45_down,black_low_135_down,17,left,0.2324696,1,17,39,1,FALSE,18,1,1,1,TRUE,FALSE,low_1,0.75,-1,3,,,,,,,,,,,165,6,3.2.2021,164.9639636
359,"['low', 2]",2,black,45,right,up,low,black_low_45_up,white_low_135_up,2,right,0.1327604,1,2,34,1,FALSE,13,1,1,1,TRUE,FALSE,low_2,0.75,-1,3,,,,,,,,,,,165,6,3.2.2021,164.9639636
360,"['high', 4]",4,black,135,left,up,high,black_high_135_up,white_high_45_up,6,right,0.3641878,0,6,34,1,FALSE,10,1,1,1,TRUE,FALSE,high_4,0.75,-1,3,,,,,,,,,,,165,6,3.2.2021,164.9639636
361,"['high', 3]",3,white,135,right,up,high,white_high_135_up,black_high_45_up,13,right,0.0326877,1,13,31,1,TRUE,14,1,1,1,TRUE,FALSE,high_3,0.75,-1,3,,,,,,,,,,,165,6,3.2.2021,164.9639636
362,"['high', 2]",2,black,45,right,down,high,black_high_45_down,white_high_135_down,21,right,0.7549934,1,21,31,1,FALSE,19,1,1,1,TRUE,FALSE,high_2,0.75,-1,3,,,,,,,,,,,165,6,3.2.2021,164.9639636
363,"['low', 2]",2,black,135,left,down,low,black_low_135_down,white_low_45_down,1,right,0.2736965,0,1,35,1,FALSE,13,1,1,1,TRUE,FALSE,low_2,0.75,-1,3,,,,,,,,,,,165,6,3.2.2021,164.9639636
364,"['low', 1]",1,white,45,left,down,low,white_low_45_down,black_low_135_down,16,left,0.0573496,1,16,40,1,FALSE,18,1,1,1,TRUE,FALSE,low_1,0.75,-1,3,,,,,,,,,,,165,6,3.2.2021,164.9639636
365,"['high', 1]",1,white,45,left,down,high,white_high_45_down,black_high_135_down,16,left,0.308251,1,16,40,1,FALSE,17,1,1,1,TRUE,FALSE,high_1,0.75,-1,3,,,,,,,,,,,165,6,3.2.2021,164.9639636
366,"['high', 2]",2,white,45,left,down,high,white_high_45_down,black_high_135_down,20,left,0.2340019,1,20,32,1,FALSE,19,1,1,1,TRUE,FALSE,high_2,0.75,-1,3,,,,,,,,,,,165,6,3.2.2021,164.9639636
367,"['high', 6]",6,black,135,left,down,high,black_high_135_down,white_high_45_down,5,left,0.7855617,1,5,39,1,TRUE,14,1,1,1,TRUE,FALSE,high_6,0.75,-1,3,,,,,,,,,,,165,6,3.2.2021,164.9639636
368,"['high', 1]",1,black,135,left,down,high,black_high_135_down,white_high_45_down,15,right,0.1928356,0,15,41,1,FALSE,17,1,1,1,TRUE,FALSE,high_1,0.75,-1,3,,,,,,,,,,,165,6,3.2.2021,164.9639636
369,"['high', 6]",6,white,45,left,up,high,white_high_45_up,black_high_135_up,4,left,0.2893451,1,4,40,1,FALSE,14,1,1,1,TRUE,FALSE,high_6,0.75,-1,3,,,,,,,,,,,165,6,3.2.2021,164.9639636
370,"['low', 4]",4,black,45,right,down,low,black_low_45_down,white_low_135_down,1,right,0.2007028,1,1,32,1,FALSE,10,1,1,1,TRUE,FALSE,low_4,0.75,-1,3,,,,,,,,,,,165,6,3.2.2021,164.9639636
371,"['high', 2]",2,white,45,left,down,high,white_high_45_down,black_high_135_down,19,left,0.1774797,1,19,33,1,FALSE,19,1,1,1,TRUE,FALSE,high_2,0.75,-1,3,,,,,,,,,,,165,6,3.2.2021,164.9639636
372,"['high', 4]",4,white,135,right,down,high,white_high_135_down,black_high_45_down,9,right,0.4037535,1,9,35,0,TRUE,11,1,1,1,TRUE,FALSE,high_4,0.75,-1,3,,,,,,,,,,,165,6,3.2.2021,164.9639636
373,"['low', 1]",1,white,135,right,up,low,white_low_135_up,black_low_45_up,15,right,0.1533375,1,15,41,1,FALSE,18,1,1,1,TRUE,FALSE,low_1,0.75,-1,3,,,,,,,,,,,165,6,3.2.2021,164.9639636
374,"['low', 2]",2,white,135,right,up,low,white_low_135_up,black_low_45_up,4,right,0.1727772,1,4,36,0,TRUE,14,1,1,1,TRUE,FALSE,low_2,0.75,-1,3,,,,,,,,,,,165,6,3.2.2021,164.9639636
375,"['high', 2]",2,white,135,right,down,high,white_high_135_down,black_high_45_down,18,right,0.1076616,1,18,34,1,FALSE,19,1,1,1,TRUE,FALSE,high_2,0.75,-1,3,,,,,,,,,,,165,6,3.2.2021,164.9639636
376,"['high', 2]",2,white,135,right,down,high,white_high_135_down,black_high_45_down,17,right,0.5564427,1,17,35,1,FALSE,19,1,1,1,TRUE,FALSE,high_2,0.75,-1,3,,,,,,,,,,,165,6,3.2.2021,164.9639636
377,"['high', 4]",4,white,135,right,down,high,white_high_135_down,black_high_45_down,8,right,0.1021465,1,8,36,1,TRUE,12,1,1,1,TRUE,FALSE,high_4,0.75,-1,3,,,,,,,,,,,165,6,3.2.2021,164.9639636
378,"['high', 1]",1,white,45,left,up,high,white_high_45_up,black_high_135_up,18,left,0.1735985,1,18,42,0,TRUE,18,1,1,1,TRUE,FALSE,high_1,0.75,-1,3,,,,,,,,,,,165,6,3.2.2021,164.9639636
379,"['low', 3]",3,black,45,right,down,low,black_low_45_down,white_low_135_down,7,right,0.2571,1,7,33,1,FALSE,14,1,1,1,TRUE,FALSE,low_3,0.75,-1,3,,,,,,,,,,,165,6,3.2.2021,164.9639636
380,"['high', 4]",4,white,45,left,up,high,white_high_45_up,black_high_135_up,7,left,0.279335,1,7,37,1,FALSE,12,1,1,1,TRUE,FALSE,high_4,0.75,-1,3,,,,,,,,,,,165,6,3.2.2021,164.9639636
381,"['high', 3]",3,white,45,left,down,high,white_high_45_down,black_high_135_down,12,left,0.0132176,1,12,32,1,FALSE,14,1,1,1,TRUE,FALSE,high_3,0.75,-1,3,,,,,,,,,,,165,6,3.2.2021,164.9639636
382,"['high', 6]",6,black,45,right,down,high,black_high_45_down,white_high_135_down,3,left,0.6840219,0,3,41,1,FALSE,14,1,1,1,TRUE,FALSE,high_6,0.75,-1,3,,,,,,,,,,,165,6,3.2.2021,164.9639636
383,"['high', 4]",4,black,45,right,down,high,black_high_45_down,white_high_135_down,6,left,0.2049107,0,6,38,1,FALSE,12,1,1,1,TRUE,FALSE,high_4,0.75,-1,3,,,,,,,,,,,165,6,3.2.2021,164.9639636
384,"['high', 2]",2,black,135,left,up,high,black_high_135_up,white_high_45_up,16,left,0.1423816,1,16,36,1,FALSE,19,1,1,1,TRUE,FALSE,high_2,0.75,-1,3,,,,,,,,,,,165,6,3.2.2021,164.9639636
385,"['low', 3]",3,black,45,right,down,low,black_low_45_down,white_low_135_down,6,right,0.2795769,1,6,34,1,FALSE,14,1,1,1,TRUE,FALSE,low_3,0.75,-1,3,,,,,,,,,,,165,6,3.2.2021,164.9639636
386,"['high', 2]",2,white,45,left,up,high,white_high_45_up,black_high_135_up,15,left,0.1783264,1,15,37,1,FALSE,19,1,1,1,TRUE,FALSE,high_2,0.75,-1,3,,,,,,,,,,,165,6,3.2.2021,164.9639636
387,"['high', 6]",6,white,45,left,up,high,white_high_45_up,black_high_135_up,6,left,0.0791302,1,6,42,0,TRUE,15,1,1,1,TRUE,FALSE,high_6,0.75,-1,3,,,,,,,,,,,165,6,3.2.2021,164.9639636
388,"['low', 2]",2,black,45,right,down,low,black_low_45_down,white_low_135_down,3,right,0.2238431,1,3,37,1,TRUE,15,1,1,1,TRUE,FALSE,low_2,0.75,-1,3,,,,,,,,,,,165,6,3.2.2021,164.9639636
389,"['low', 3]",3,white,135,right,down,low,white_low_135_down,black_low_45_down,5,right,0.1843413,1,5,35,1,FALSE,14,1,1,1,TRUE,FALSE,low_3,0.75,-1,3,,,,,,,,,,,165,6,3.2.2021,164.9639636
390,"['low', 4]",4,black,45,right,down,low,black_low_45_down,white_low_135_down,1,right,0.1527473,1,1,33,1,FALSE,10,1,1,1,TRUE,FALSE,low_4,0.75,-1,3,,,,,,,,,,,165,6,3.2.2021,164.9639636
391,"['low', 6]",6,white,45,left,down,low,white_low_45_down,black_low_135_down,7,left,0.2798458,1,7,45,1,TRUE,19,1,1,1,TRUE,FALSE,low_6,0.75,-1,3,,,,,,,,,,,165,6,3.2.2021,164.9639636
392,"['low', 6]",6,white,135,right,up,low,white_low_135_up,black_low_45_up,6,right,0.0926875,1,6,46,1,FALSE,19,1,1,1,TRUE,FALSE,low_6,0.75,-1,3,,,,,,,,,,,165,6,3.2.2021,164.9639636
393,"['low', 4]",4,white,45,left,down,low,white_low_45_down,black_low_135_down,1,right,0.2402817,0,1,34,1,FALSE,10,1,1,1,TRUE,FALSE,low_4,0.75,-1,3,,,,,,,,,,,165,6,3.2.2021,164.9639636
394,"['high', 2]",2,black,45,right,up,high,black_high_45_up,white_high_135_up,14,left,0.1998175,0,14,38,1,FALSE,19,1,1,1,TRUE,FALSE,high_2,0.75,-1,3,,,,,,,,,,,165,6,3.2.2021,164.9639636
395,"['high', 4]",4,black,135,left,down,high,black_high_135_down,white_high_45_down,9,left,0.1358988,1,9,39,0,TRUE,13,1,1,1,TRUE,FALSE,high_4,0.75,-1,3,,,,,,,,,,,165,6,3.2.2021,164.9639636
396,"['low', 2]",2,black,45,right,up,low,black_low_45_up,white_low_135_up,2,right,0.3391489,1,2,38,1,FALSE,15,1,1,1,TRUE,FALSE,low_2,0.75,-1,3,,,,,,,,,,,165,6,3.2.2021,164.9639636
397,"['low', 4]",4,black,135,left,down,low,black_low_135_down,white_low_45_down,4,left,0.1833164,1,4,35,0,TRUE,11,1,1,1,TRUE,FALSE,low_4,0.75,-1,3,,,,,,,,,,,165,6,3.2.2021,164.9639636
398,"['low', 4]",4,black,135,left,down,low,black_low_135_down,white_low_45_down,3,left,0.1386084,1,3,36,1,TRUE,12,1,1,1,TRUE,FALSE,low_4,0.75,-1,3,,,,,,,,,,,165,6,3.2.2021,164.9639636
399,"['low', 4]",4,black,135,left,down,low,black_low_135_down,white_low_45_down,2,left,0.0611913,1,2,37,1,FALSE,12,1,1,1,TRUE,FALSE,low_4,0.75,-1,3,,,,,,,,,,,165,6,3.2.2021,164.9639636
400,"['low', 2]",2,black,45,right,up,low,black_low_45_up,white_low_135_up,1,right,0.517573,1,1,39,1,FALSE,15,1,1,1,TRUE,FALSE,low_2,0.75,-1,3,,,,,,,,,,,165,6,3.2.2021,164.9639636
401,"['high', 6]",6,white,45,left,down,high,white_high_45_down,black_high_135_down,5,left,0.2229376,1,5,43,1,TRUE,16,1,1,1,TRUE,FALSE,high_6,0.75,-1,3,,,,,,,,,,,165,6,3.2.2021,164.9639636
402,"['low', 6]",6,black,45,right,down,low,black_low_45_down,white_low_135_down,5,right,0.1318327,1,5,47,1,FALSE,19,1,1,1,TRUE,FALSE,low_6,0.75,-1,3,,,,,,,,,,,165,6,3.2.2021,164.9639636
403,"['low', 2]",2,black,135,left,down,low,black_low_135_down,white_low_45_down,1,right,0.1005538,0,1,40,1,FALSE,15,1,1,1,TRUE,FALSE,low_2,0.75,-1,3,,,,,,,,,,,165,6,3.2.2021,164.9639636
404,"['high', 1]",1,black,45,right,down,high,black_high_45_down,white_high_135_down,17,left,0.5345081,0,17,43,1,TRUE,19,1,1,1,TRUE,FALSE,high_1,0.75,-1,3,,,,,,,,,,,165,6,3.2.2021,164.9639636
405,"['high', 4]",4,white,45,left,down,high,white_high_45_down,black_high_135_down,8,left,0.2077742,1,8,40,1,TRUE,14,1,1,1,TRUE,FALSE,high_4,0.75,-1,3,,,,,,,,,,,165,6,3.2.2021,164.9639636
406,"['high', 6]",6,white,45,left,up,high,white_high_45_up,black_high_135_up,4,left,0.154635,1,4,44,1,FALSE,16,1,1,1,TRUE,FALSE,high_6,0.75,-1,3,,,,,,,,,,,165,6,3.2.2021,164.9639636
407,"['high', 4]",4,white,45,left,down,high,white_high_45_down,black_high_135_down,7,left,0.1111112,1,7,41,1,FALSE,14,1,1,1,TRUE,FALSE,high_4,0.75,-1,3,,,,,,,,,,,165,6,3.2.2021,164.9639636
408,"['low', 4]",4,black,45,right,down,low,black_low_45_down,white_low_135_down,1,left,0.1794917,0,1,38,1,FALSE,12,1,1,1,TRUE,FALSE,low_4,0.75,-1,3,,,,,,,,,,,165,6,3.2.2021,164.9639636
409,"['high', 4]",4,black,45,right,down,high,black_high_45_down,white_high_135_down,6,left,0.713906,0,6,42,1,FALSE,14,1,1,1,TRUE,FALSE,high_4,0.75,-1,3,,,,,,,,,,,165,6,3.2.2021,164.9639636
410,"['low', 3]",3,black,45,right,down,low,black_low_45_down,white_low_135_down,4,left,0.1861704,0,4,36,1,FALSE,14,1,1,1,TRUE,FALSE,low_3,0.75,-1,3,,,,,,,,,,,165,6,3.2.2021,164.9639636
411,"['high', 3]",3,black,135,left,down,high,black_high_135_down,white_high_45_down,11,left,0.1006985,1,11,33,1,FALSE,14,1,1,1,TRUE,FALSE,high_3,0.75,-1,3,,,,,,,,,,,165,6,3.2.2021,164.9639636
412,"['low', 6]",6,black,45,right,up,low,black_low_45_up,white_low_135_up,4,left,0.1298758,0,4,48,1,FALSE,19,1,1,1,TRUE,FALSE,low_6,0.75,-1,3,,,,,,,,,,,165,6,3.2.2021,164.9639636
413,"['high', 1]",1,white,135,right,up,high,white_high_135_up,black_high_45_up,20,right,0.1322233,1,20,44,0,TRUE,20,1,1,1,TRUE,FALSE,high_1,0.75,-1,3,,,,,,,,,,,165,6,3.2.2021,164.9639636
414,"['high', 6]",6,white,45,left,down,high,white_high_45_down,black_high_135_down,3,left,0.7991219,1,3,45,1,FALSE,16,1,1,1,TRUE,FALSE,high_6,0.75,-1,3,,,,,,,,,,,165,6,3.2.2021,164.9639636
415,"['low', 1]",1,white,45,left,up,low,white_low_45_up,black_low_135_up,14,left,0.2163863,1,14,42,1,FALSE,18,1,1,1,TRUE,FALSE,low_1,0.75,-1,3,,,,,,,,,,,165,6,3.2.2021,164.9639636
416,"['low', 6]",6,black,45,right,down,low,black_low_45_down,white_low_135_down,7,left,0.2162979,0,7,49,0,TRUE,20,1,1,1,TRUE,FALSE,low_6,0.75,-1,3,,,,,,,,,,,165,6,3.2.2021,164.9639636
417,"['high', 3]",3,white,45,left,down,high,white_high_45_down,black_high_135_down,10,left,0.1878624,1,10,34,1,FALSE,14,1,1,1,TRUE,FALSE,high_3,0.75,-1,3,,,,,,,,,,,165,6,3.2.2021,164.9639636
418,"['high', 4]",4,black,135,left,down,high,black_high_135_down,white_high_45_down,9,left,0.683225,1,9,43,0,TRUE,15,1,1,1,TRUE,FALSE,high_4,0.75,-1,3,,,,,,,,,,,165,6,3.2.2021,164.9639636
419,"['low', 1]",1,black,135,left,up,low,black_low_135_up,white_low_45_up,13,right,0.2695093,0,13,43,1,FALSE,18,1,1,1,TRUE,FALSE,low_1,0.75,-1,3,,,,,,,,,,,165,6,3.2.2021,164.9639636
420,"['low', 4]",4,white,45,left,up,low,white_low_45_up,black_low_135_up,4,left,0.2226654,1,4,39,0,TRUE,13,1,1,1,TRUE,FALSE,low_4,0.75,-1,3,,,,,,,,,,,165,6,3.2.2021,164.9639636
421,"['low', 1]",1,black,45,right,down,low,black_low_45_down,white_low_135_down,16,left,0.1874723,0,16,44,0,TRUE,19,1,1,1,TRUE,FALSE,low_1,0.75,-1,3,,,,,,,,,,,165,6,3.2.2021,164.9639636
422,"['high', 3]",3,black,45,right,down,high,black_high_45_down,white_high_135_down,9,left,0.1602956,0,9,35,1,FALSE,14,1,1,1,TRUE,FALSE,high_3,0.75,-1,3,,,,,,,,,,,165,6,3.2.2021,164.9639636
423,"['high', 2]",2,white,45,left,up,high,white_high_45_up,black_high_135_up,17,left,0.2310654,1,17,39,0,TRUE,20,1,1,1,TRUE,FALSE,high_2,0.75,-1,3,,,,,,,,,,,165,6,3.2.2021,164.9639636
424,"['high', 6]",6,black,135,left,down,high,black_high_135_down,white_high_45_down,2,left,0.2160921,1,2,46,1,FALSE,16,1,1,1,TRUE,FALSE,high_6,0.75,-1,3,,,,,,,,,,,165,6,3.2.2021,164.9639636
425,"['low', 1]",1,white,45,left,up,low,white_low_45_up,black_low_135_up,19,left,0.244698,1,19,45,0,FALSE,19,1,1,1,TRUE,FALSE,low_1,0.75,-1,3,,,,,,,,,,,165,6,3.2.2021,164.9639636
426,"['low', 4]",4,black,135,left,down,low,black_low_135_down,white_low_45_down,3,left,0.2345518,1,3,40,1,TRUE,14,1,1,1,TRUE,FALSE,low_4,0.75,-1,3,,,,,,,,,,,165,6,3.2.2021,164.9639636
427,"['high', 1]",1,black,135,left,down,high,black_high_135_down,white_high_45_down,19,right,0.1892409,0,19,45,1,TRUE,21,1,1,1,TRUE,FALSE,high_1,0.75,-1,3,,,,,,,,,,,165,6,3.2.2021,164.9639636
428,"['low', 3]",3,white,135,right,up,low,white_low_135_up,black_low_45_up,7,right,0.1845787,1,7,37,0,TRUE,15,1,1,1,TRUE,FALSE,low_3,0.75,-1,3,,,,,,,,,,,165,6,3.2.2021,164.9639636
429,"['low', 3]",3,black,45,right,down,low,black_low_45_down,white_low_135_down,6,right,0.2337301,1,6,38,1,TRUE,16,1,1,1,TRUE,FALSE,low_3,0.75,-1,3,,,,,,,,,,,165,6,3.2.2021,164.9639636
430,"['low', 1]",1,black,45,right,down,low,black_low_45_down,white_low_135_down,18,left,0.1898043,0,18,46,1,TRUE,20,1,1,1,TRUE,FALSE,low_1,0.75,-1,3,,,,,,,,,,,165,6,3.2.2021,164.9639636
431,"['high', 3]",3,white,45,left,down,high,white_high_45_down,black_high_135_down,12,left,0.295111,1,12,36,0,TRUE,15,1,1,1,TRUE,FALSE,high_3,0.75,-1,3,,,,,,,,,,,165,6,3.2.2021,164.9639636
432,"['low', 6]",6,white,135,right,up,low,white_low_135_up,black_low_45_up,10,right,0.1673797,1,10,50,0,FALSE,20,1,1,1,TRUE,FALSE,low_6,0.75,-1,3,,,,,,,,,,,165,6,3.2.2021,164.9639636
433,"['low', 3]",3,black,135,left,down,low,black_low_135_down,white_low_45_down,5,right,0.2383469,0,5,39,1,FALSE,16,1,1,1,TRUE,FALSE,low_3,0.75,-1,3,,,,,,,,,,,165,6,3.2.2021,164.9639636
434,"['high', 2]",2,black,135,left,up,high,black_high_135_up,white_high_45_up,16,left,0.230755,1,16,40,1,TRUE,21,1,1,1,TRUE,FALSE,high_2,0.75,-1,3,,,,,,,,,,,165,6,3.2.2021,164.9639636
435,"['high', 2]",2,black,135,left,down,high,black_high_135_down,white_high_45_down,15,right,0.3754609,0,15,41,1,FALSE,21,1,1,1,TRUE,FALSE,high_2,0.75,-1,3,,,,,,,,,,,165,6,3.2.2021,164.9639636
436,"['low', 1]",1,black,45,right,down,low,black_low_45_down,white_low_135_down,21,left,0.4164998,0,21,47,0,TRUE,21,1,1,1,TRUE,FALSE,low_1,0.75,-1,3,,,,,,,,,,,165,6,3.2.2021,164.9639636
437,"['high', 4]",4,black,135,left,up,high,black_high_135_up,white_high_45_up,8,left,0.1823195,1,8,44,1,TRUE,16,1,1,1,TRUE,FALSE,high_4,0.75,-1,3,,,,,,,,,,,165,6,3.2.2021,164.9639636
438,"['high', 1]",1,black,45,right,down,high,black_high_45_down,white_high_135_down,22,right,0.1424304,1,22,46,0,TRUE,22,1,1,1,TRUE,FALSE,high_1,0.75,-1,3,,,,,,,,,,,165,6,3.2.2021,164.9639636
439,"['low', 1]",1,white,135,right,up,low,white_low_135_up,black_low_45_up,24,right,0.2246852,1,24,48,0,FALSE,21,1,1,1,TRUE,FALSE,low_1,0.75,-1,3,,,,,,,,,,,165,6,3.2.2021,164.9639636
440,"['low', 3]",3,white,135,right,up,low,white_low_135_up,black_low_45_up,8,right,0.1477385,1,8,40,0,TRUE,17,1,1,1,TRUE,FALSE,low_3,0.75,-1,3,,,,,,,,,,,165,6,3.2.2021,164.9639636
441,"['low', 4]",4,white,135,right,down,low,white_low_135_down,black_low_45_down,2,right,0.0382372,1,2,41,1,FALSE,14,1,1,1,TRUE,FALSE,low_4,0.75,-1,3,,,,,,,,,,,165,6,3.2.2021,164.9639636
442,"['high', 3]",3,black,135,left,down,high,black_high_135_down,white_high_45_down,11,right,1.0334616,0,11,37,1,TRUE,16,1,1,1,TRUE,FALSE,high_3,0.75,-1,3,,,,,,,,,,,165,6,3.2.2021,164.9639636
443,"['low', 1]",1,black,45,right,up,low,black_low_45_up,white_low_135_up,23,left,0.2462256,0,23,49,1,TRUE,22,1,1,1,TRUE,FALSE,low_1,0.75,-1,3,,,,,,,,,,,165,6,3.2.2021,164.9639636
444,"['low', 6]",6,black,135,left,down,low,black_low_135_down,white_low_45_down,9,left,0.0601829,1,9,51,1,TRUE,21,1,1,1,TRUE,FALSE,low_6,0.75,-1,3,,,,,,,,,,,165,6,3.2.2021,164.9639636
445,"['low', 4]",4,black,45,right,down,low,black_low_45_down,white_low_135_down,1,right,0.1689354,1,1,42,1,FALSE,14,1,1,1,TRUE,FALSE,low_4,0.75,-1,3,,,,,,,,,,,165,6,3.2.2021,164.9639636
446,"['low', 4]",4,black,45,right,up,low,black_low_45_up,white_low_135_up,1,right,0.1559658,1,1,43,1,FALSE,14,1,1,1,TRUE,FALSE,low_4,0.75,-1,3,,,,,,,,,,,165,6,3.2.2021,164.9639636
447,"['low', 3]",3,black,135,left,down,low,black_low_135_down,white_low_45_down,7,left,0.0984791,1,7,41,1,TRUE,18,1,1,1,TRUE,FALSE,low_3,0.75,-1,3,,,,,,,,,,,165,6,3.2.2021,164.9639636
448,"['low', 3]",3,white,45,left,down,low,white_low_45_down,black_low_135_down,6,left,0.0562419,1,6,42,1,FALSE,18,1,1,1,TRUE,FALSE,low_3,0.75,-1,3,,,,,,,,,,,165,6,3.2.2021,164.9639636
449,"['low', 3]",3,white,45,left,down,low,white_low_45_down,black_low_135_down,5,left,0.0621733,1,5,43,1,FALSE,18,1,1,1,TRUE,FALSE,low_3,0.75,-1,3,,,,,,,,,,,165,6,3.2.2021,164.9639636
450,"['low', 3]",3,black,45,right,down,low,black_low_45_down,white_low_135_down,4,right,0.0265819,1,4,44,1,FALSE,18,1,1,1,TRUE,FALSE,low_3,0.75,-1,3,,,,,,,,,,,165,6,3.2.2021,164.9639636
451,"['high', 3]",3,white,45,left,down,high,white_high_45_down,black_high_135_down,14,left,0.6886029,1,14,38,0,TRUE,17,1,1,1,TRUE,FALSE,high_3,0.75,-1,3,,,,,,,,,,,165,6,3.2.2021,164.9639636
452,"['high', 3]",3,white,135,right,down,high,white_high_135_down,black_high_45_down,13,right,0.1080038,1,13,39,1,TRUE,18,1,1,1,TRUE,FALSE,high_3,0.75,-1,3,,,,,,,,,,,165,6,3.2.2021,164.9639636
453,"['low', 2]",2,white,45,left,down,low,white_low_45_down,black_low_135_down,4,left,0.190345,1,4,41,0,TRUE,16,1,1,1,TRUE,FALSE,low_2,0.75,-1,3,,,,,,,,,,,165,6,3.2.2021,164.9639636
454,"['high', 6]",6,black,45,right,up,high,black_high_45_up,white_high_135_up,1,left,0.2201387,0,1,47,1,FALSE,16,1,1,1,TRUE,FALSE,high_6,0.75,-1,3,,,,,,,,,,,165,6,3.2.2021,164.9639636
455,"['high', 6]",6,black,45,right,down,high,black_high_45_down,white_high_135_down,4,left,0.4980823,0,4,48,0,TRUE,17,1,1,1,TRUE,FALSE,high_6,0.75,-1,3,,,,,,,,,,,165,6,3.2.2021,164.9639636
456,"['low', 2]",2,black,45,right,up,low,black_low_45_up,white_low_135_up,3,right,0.2440918,1,3,42,1,TRUE,17,1,1,1,TRUE,FALSE,low_2,0.75,-1,3,,,,,,,,,,,165,6,3.2.2021,164.9639636
457,"['high', 6]",6,black,45,right,down,high,black_high_45_down,white_high_135_down,7,left,0.6472469,0,7,49,0,FALSE,17,1,1,1,TRUE,FALSE,high_6,0.75,-1,3,,,,,,,,,,,165,6,3.2.2021,164.9639636
458,"['high', 6]",6,white,135,right,up,high,white_high_135_up,black_high_45_up,10,right,0.5255081,1,10,50,0,FALSE,17,1,1,1,TRUE,FALSE,high_6,0.75,-1,3,,,,,,,,,,,165,6,3.2.2021,164.9639636
459,"['high', 4]",4,black,135,left,up,high,black_high_135_up,white_high_45_up,7,left,0.2623971,1,7,45,1,FALSE,16,1,1,1,TRUE,FALSE,high_4,0.75,-1,3,,,,,,,,,,,165,6,3.2.2021,164.9639636
460,"['high', 3]",3,black,135,left,down,high,black_high_135_down,white_high_45_down,12,right,0.0264737,0,12,40,1,FALSE,18,1,1,1,TRUE,FALSE,high_3,0.75,-1,3,,,,,,,,,,,165,6,3.2.2021,164.9639636
461,"['high', 1]",1,black,45,right,up,high,black_high_45_up,white_high_135_up,21,right,1.4506847,1,21,47,1,TRUE,23,1,1,1,TRUE,FALSE,high_1,0.75,-1,3,,,,,,,,,,,165,6,3.2.2021,164.9639636
462,"['high', 2]",2,white,135,right,up,high,white_high_135_up,black_high_45_up,18,right,0.2353608,1,18,42,0,TRUE,22,1,1,1,TRUE,FALSE,high_2,0.75,-1,3,,,,,,,,,,,165,6,3.2.2021,164.9639636
463,"['high', 2]",2,black,45,right,up,high,black_high_45_up,white_high_135_up,17,right,0.0214159,1,17,43,1,TRUE,23,1,1,1,TRUE,FALSE,high_2,0.75,-1,3,,,,,,,,,,,165,6,3.2.2021,164.9639636
464,"['low', 2]",2,white,45,left,down,low,white_low_45_down,black_low_135_down,2,left,0.2512032,1,2,43,1,FALSE,17,1,1,1,TRUE,FALSE,low_2,0.75,-1,3,,,,,,,,,,,165,6,3.2.2021,164.9639636
465,"['low', 6]",6,white,45,left,down,low,white_low_45_down,black_low_135_down,8,left,0.4872121,1,8,52,1,FALSE,21,1,1,1,TRUE,FALSE,low_6,0.75,-1,3,,,,,,,,,,,165,6,3.2.2021,164.9639636
466,"['high', 1]",1,white,135,right,up,high,white_high_135_up,black_high_45_up,20,right,0.2393484,1,20,48,1,FALSE,23,1,1,1,TRUE,FALSE,high_1,0.75,-1,3,,,,,,,,,,,165,6,3.2.2021,164.9639636
467,"['high', 1]",1,black,135,left,down,high,black_high_135_down,white_high_45_down,19,right,0.6759107,0,19,49,1,FALSE,23,1,1,1,TRUE,FALSE,high_1,0.75,-1,3,,,,,,,,,,,165,6,3.2.2021,164.9639636
468,"['low', 4]",4,white,45,left,down,low,white_low_45_down,black_low_135_down,1,left,0.1999012,1,1,44,1,FALSE,14,1,1,1,TRUE,FALSE,low_4,0.75,-1,3,,,,,,,,,,,165,6,3.2.2021,164.9639636
469,"['high', 4]",4,white,135,right,down,high,white_high_135_down,black_high_45_down,6,left,0.1459109,0,6,46,1,FALSE,16,1,1,1,TRUE,FALSE,high_4,0.75,-1,3,,,,,,,,,,,165,6,3.2.2021,164.9639636
470,"['low', 3]",3,black,45,right,down,low,black_low_45_down,white_low_135_down,3,left,0.2002707,0,3,45,1,FALSE,18,1,1,1,TRUE,FALSE,low_3,0.75,-1,3,,,,,,,,,,,165,6,3.2.2021,164.9639636
471,"['low', 2]",2,white,135,right,up,low,white_low_135_up,black_low_45_up,1,right,0.159147,1,1,44,1,FALSE,17,1,1,1,TRUE,FALSE,low_2,0.75,-1,3,,,,,,,,,,,165,6,3.2.2021,164.9639636
472,"['high', 1]",1,black,45,right,down,high,black_high_45_down,white_high_135_down,22,right,0.0413919,1,22,50,0,TRUE,24,1,1,1,TRUE,FALSE,high_1,0.75,-1,3,,,,,,,,,,,165,6,3.2.2021,164.9639636
473,"['low', 2]",2,white,135,right,down,low,white_low_135_down,black_low_45_down,1,left,0.1197732,0,1,45,1,FALSE,17,1,1,1,TRUE,FALSE,low_2,0.75,-1,3,,,,,,,,,,,165,6,3.2.2021,164.9639636
474,"['low', 1]",1,black,45,right,up,low,black_low_45_up,white_low_135_up,26,right,0.097319,1,26,50,0,TRUE,23,1,1,1,TRUE,FALSE,low_1,0.75,-1,3,,,,,,,,,,,165,6,3.2.2021,164.9639636
475,"['low', 2]",2,black,45,right,down,low,black_low_45_down,white_low_135_down,4,right,0.2991733,1,4,46,0,TRUE,18,1,1,1,TRUE,FALSE,low_2,0.75,-1,3,,,,,,,,,,,165,6,3.2.2021,164.9639636
476,"['low', 1]",1,black,45,right,up,low,black_low_45_up,white_low_135_up,25,right,0.125338,1,25,51,1,TRUE,24,1,1,1,TRUE,FALSE,low_1,0.75,-1,3,,,,,,,,,,,165,6,3.2.2021,164.9639636
477,"['high', 6]",6,black,135,left,up,high,black_high_135_up,white_high_45_up,9,left,0.5193372,1,9,51,1,TRUE,18,1,1,1,TRUE,FALSE,high_6,0.75,-1,3,,,,,,,,,,,165,6,3.2.2021,164.9639636
478,"['low', 1]",1,white,135,right,down,low,white_low_135_down,black_low_45_down,24,right,0.2618666,1,24,52,1,FALSE,24,1,1,1,TRUE,FALSE,low_1,0.75,-1,3,,,,,,,,,,,165,6,3.2.2021,164.9639636
479,"['high', 6]",6,black,135,left,up,high,black_high_135_up,white_high_45_up,8,left,0.173287,1,8,52,1,FALSE,18,1,1,1,TRUE,FALSE,high_6,0.75,-1,3,,,,,,,,,,,165,6,3.2.2021,164.9639636
480,"['high', 6]",6,black,135,left,up,high,black_high_135_up,white_high_45_up,7,left,0.1518918,1,7,53,1,FALSE,18,1,1,1,TRUE,FALSE,high_6,0.75,-1,3,,,,,,,,,,,165,6,3.2.2021,164.9639636
481,"['high', 1]",1,black,45,right,up,high,black_high_45_up,white_high_135_up,21,right,0.1617226,1,21,51,1,TRUE,25,1,1,1,TRUE,FALSE,high_1,0.75,-1,3,,,,,,,,,,,165,6,3.2.2021,164.9639636
482,"['low', 1]",1,white,45,left,up,low,white_low_45_up,black_low_135_up,23,left,0.2441644,1,23,53,1,FALSE,24,1,1,1,TRUE,FALSE,low_1,0.75,-1,3,,,,,,,,,,,165,6,3.2.2021,164.9639636
483,"['high', 6]",6,white,135,right,up,high,white_high_135_up,black_high_45_up,6,right,0.1500686,1,6,54,1,FALSE,18,1,1,1,TRUE,FALSE,high_6,0.75,-1,3,,,,,,,,,,,165,6,3.2.2021,164.9639636
484,"['low', 1]",1,white,45,left,down,low,white_low_45_down,black_low_135_down,22,left,0.2275775,1,22,54,1,FALSE,24,1,1,1,TRUE,FALSE,low_1,0.75,-1,3,,,,,,,,,,,165,6,3.2.2021,164.9639636
485,"['low', 3]",3,white,135,right,up,low,white_low_135_up,black_low_45_up,6,right,0.2286506,1,6,46,0,TRUE,19,1,1,1,TRUE,FALSE,low_3,0.75,-1,3,,,,,,,,,,,165,6,3.2.2021,164.9639636
486,"['low', 4]",4,white,45,left,down,low,white_low_45_down,black_low_135_down,1,left,0.1728885,1,1,45,1,FALSE,14,1,1,1,TRUE,FALSE,low_4,0.75,-1,3,,,,,,,,,,,165,6,3.2.2021,164.9639636
487,"['high', 2]",2,black,45,right,down,high,black_high_45_down,white_high_135_down,16,right,0.0759536,1,16,44,1,FALSE,23,1,1,1,TRUE,FALSE,high_2,0.75,-1,3,,,,,,,,,,,165,6,3.2.2021,164.9639636
488,"['low', 1]",1,black,45,right,down,low,black_low_45_down,white_low_135_down,21,right,0.6262995,1,21,55,1,FALSE,24,1,1,1,TRUE,FALSE,low_1,0.75,-1,3,,,,,,,,,,,165,6,3.2.2021,164.9639636
489,"['high', 2]",2,white,135,right,down,high,white_high_135_down,black_high_45_down,15,right,0.1896804,1,15,45,1,FALSE,23,1,1,1,TRUE,FALSE,high_2,0.75,-1,3,,,,,,,,,,,165,6,3.2.2021,164.9639636
490,"['low', 6]",6,black,135,left,down,low,black_low_135_down,white_low_45_down,7,left,0.0503297,1,7,53,1,FALSE,21,1,1,1,TRUE,FALSE,low_6,0.75,-1,3,,,,,,,,,,,165,6,3.2.2021,164.9639636
491,"['high', 6]",6,black,135,left,up,high,black_high_135_up,white_high_45_up,5,right,0.2179416,0,5,55,1,FALSE,18,1,1,1,TRUE,FALSE,high_6,0.75,-1,3,,,,,,,,,,,165,6,3.2.2021,164.9639636
492,"['high', 6]",6,white,45,left,down,high,white_high_45_down,black_high_135_down,8,left,0.0902123,1,8,56,0,TRUE,19,1,1,1,TRUE,FALSE,high_6,0.75,-1,3,,,,,,,,,,,165,6,3.2.2021,164.9639636
493,"['high', 3]",3,white,45,left,up,high,white_high_45_up,black_high_135_up,15,left,0.1760841,1,15,41,0,TRUE,19,1,1,1,TRUE,FALSE,high_3,0.75,-1,3,,,,,,,,,,,165,6,3.2.2021,164.9639636
494,"['high', 3]",3,white,135,right,up,high,white_high_135_up,black_high_45_up,14,right,0.0741845,1,14,42,1,TRUE,20,1,1,1,TRUE,FALSE,high_3,0.75,-1,3,,,,,,,,,,,165,6,3.2.2021,164.9639636
495,"['high', 1]",1,black,135,left,down,high,black_high_135_down,white_high_45_down,20,left,0.0179952,1,20,52,1,FALSE,25,1,1,1,TRUE,FALSE,high_1,0.75,-1,3,,,,,,,,,,,165,6,3.2.2021,164.9639636
496,"['high', 3]",3,white,45,left,down,high,white_high_45_down,black_high_135_down,13,left,0.1306931,1,13,43,1,FALSE,20,1,1,1,TRUE,FALSE,high_3,0.75,-1,3,,,,,,,,,,,165,6,3.2.2021,164.9639636
497,"['low', 1]",1,white,45,left,up,low,white_low_45_up,black_low_135_up,20,left,0.1718642,1,20,56,1,FALSE,24,1,1,1,TRUE,FALSE,low_1,0.75,-1,3,,,,,,,,,,,165,6,3.2.2021,164.9639636
498,"['high', 3]",3,black,45,right,up,high,black_high_45_up,white_high_135_up,12,right,0.581975,1,12,44,1,FALSE,20,1,1,1,TRUE,FALSE,high_3,0.75,-1,3,,,,,,,,,,,165,6,3.2.2021,164.9639636
499,"['low', 4]",4,black,135,left,up,low,black_low_135_up,white_low_45_up,1,right,0.6058494,0,1,46,1,FALSE,14,1,1,1,TRUE,FALSE,low_4,0.75,-1,3,,,,,,,,,,,165,6,3.2.2021,164.9639636
500,"['high', 3]",3,black,45,right,down,high,black_high_45_down,white_high_135_down,11,left,0.254344,0,11,45,1,FALSE,20,1,1,1,TRUE,FALSE,high_3,0.75,-1,3,,,,,,,,,,,165,6,3.2.2021,164.9639636
501,"['low', 3]",3,white,135,right,down,low,white_low_135_down,black_low_45_down,5,right,0.0528369,1,5,47,1,TRUE,20,1,1,1,TRUE,FALSE,low_3,0.75,-1,3,,,,,,,,,,,165,6,3.2.2021,164.9639636
502,"['high', 2]",2,black,45,right,up,high,black_high_45_up,white_high_135_up,14,right,0.0459396,1,14,46,1,FALSE,23,1,1,1,TRUE,FALSE,high_2,0.75,-1,3,,,,,,,,,,,165,6,3.2.2021,164.9639636
503,"['low', 6]",6,white,135,right,down,low,white_low_135_down,black_low_45_down,6,right,0.4536442,1,6,54,1,FALSE,21,1,1,1,TRUE,FALSE,low_6,0.75,-1,3,,,,,,,,,,,165,6,3.2.2021,164.9639636
504,"['low', 2]",2,white,135,right,up,low,white_low_135_up,black_low_45_up,3,right,0.1201761,1,3,47,1,TRUE,19,1,1,1,TRUE,FALSE,low_2,0.75,-1,3,,,,,,,,,,,165,6,3.2.2021,164.9639636
505,"['high', 2]",2,white,45,left,down,high,white_high_45_down,black_high_135_down,13,left,0.1953537,1,13,47,1,FALSE,23,1,1,1,TRUE,FALSE,high_2,0.75,-1,3,,,,,,,,,,,165,6,3.2.2021,164.9639636
506,"['high', 6]",6,white,45,left,down,high,white_high_45_down,black_high_135_down,7,left,0.0230609,1,7,57,1,TRUE,20,1,1,1,TRUE,FALSE,high_6,0.75,-1,3,,,,,,,,,,,165,6,3.2.2021,164.9639636
507,"['low', 6]",6,black,45,right,down,low,black_low_45_down,white_low_135_down,5,right,0.5267558,1,5,55,1,FALSE,21,1,1,1,TRUE,FALSE,low_6,0.75,-1,3,,,,,,,,,,,165,6,3.2.2021,164.9639636
508,"['low', 1]",1,black,45,right,up,low,black_low_45_up,white_low_135_up,19,left,0.6229926,0,19,57,1,FALSE,24,1,1,1,TRUE,FALSE,low_1,0.75,-1,3,,,,,,,,,,,165,6,3.2.2021,164.9639636
509,"['high', 1]",1,black,45,right,up,high,black_high_45_up,white_high_135_up,19,right,0.2381882,1,19,53,1,FALSE,25,1,1,1,TRUE,FALSE,high_1,0.75,-1,3,,,,,,,,,,,165,6,3.2.2021,164.9639636
510,"['high', 2]",2,black,45,right,down,high,black_high_45_down,white_high_135_down,12,left,0.2152771,0,12,48,1,FALSE,23,1,1,1,TRUE,FALSE,high_2,0.75,-1,3,,,,,,,,,,,165,6,3.2.2021,164.9639636
511,"['low', 2]",2,white,45,left,down,low,white_low_45_down,black_low_135_down,2,left,0.2231795,1,2,48,1,FALSE,19,1,1,1,TRUE,FALSE,low_2,0.75,-1,3,,,,,,,,,,,165,6,3.2.2021,164.9639636
512,"['low', 3]",3,black,135,left,down,low,black_low_135_down,white_low_45_down,4,left,0.1202371,1,4,48,1,FALSE,20,1,1,1,TRUE,FALSE,low_3,0.75,-1,3,,,,,,,,,,,165,6,3.2.2021,164.9639636
513,"['high', 4]",4,black,135,left,up,high,black_high_135_up,white_high_45_up,9,left,0.512938,1,9,47,0,TRUE,17,1,1,1,TRUE,FALSE,high_4,0.75,-1,3,,,,,,,,,,,165,6,3.2.2021,164.9639636
514,"['low', 4]",4,black,135,left,up,low,black_low_135_up,white_low_45_up,4,left,0.1990094,1,4,47,0,TRUE,15,1,1,1,TRUE,FALSE,low_4,0.75,-1,3,,,,,,,,,,,165,6,3.2.2021,164.9639636
515,"['low', 2]",2,black,135,left,up,low,black_low_135_up,white_low_45_up,1,left,0.164958,1,1,49,1,FALSE,19,1,1,1,TRUE,FALSE,low_2,0.75,-1,3,,,,,,,,,,,165,6,3.2.2021,164.9639636
516,"['high', 2]",2,black,135,left,up,high,black_high_135_up,white_high_45_up,15,right,0.1459535,0,15,49,0,TRUE,24,1,1,1,TRUE,FALSE,high_2,0.75,-1,3,,,,,,,,,,,165,6,3.2.2021,164.9639636
517,"['low', 4]",4,black,45,right,down,low,black_low_45_down,white_low_135_down,3,right,0.1573756,1,3,48,1,TRUE,16,1,1,1,TRUE,FALSE,low_4,0.75,-1,3,,,,,,,,,,,165,6,3.2.2021,164.9639636
518,"['low', 1]",1,white,45,left,up,low,white_low_45_up,black_low_135_up,22,left,0.1979934,1,22,58,0,TRUE,25,1,1,1,TRUE,FALSE,low_1,0.75,-1,3,,,,,,,,,,,165,6,3.2.2021,164.9639636
519,"['high', 6]",6,black,45,right,down,high,black_high_45_down,white_high_135_down,6,left,1.9611063,0,6,58,1,FALSE,20,1,1,1,TRUE,FALSE,high_6,0.75,-1,3,,,,,,,,,,,165,6,3.2.2021,164.9639636
520,"['low', 4]",4,black,135,left,down,low,black_low_135_down,white_low_45_down,2,left,0.2655194,1,2,49,1,FALSE,16,1,1,1,TRUE,FALSE,low_4,0.75,-1,3,,,,,,,,,,,165,6,3.2.2021,164.9639636
521,"['low', 2]",2,white,45,left,down,low,white_low_45_down,black_low_135_down,1,left,0.203071,1,1,50,1,FALSE,19,1,1,1,TRUE,FALSE,low_2,0.75,-1,3,,,,,,,,,,,165,6,3.2.2021,164.9639636
522,"['low', 4]",4,black,45,right,down,low,black_low_45_down,white_low_135_down,1,right,0.1816019,1,1,50,1,FALSE,16,1,1,1,TRUE,FALSE,low_4,0.75,-1,3,,,,,,,,,,,165,6,3.2.2021,164.9639636
523,"['low', 1]",1,black,135,left,up,low,black_low_135_up,white_low_45_up,21,right,0.0182914,0,21,59,1,TRUE,26,1,1,1,TRUE,FALSE,low_1,0.75,-1,3,,,,,,,,,,,165,6,3.2.2021,164.9639636
524,"['high', 6]",6,white,45,left,down,high,white_high_45_down,black_high_135_down,9,left,0.4551486,1,9,59,0,TRUE,21,1,1,1,TRUE,FALSE,high_6,0.75,-1,3,,,,,,,,,,,165,6,3.2.2021,164.9639636
525,"['high', 6]",6,white,135,right,down,high,white_high_135_down,black_high_45_down,8,right,0.1303106,1,8,60,1,TRUE,22,1,1,1,TRUE,FALSE,high_6,0.75,-1,3,,,,,,,,,,,165,6,3.2.2021,164.9639636
526,"['low', 6]",6,white,135,right,up,low,white_low_135_up,black_low_45_up,4,right,0.0633537,1,4,56,1,FALSE,21,1,1,1,TRUE,FALSE,low_6,0.75,-1,3,,,,,,,,,,,165,6,3.2.2021,164.9639636
527,"['high', 1]",1,white,45,left,up,high,white_high_45_up,black_high_135_up,18,left,0.2606808,1,18,54,1,FALSE,25,1,1,1,TRUE,FALSE,high_1,0.75,-1,3,,,,,,,,,,,165,6,3.2.2021,164.9639636
528,"['low', 1]",1,black,45,right,up,low,black_low_45_up,white_low_135_up,24,right,0.51855,1,24,60,0,TRUE,27,1,1,1,TRUE,FALSE,low_1,0.75,-1,3,,,,,,,,,,,165,6,3.2.2021,164.9639636
529,"['high', 3]",3,black,45,right,down,high,black_high_45_down,white_high_135_down,14,right,0.2292979,1,14,46,0,TRUE,21,1,1,1,TRUE,FALSE,high_3,0.75,-1,3,,,,,,,,,,,165,6,3.2.2021,164.9639636
530,"['high', 1]",1,white,45,left,down,high,white_high_45_down,black_high_135_down,17,left,0.2154659,1,17,55,1,FALSE,25,1,1,1,TRUE,FALSE,high_1,0.75,-1,3,,,,,,,,,,,165,6,3.2.2021,164.9639636
531,"['high', 3]",3,black,45,right,up,high,black_high_45_up,white_high_135_up,13,right,0.2251898,1,13,47,1,TRUE,22,1,1,1,TRUE,FALSE,high_3,0.75,-1,3,,,,,,,,,,,165,6,3.2.2021,164.9639636
532,"['high', 2]",2,black,135,left,down,high,black_high_135_down,white_high_45_down,18,right,0.0655023,0,18,50,0,FALSE,24,1,1,1,TRUE,FALSE,high_2,0.75,-1,3,,,,,,,,,,,165,6,3.2.2021,164.9639636
533,"['low', 1]",1,black,45,right,up,low,black_low_45_up,white_low_135_up,23,right,0.2027562,1,23,61,1,TRUE,28,1,1,1,TRUE,FALSE,low_1,0.75,-1,3,,,,,,,,,,,165,6,3.2.2021,164.9639636
