trial_number,trial_type,cycle_number,first_color,first_orientation,correct_response,visual_field,spatial_frequency,first_stim,second_stim,stimulus_frame_duration,fixation,answer,rt,accuracy,staircase_dv,staircase_trial_num,staircase_previous_correct,staircase_reversal,staircase_reversal_num,staircase_phase,staircase_step_size,staircase_powers_law,staircase_siam,staircase_over,staircase_name,staircase_conv_p,staircase_step_hit,staircase_step_miss,threshold_low1,threshold_low2,threshold_low3,threshold_low4,threshold_low6,threshold_high1,threshold_high2,threshold_high3,threshold_high4,threshold_high6,frame_rate,participant,psychopyVersion,frame_rate_detected
0,"['low', 4]",4,white,45,left,down,low,white_low_45_down,black_low_135_down,3,1.439753429,left,0.2153514,1,3,0,None,FALSE,0,0,1,1,TRUE,FALSE,low_4,0.75,-1,3,,,,,,,,,,,165,11,3.2.2021,164.9568885
1,"['low', 4]",4,black,135,left,up,low,black_low_135_up,white_low_45_up,2,1.928259049,right,0.21364,0,2,1,1,FALSE,0,0,1,1,TRUE,FALSE,low_4,0.75,-1,3,,,,,,,,,,,165,11,3.2.2021,164.9568885
2,"['low', 3]",3,white,135,right,down,low,white_low_135_down,black_low_45_down,3,1.736043617,right,0.3840675,1,3,0,None,FALSE,0,0,1,1,TRUE,FALSE,low_3,0.75,-1,3,,,,,,,,,,,165,11,3.2.2021,164.9568885
3,"['low', 4]",4,black,45,right,up,low,black_low_45_up,white_low_135_up,5,1.206201375,right,0.4504602,1,5,2,0,TRUE,1,0,1,1,TRUE,FALSE,low_4,0.75,-1,3,,,,,,,,,,,165,11,3.2.2021,164.9568885
4,"['low', 1]",1,white,135,right,down,low,white_low_135_down,black_low_45_down,8,1.556336145,right,1.343323,1,8,0,None,FALSE,0,0,1,1,TRUE,FALSE,low_1,0.75,-1,3,,,,,,,,,,,165,11,3.2.2021,164.9568885
5,"['high', 2]",2,white,135,right,down,high,white_high_135_down,black_high_45_down,8,1.066297631,left,0.3699765,0,8,0,None,FALSE,0,0,1,1,TRUE,FALSE,high_2,0.75,-1,3,,,,,,,,,,,165,11,3.2.2021,164.9568885
6,"['high', 2]",2,black,45,right,up,high,black_high_45_up,white_high_135_up,11,1.04751612,left,0.4798765,0,11,1,0,FALSE,0,0,1,1,TRUE,FALSE,high_2,0.75,-1,3,,,,,,,,,,,165,11,3.2.2021,164.9568885
7,"['low', 6]",6,white,135,right,up,low,white_low_135_up,black_low_45_up,3,1.437629821,right,0.4391771,1,3,0,None,FALSE,0,0,1,1,TRUE,FALSE,low_6,0.75,-1,3,,,,,,,,,,,165,11,3.2.2021,164.9568885
8,"['low', 4]",4,white,135,right,down,low,white_low_135_down,black_low_45_down,4,1.498336047,right,0.4793317,1,4,3,1,TRUE,2,0,1,1,TRUE,FALSE,low_4,0.75,-1,3,,,,,,,,,,,165,11,3.2.2021,164.9568885
9,"['low', 1]",1,black,45,right,up,low,black_low_45_up,white_low_135_up,7,1.094224355,left,0.1808502,0,7,1,1,FALSE,0,0,1,1,TRUE,FALSE,low_1,0.75,-1,3,,,,,,,,,,,165,11,3.2.2021,164.9568885
10,"['low', 6]",6,white,135,right,down,low,white_low_135_down,black_low_45_down,2,1.822407419,right,0.3482145,1,2,1,1,FALSE,0,0,1,1,TRUE,FALSE,low_6,0.75,-1,3,,,,,,,,,,,165,11,3.2.2021,164.9568885
11,"['low', 3]",3,black,45,right,up,low,black_low_45_up,white_low_135_up,2,1.815289701,right,0.4473262,1,2,1,1,FALSE,0,0,1,1,TRUE,FALSE,low_3,0.75,-1,3,,,,,,,,,,,165,11,3.2.2021,164.9568885
12,"['high', 3]",3,white,45,left,down,high,white_high_45_down,black_high_135_down,8,1.197877679,left,0.1390435,1,8,0,None,FALSE,0,0,1,1,TRUE,FALSE,high_3,0.75,-1,3,,,,,,,,,,,165,11,3.2.2021,164.9568885
13,"['high', 4]",4,black,45,right,up,high,black_high_45_up,white_high_135_up,8,1.066127532,right,0.6618595,1,8,0,None,FALSE,0,0,1,1,TRUE,FALSE,high_4,0.75,-1,3,,,,,,,,,,,165,11,3.2.2021,164.9568885
14,"['high', 2]",2,white,45,left,down,high,white_high_45_down,black_high_135_down,14,1.365038648,left,0.2214365,1,14,2,0,FALSE,0,0,1,1,TRUE,FALSE,high_2,0.75,-1,3,,,,,,,,,,,165,11,3.2.2021,164.9568885
15,"['high', 2]",2,black,45,right,down,high,black_high_45_down,white_high_135_down,13,1.432400632,left,0.1682479,0,13,3,1,TRUE,1,0,1,1,TRUE,FALSE,high_2,0.75,-1,3,,,,,,,,,,,165,11,3.2.2021,164.9568885
16,"['low', 3]",3,black,135,left,up,low,black_low_135_up,white_low_45_up,1,1.400946568,right,0.3319497,0,1,2,1,FALSE,0,0,1,1,TRUE,FALSE,low_3,0.75,-1,3,,,,,,,,,,,165,11,3.2.2021,164.9568885
17,"['low', 4]",4,black,45,right,up,low,black_low_45_up,white_low_135_up,3,1.103508593,right,0.3064743,1,3,4,1,FALSE,2,0,1,1,TRUE,FALSE,low_4,0.75,-1,3,,,,,,,,,,,165,11,3.2.2021,164.9568885
18,"['low', 4]",4,black,135,left,down,low,black_low_135_down,white_low_45_down,2,1.074799648,right,0.370703,0,2,5,1,FALSE,2,0,1,1,TRUE,FALSE,low_4,0.75,-1,3,,,,,,,,,,,165,11,3.2.2021,164.9568885
19,"['low', 1]",1,black,135,left,up,low,black_low_135_up,white_low_45_up,10,1.595629277,left,2.5264093,1,10,2,0,TRUE,1,0,1,1,TRUE,FALSE,low_1,0.75,-1,3,,,,,,,,,,,165,11,3.2.2021,164.9568885
20,"['high', 2]",2,black,135,left,up,high,black_high_135_up,white_high_45_up,16,1.812512094,right,1.3112093,0,16,4,0,TRUE,2,0,1,1,TRUE,FALSE,high_2,0.75,-1,3,,,,,,,,,,,165,11,3.2.2021,164.9568885
21,"['low', 4]",4,black,135,left,down,low,black_low_135_down,white_low_45_down,5,1.65221488,right,0.9072443,0,5,6,0,TRUE,3,0,1,1,TRUE,FALSE,low_4,0.75,-1,3,,,,,,,,,,,165,11,3.2.2021,164.9568885
22,"['high', 1]",1,black,45,right,up,high,black_high_45_up,white_high_135_up,12,1.993145268,left,0.3981116,0,12,0,None,FALSE,0,0,1,1,TRUE,FALSE,high_1,0.75,-1,3,,,,,,,,,,,165,11,3.2.2021,164.9568885
23,"['low', 2]",2,white,135,right,up,low,white_low_135_up,black_low_45_up,3,1.036937276,right,0.8978366,1,3,0,None,FALSE,0,0,1,1,TRUE,FALSE,low_2,0.75,-1,3,,,,,,,,,,,165,11,3.2.2021,164.9568885
24,"['high', 4]",4,white,135,right,up,high,white_high_135_up,black_high_45_up,7,1.127335903,left,1.1285233,0,7,1,1,FALSE,0,0,1,1,TRUE,FALSE,high_4,0.75,-1,3,,,,,,,,,,,165,11,3.2.2021,164.9568885
25,"['high', 3]",3,black,45,right,down,high,black_high_45_down,white_high_135_down,7,1.634377554,left,0.481234,0,7,1,1,FALSE,0,0,1,1,TRUE,FALSE,high_3,0.75,-1,3,,,,,,,,,,,165,11,3.2.2021,164.9568885
26,"['high', 6]",6,white,45,left,down,high,white_high_45_down,black_high_135_down,8,1.419918962,right,0.6440121,0,8,0,None,FALSE,0,0,1,1,TRUE,FALSE,high_6,0.75,-1,3,,,,,,,,,,,165,11,3.2.2021,164.9568885
27,"['high', 1]",1,white,135,right,up,high,white_high_135_up,black_high_45_up,15,1.469017303,right,0.3130898,1,15,1,0,FALSE,0,0,1,1,TRUE,FALSE,high_1,0.75,-1,3,,,,,,,,,,,165,11,3.2.2021,164.9568885
28,"['high', 1]",1,white,45,left,down,high,white_high_45_down,black_high_135_down,14,1.097505942,left,0.4958567,1,14,2,1,TRUE,1,0,1,1,TRUE,FALSE,high_1,0.75,-1,3,,,,,,,,,,,165,11,3.2.2021,164.9568885
29,"['low', 4]",4,white,135,right,down,low,white_low_135_down,black_low_45_down,8,1.359319929,right,0.917241,1,8,7,0,FALSE,3,0,1,1,TRUE,FALSE,low_4,0.75,-1,3,,,,,,,,,,,165,11,3.2.2021,164.9568885
30,"['high', 4]",4,black,45,right,up,high,black_high_45_up,white_high_135_up,10,1.507952362,left,0.8167132,0,10,2,0,TRUE,1,0,1,1,TRUE,FALSE,high_4,0.75,-1,3,,,,,,,,,,,165,11,3.2.2021,164.9568885
31,"['high', 6]",6,white,135,right,down,high,white_high_135_down,black_high_45_down,11,1.671287556,left,0.124579,0,11,1,0,FALSE,0,0,1,1,TRUE,FALSE,high_6,0.75,-1,3,,,,,,,,,,,165,11,3.2.2021,164.9568885
32,"['high', 3]",3,white,135,right,up,high,white_high_135_up,black_high_45_up,10,1.376300708,right,0.5531781,1,10,2,0,TRUE,1,0,1,1,TRUE,FALSE,high_3,0.75,-1,3,,,,,,,,,,,165,11,3.2.2021,164.9568885
33,"['low', 4]",4,black,135,left,up,low,black_low_135_up,white_low_45_up,7,1.385039658,right,0.495794,0,7,8,1,TRUE,4,0,1,1,TRUE,FALSE,low_4,0.75,-1,3,,,,,,,,,,,165,11,3.2.2021,164.9568885
34,"['high', 4]",4,white,135,right,up,high,white_high_135_up,black_high_45_up,13,1.25002308,left,0.5931271,0,13,3,0,FALSE,1,0,1,1,TRUE,FALSE,high_4,0.75,-1,3,,,,,,,,,,,165,11,3.2.2021,164.9568885
35,"['high', 3]",3,white,45,left,up,high,white_high_45_up,black_high_135_up,9,1.378734196,left,0.5109067,1,9,3,1,TRUE,2,0,1,1,TRUE,FALSE,high_3,0.75,-1,3,,,,,,,,,,,165,11,3.2.2021,164.9568885
36,"['low', 1]",1,white,45,left,down,low,white_low_45_down,black_low_135_down,9,1.872740839,left,0.5663727,1,9,3,1,TRUE,2,0,1,1,TRUE,FALSE,low_1,0.75,-1,3,,,,,,,,,,,165,11,3.2.2021,164.9568885
37,"['high', 1]",1,black,45,right,up,high,black_high_45_up,white_high_135_up,13,1.950616697,left,0.9061448,0,13,3,1,FALSE,1,0,1,1,TRUE,FALSE,high_1,0.75,-1,3,,,,,,,,,,,165,11,3.2.2021,164.9568885
38,"['high', 3]",3,black,135,left,down,high,black_high_135_down,white_high_45_down,8,1.715684586,right,0.7352995,0,8,4,1,FALSE,2,0,1,1,TRUE,FALSE,high_3,0.75,-1,3,,,,,,,,,,,165,11,3.2.2021,164.9568885
39,"['high', 4]",4,black,135,left,down,high,black_high_135_down,white_high_45_down,16,1.220246321,right,0.6974711,0,16,4,0,FALSE,1,0,1,1,TRUE,FALSE,high_4,0.75,-1,3,,,,,,,,,,,165,11,3.2.2021,164.9568885
40,"['high', 2]",2,white,135,right,up,high,white_high_135_up,black_high_45_up,19,1.133711798,right,0.5015234,1,19,5,0,FALSE,2,0,1,1,TRUE,FALSE,high_2,0.75,-1,3,,,,,,,,,,,165,11,3.2.2021,164.9568885
41,"['high', 1]",1,white,135,right,up,high,white_high_135_up,black_high_45_up,16,1.342098313,right,0.3805034,1,16,4,0,TRUE,2,0,1,1,TRUE,FALSE,high_1,0.75,-1,3,,,,,,,,,,,165,11,3.2.2021,164.9568885
42,"['low', 1]",1,white,135,right,up,low,white_low_135_up,black_low_45_up,8,1.304802408,right,0.6992961,1,8,4,1,FALSE,2,0,1,1,TRUE,FALSE,low_1,0.75,-1,3,,,,,,,,,,,165,11,3.2.2021,164.9568885
43,"['high', 2]",2,black,135,left,down,high,black_high_135_down,white_high_45_down,18,1.109399078,left,2.2522829,1,18,6,1,TRUE,3,0,1,1,TRUE,FALSE,high_2,0.75,-1,3,,,,,,,,,,,165,11,3.2.2021,164.9568885
44,"['low', 3]",3,black,45,right,up,low,black_low_45_up,white_low_135_up,4,1.653342422,right,0.3120059,1,4,3,0,TRUE,1,0,1,1,TRUE,FALSE,low_3,0.75,-1,3,,,,,,,,,,,165,11,3.2.2021,164.9568885
45,"['high', 4]",4,white,45,left,down,high,white_high_45_down,black_high_135_down,19,1.877971483,left,0.3415006,1,19,5,0,FALSE,1,0,1,1,TRUE,FALSE,high_4,0.75,-1,3,,,,,,,,,,,165,11,3.2.2021,164.9568885
46,"['low', 2]",2,black,135,left,down,low,black_low_135_down,white_low_45_down,2,1.732447355,right,0.6220026,0,2,1,1,FALSE,0,0,1,1,TRUE,FALSE,low_2,0.75,-1,3,,,,,,,,,,,165,11,3.2.2021,164.9568885
47,"['low', 2]",2,black,135,left,up,low,black_low_135_up,white_low_45_up,5,1.648897582,right,0.5990269,0,5,2,0,TRUE,1,0,1,1,TRUE,FALSE,low_2,0.75,-1,3,,,,,,,,,,,165,11,3.2.2021,164.9568885
48,"['low', 3]",3,black,135,left,down,low,black_low_135_down,white_low_45_down,3,1.57193031,left,0.4237332,1,3,4,1,TRUE,2,0,1,1,TRUE,FALSE,low_3,0.75,-1,3,,,,,,,,,,,165,11,3.2.2021,164.9568885
49,"['low', 4]",4,white,135,right,up,low,white_low_135_up,black_low_45_up,10,1.369025442,right,1.2868762,1,10,9,0,TRUE,5,1,1,1,TRUE,FALSE,low_4,0.75,-1,3,,,,,,,,,,,165,11,3.2.2021,164.9568885
50,"['low', 4]",4,black,45,right,down,low,black_low_45_down,white_low_135_down,9,1.166734312,right,0.5053205,1,9,10,1,TRUE,6,1,1,1,TRUE,FALSE,low_4,0.75,-1,3,,,,,,,,,,,165,11,3.2.2021,164.9568885
51,"['high', 6]",6,white,45,left,down,high,white_high_45_down,black_high_135_down,14,1.11216543,left,0.7410559,1,14,2,0,FALSE,0,0,1,1,TRUE,FALSE,high_6,0.75,-1,3,,,,,,,,,,,165,11,3.2.2021,164.9568885
52,"['high', 3]",3,white,135,right,down,high,white_high_135_down,black_high_45_down,11,1.819356609,right,0.4510144,1,11,5,0,TRUE,3,0,1,1,TRUE,FALSE,high_3,0.75,-1,3,,,,,,,,,,,165,11,3.2.2021,164.9568885
53,"['high', 2]",2,white,135,right,up,high,white_high_135_up,black_high_45_up,17,1.253248892,right,0.5233877,1,17,7,1,FALSE,3,0,1,1,TRUE,FALSE,high_2,0.75,-1,3,,,,,,,,,,,165,11,3.2.2021,164.9568885
54,"['high', 4]",4,black,45,right,up,high,black_high_45_up,white_high_135_up,18,1.445761838,left,0.9420388,0,18,6,1,TRUE,2,0,1,1,TRUE,FALSE,high_4,0.75,-1,3,,,,,,,,,,,165,11,3.2.2021,164.9568885
55,"['low', 1]",1,black,45,right,down,low,black_low_45_down,white_low_135_down,7,1.730428381,left,0.4770528,0,7,5,1,FALSE,2,0,1,1,TRUE,FALSE,low_1,0.75,-1,3,,,,,,,,,,,165,11,3.2.2021,164.9568885
56,"['low', 1]",1,black,45,right,down,low,black_low_45_down,white_low_135_down,10,1.412357061,left,0.2700937,0,10,6,0,TRUE,3,0,1,1,TRUE,FALSE,low_1,0.75,-1,3,,,,,,,,,,,165,11,3.2.2021,164.9568885
57,"['low', 6]",6,black,45,right,up,low,black_low_45_up,white_low_135_up,1,1.357334932,right,0.8105951,1,1,2,1,FALSE,0,0,1,1,TRUE,FALSE,low_6,0.75,-1,3,,,,,,,,,,,165,11,3.2.2021,164.9568885
58,"['low', 4]",4,black,45,right,down,low,black_low_45_down,white_low_135_down,8,1.759449407,left,0.2708057,0,8,11,1,FALSE,6,1,1,1,TRUE,FALSE,low_4,0.75,-1,3,,,,,,,,,,,165,11,3.2.2021,164.9568885
59,"['high', 3]",3,white,135,right,down,high,white_high_135_down,black_high_45_down,10,1.144676709,right,0.2409895,1,10,6,1,TRUE,4,0,1,1,TRUE,FALSE,high_3,0.75,-1,3,,,,,,,,,,,165,11,3.2.2021,164.9568885
60,"['high', 4]",4,white,45,left,down,high,white_high_45_down,black_high_135_down,21,1.794889294,left,0.2836812,1,21,7,0,TRUE,3,0,1,1,TRUE,FALSE,high_4,0.75,-1,3,,,,,,,,,,,165,11,3.2.2021,164.9568885
61,"['high', 2]",2,white,135,right,up,high,white_high_135_up,black_high_45_up,16,1.291635174,right,0.1579076,1,16,8,1,FALSE,3,0,1,1,TRUE,FALSE,high_2,0.75,-1,3,,,,,,,,,,,165,11,3.2.2021,164.9568885
62,"['low', 6]",6,black,45,right,down,low,black_low_45_down,white_low_135_down,1,1.592770041,right,0.3689463,1,1,3,1,FALSE,0,0,1,1,TRUE,FALSE,low_6,0.75,-1,3,,,,,,,,,,,165,11,3.2.2021,164.9568885
63,"['high', 2]",2,black,135,left,up,high,black_high_135_up,white_high_45_up,15,1.796092293,right,0.3182202,0,15,9,1,FALSE,3,0,1,1,TRUE,FALSE,high_2,0.75,-1,3,,,,,,,,,,,165,11,3.2.2021,164.9568885
64,"['low', 2]",2,white,45,left,down,low,white_low_45_down,black_low_135_down,8,1.410954926,left,0.2958808,1,8,3,0,FALSE,1,0,1,1,TRUE,FALSE,low_2,0.75,-1,3,,,,,,,,,,,165,11,3.2.2021,164.9568885
65,"['high', 3]",3,black,45,right,up,high,black_high_45_up,white_high_135_up,9,1.137103395,right,0.3697606,1,9,7,1,FALSE,4,0,1,1,TRUE,FALSE,high_3,0.75,-1,3,,,,,,,,,,,165,11,3.2.2021,164.9568885
66,"['high', 2]",2,white,135,right,up,high,white_high_135_up,black_high_45_up,18,1.592010889,right,0.3323643,1,18,10,0,TRUE,4,0,1,1,TRUE,FALSE,high_2,0.75,-1,3,,,,,,,,,,,165,11,3.2.2021,164.9568885
67,"['low', 6]",6,white,135,right,up,low,white_low_135_up,black_low_45_up,1,1.980784994,right,0.3526013,1,1,4,1,FALSE,0,0,1,1,TRUE,FALSE,low_6,0.75,-1,3,,,,,,,,,,,165,11,3.2.2021,164.9568885
68,"['high', 1]",1,white,135,right,down,high,white_high_135_down,black_high_45_down,15,1.049751289,right,0.5698512,1,15,5,1,TRUE,3,0,1,1,TRUE,FALSE,high_1,0.75,-1,3,,,,,,,,,,,165,11,3.2.2021,164.9568885
69,"['high', 3]",3,black,45,right,up,high,black_high_45_up,white_high_135_up,8,1.079936365,left,0.1560074,0,8,8,1,FALSE,4,0,1,1,TRUE,FALSE,high_3,0.75,-1,3,,,,,,,,,,,165,11,3.2.2021,164.9568885
70,"['high', 2]",2,black,45,right,up,high,black_high_45_up,white_high_135_up,17,1.911294553,right,1.1691409,1,17,11,1,TRUE,5,1,1,1,TRUE,FALSE,high_2,0.75,-1,3,,,,,,,,,,,165,11,3.2.2021,164.9568885
71,"['high', 3]",3,white,45,left,down,high,white_high_45_down,black_high_135_down,11,1.6592455,left,0.3651656,1,11,9,0,TRUE,5,1,1,1,TRUE,FALSE,high_3,0.75,-1,3,,,,,,,,,,,165,11,3.2.2021,164.9568885
72,"['low', 3]",3,white,45,left,up,low,white_low_45_up,black_low_135_up,2,1.072103448,right,0.3494413,0,2,5,1,FALSE,2,0,1,1,TRUE,FALSE,low_3,0.75,-1,3,,,,,,,,,,,165,11,3.2.2021,164.9568885
73,"['high', 6]",6,white,45,left,up,high,white_high_45_up,black_high_135_up,13,1.139857899,left,0.3027228,1,13,3,1,TRUE,1,0,1,1,TRUE,FALSE,high_6,0.75,-1,3,,,,,,,,,,,165,11,3.2.2021,164.9568885
74,"['high', 4]",4,black,45,right,up,high,black_high_45_up,white_high_135_up,20,1.552889721,right,1.0191831,1,20,8,1,TRUE,4,0,1,1,TRUE,FALSE,high_4,0.75,-1,3,,,,,,,,,,,165,11,3.2.2021,164.9568885
75,"['low', 6]",6,white,45,left,up,low,white_low_45_up,black_low_135_up,1,1.301857806,left,0.5381726,1,1,5,1,FALSE,0,0,1,1,TRUE,FALSE,low_6,0.75,-1,3,,,,,,,,,,,165,11,3.2.2021,164.9568885
76,"['low', 3]",3,black,135,left,up,low,black_low_135_up,white_low_45_up,5,1.929406804,left,0.5144822,1,5,6,0,TRUE,3,0,1,1,TRUE,FALSE,low_3,0.75,-1,3,,,,,,,,,,,165,11,3.2.2021,164.9568885
77,"['low', 1]",1,black,45,right,up,low,black_low_45_up,white_low_135_up,13,1.088561046,left,2.1348447,0,13,7,0,FALSE,3,0,1,1,TRUE,FALSE,low_1,0.75,-1,3,,,,,,,,,,,165,11,3.2.2021,164.9568885
78,"['high', 6]",6,white,45,left,up,high,white_high_45_up,black_high_135_up,12,1.747074388,left,0.5765035,1,12,4,1,FALSE,1,0,1,1,TRUE,FALSE,high_6,0.75,-1,3,,,,,,,,,,,165,11,3.2.2021,164.9568885
79,"['high', 3]",3,black,45,right,down,high,black_high_45_down,white_high_135_down,10,1.811593252,right,0.2197506,1,10,10,1,TRUE,6,1,1,1,TRUE,FALSE,high_3,0.75,-1,3,,,,,,,,,,,165,11,3.2.2021,164.9568885
80,"['high', 2]",2,white,135,right,down,high,white_high_135_down,black_high_45_down,16,1.552252612,right,0.5778766,1,16,12,1,FALSE,5,1,1,1,TRUE,FALSE,high_2,0.75,-1,3,,,,,,,,,,,165,11,3.2.2021,164.9568885
81,"['low', 3]",3,black,135,left,down,low,black_low_135_down,white_low_45_down,4,1.608679984,right,0.3347252,0,4,7,1,TRUE,4,0,1,1,TRUE,FALSE,low_3,0.75,-1,3,,,,,,,,,,,165,11,3.2.2021,164.9568885
82,"['low', 1]",1,white,135,right,down,low,white_low_135_down,black_low_45_down,16,1.021935827,right,0.348645,1,16,8,0,FALSE,3,0,1,1,TRUE,FALSE,low_1,0.75,-1,3,,,,,,,,,,,165,11,3.2.2021,164.9568885
83,"['high', 1]",1,white,45,left,down,high,white_high_45_down,black_high_135_down,14,1.576331518,left,0.2159482,1,14,6,1,FALSE,3,0,1,1,TRUE,FALSE,high_1,0.75,-1,3,,,,,,,,,,,165,11,3.2.2021,164.9568885
84,"['low', 6]",6,black,135,left,up,low,black_low_135_up,white_low_45_up,1,1.723734701,right,0.6435194,0,1,6,1,FALSE,0,0,1,1,TRUE,FALSE,low_6,0.75,-1,3,,,,,,,,,,,165,11,3.2.2021,164.9568885
85,"['high', 2]",2,white,135,right,down,high,white_high_135_down,black_high_45_down,15,1.832505032,right,0.3113621,1,15,13,1,FALSE,5,1,1,1,TRUE,FALSE,high_2,0.75,-1,3,,,,,,,,,,,165,11,3.2.2021,164.9568885
86,"['high', 4]",4,white,135,right,up,high,white_high_135_up,black_high_45_up,19,1.337948338,right,0.4898838,1,19,9,1,FALSE,4,0,1,1,TRUE,FALSE,high_4,0.75,-1,3,,,,,,,,,,,165,11,3.2.2021,164.9568885
87,"['low', 2]",2,black,135,left,up,low,black_low_135_up,white_low_45_up,7,1.590272739,left,0.9191414,1,7,4,1,TRUE,2,0,1,1,TRUE,FALSE,low_2,0.75,-1,3,,,,,,,,,,,165,11,3.2.2021,164.9568885
88,"['high', 3]",3,black,135,left,up,high,black_high_135_up,white_high_45_up,9,1.909308378,left,0.7384218,1,9,11,1,FALSE,6,1,1,1,TRUE,FALSE,high_3,0.75,-1,3,,,,,,,,,,,165,11,3.2.2021,164.9568885
89,"['high', 4]",4,black,135,left,up,high,black_high_135_up,white_high_45_up,18,1.357606,right,0.8081584,0,18,10,1,FALSE,4,0,1,1,TRUE,FALSE,high_4,0.75,-1,3,,,,,,,,,,,165,11,3.2.2021,164.9568885
90,"['high', 6]",6,white,135,right,up,high,white_high_135_up,black_high_45_up,11,1.183568406,right,0.2471789,1,11,5,1,FALSE,1,0,1,1,TRUE,FALSE,high_6,0.75,-1,3,,,,,,,,,,,165,11,3.2.2021,164.9568885
91,"['low', 3]",3,white,45,left,down,low,white_low_45_down,black_low_135_down,7,1.517219206,left,0.2286715,1,7,8,0,TRUE,5,1,1,1,TRUE,FALSE,low_3,0.75,-1,3,,,,,,,,,,,165,11,3.2.2021,164.9568885
92,"['low', 6]",6,black,45,right,down,low,black_low_45_down,white_low_135_down,4,1.594980926,right,0.2747869,1,4,7,0,TRUE,1,0,1,1,TRUE,FALSE,low_6,0.75,-1,3,,,,,,,,,,,165,11,3.2.2021,164.9568885
93,"['high', 4]",4,black,45,right,up,high,black_high_45_up,white_high_135_up,21,1.659464815,left,1.7396071,0,21,11,0,TRUE,5,1,1,1,TRUE,FALSE,high_4,0.75,-1,3,,,,,,,,,,,165,11,3.2.2021,164.9568885
94,"['high', 4]",4,white,45,left,down,high,white_high_45_down,black_high_135_down,24,1.37847296,left,0.7754787,1,24,12,0,FALSE,5,1,1,1,TRUE,FALSE,high_4,0.75,-1,3,,,,,,,,,,,165,11,3.2.2021,164.9568885
95,"['high', 2]",2,white,135,right,down,high,white_high_135_down,black_high_45_down,14,1.217535856,right,0.2344819,1,14,14,1,FALSE,5,1,1,1,TRUE,FALSE,high_2,0.75,-1,3,,,,,,,,,,,165,11,3.2.2021,164.9568885
96,"['low', 2]",2,white,135,right,up,low,white_low_135_up,black_low_45_up,6,1.960750697,right,0.3775623,1,6,5,1,FALSE,2,0,1,1,TRUE,FALSE,low_2,0.75,-1,3,,,,,,,,,,,165,11,3.2.2021,164.9568885
97,"['high', 6]",6,black,45,right,down,high,black_high_45_down,white_high_135_down,10,1.155459302,right,0.2400597,1,10,6,1,FALSE,1,0,1,1,TRUE,FALSE,high_6,0.75,-1,3,,,,,,,,,,,165,11,3.2.2021,164.9568885
98,"['high', 6]",6,black,45,right,up,high,black_high_45_up,white_high_135_up,9,1.16837381,left,0.0495299,0,9,7,1,FALSE,1,0,1,1,TRUE,FALSE,high_6,0.75,-1,3,,,,,,,,,,,165,11,3.2.2021,164.9568885
99,"['low', 2]",2,white,45,left,up,low,white_low_45_up,black_low_135_up,5,1.561213542,left,0.6745261,1,5,6,1,FALSE,2,0,1,1,TRUE,FALSE,low_2,0.75,-1,3,,,,,,,,,,,165,11,3.2.2021,164.9568885
100,"['high', 1]",1,black,135,left,down,high,black_high_135_down,white_high_45_down,13,1.659866065,right,0.4757964,0,13,7,1,FALSE,3,0,1,1,TRUE,FALSE,high_1,0.75,-1,3,,,,,,,,,,,165,11,3.2.2021,164.9568885
101,"['high', 1]",1,black,135,left,down,high,black_high_135_down,white_high_45_down,16,1.114819741,right,0.3821001,0,16,8,0,TRUE,4,0,1,1,TRUE,FALSE,high_1,0.75,-1,3,,,,,,,,,,,165,11,3.2.2021,164.9568885
102,"['high', 6]",6,white,135,right,down,high,white_high_135_down,black_high_45_down,12,1.623092027,right,0.3298888,1,12,8,0,TRUE,2,0,1,1,TRUE,FALSE,high_6,0.75,-1,3,,,,,,,,,,,165,11,3.2.2021,164.9568885
103,"['low', 4]",4,black,135,left,down,low,black_low_135_down,white_low_45_down,11,1.729638801,left,0.5818331,1,11,12,0,TRUE,7,1,1,1,TRUE,FALSE,low_4,0.75,-1,3,,,,,,,,,,,165,11,3.2.2021,164.9568885
104,"['high', 2]",2,white,135,right,up,high,white_high_135_up,black_high_45_up,13,1.065596797,right,0.3753345,1,13,15,1,FALSE,5,1,1,1,TRUE,FALSE,high_2,0.75,-1,3,,,,,,,,,,,165,11,3.2.2021,164.9568885
105,"['high', 2]",2,black,45,right,down,high,black_high_45_down,white_high_135_down,12,1.76077654,right,0.3255895,1,12,16,1,FALSE,5,1,1,1,TRUE,FALSE,high_2,0.75,-1,3,,,,,,,,,,,165,11,3.2.2021,164.9568885
106,"['low', 1]",1,black,45,right,down,low,black_low_45_down,white_low_135_down,15,1.458038255,left,0.2015457,0,15,9,1,TRUE,4,0,1,1,TRUE,FALSE,low_1,0.75,-1,3,,,,,,,,,,,165,11,3.2.2021,164.9568885
107,"['low', 6]",6,black,135,left,down,low,black_low_135_down,white_low_45_down,3,1.715284642,right,1.0523811,0,3,8,1,TRUE,2,0,1,1,TRUE,FALSE,low_6,0.75,-1,3,,,,,,,,,,,165,11,3.2.2021,164.9568885
108,"['low', 6]",6,black,135,left,down,low,black_low_135_down,white_low_45_down,6,1.455651977,left,0.3118416,1,6,9,0,TRUE,3,0,1,1,TRUE,FALSE,low_6,0.75,-1,3,,,,,,,,,,,165,11,3.2.2021,164.9568885
109,"['low', 3]",3,white,135,right,up,low,white_low_135_up,black_low_45_up,6,1.367367954,right,0.2299706,1,6,9,1,TRUE,6,1,1,1,TRUE,FALSE,low_3,0.75,-1,3,,,,,,,,,,,165,11,3.2.2021,164.9568885
110,"['low', 2]",2,black,135,left,up,low,black_low_135_up,white_low_45_up,4,1.565808924,left,0.6236605,1,4,7,1,FALSE,2,0,1,1,TRUE,FALSE,low_2,0.75,-1,3,,,,,,,,,,,165,11,3.2.2021,164.9568885
111,"['high', 4]",4,black,135,left,up,high,black_high_135_up,white_high_45_up,23,1.790244838,right,0.4350745,0,23,13,1,TRUE,6,1,1,1,TRUE,FALSE,high_4,0.75,-1,3,,,,,,,,,,,165,11,3.2.2021,164.9568885
112,"['low', 3]",3,white,45,left,down,low,white_low_45_down,black_low_135_down,5,1.320870265,left,0.3636625,1,5,10,1,FALSE,6,1,1,1,TRUE,FALSE,low_3,0.75,-1,3,,,,,,,,,,,165,11,3.2.2021,164.9568885
113,"['low', 1]",1,black,45,right,up,low,black_low_45_up,white_low_135_up,18,1.83260411,right,0.4035413,1,18,10,0,TRUE,5,1,1,1,TRUE,FALSE,low_1,0.75,-1,3,,,,,,,,,,,165,11,3.2.2021,164.9568885
114,"['low', 6]",6,black,135,left,down,low,black_low_135_down,white_low_45_down,5,1.524471981,left,0.2515896,1,5,10,1,TRUE,4,0,1,1,TRUE,FALSE,low_6,0.75,-1,3,,,,,,,,,,,165,11,3.2.2021,164.9568885
115,"['high', 6]",6,black,135,left,down,high,black_high_135_down,white_high_45_down,11,1.921792462,left,0.275252,1,11,9,1,TRUE,3,0,1,1,TRUE,FALSE,high_6,0.75,-1,3,,,,,,,,,,,165,11,3.2.2021,164.9568885
116,"['high', 4]",4,white,135,right,down,high,white_high_135_down,black_high_45_down,26,1.635461429,right,0.3868003,1,26,14,0,TRUE,7,1,1,1,TRUE,FALSE,high_4,0.75,-1,3,,,,,,,,,,,165,11,3.2.2021,164.9568885
117,"['high', 1]",1,black,45,right,up,high,black_high_45_up,white_high_135_up,19,1.06873637,left,0.3695289,0,19,9,0,FALSE,4,0,1,1,TRUE,FALSE,high_1,0.75,-1,3,,,,,,,,,,,165,11,3.2.2021,164.9568885
118,"['low', 6]",6,black,45,right,up,low,black_low_45_up,white_low_135_up,4,1.819586047,right,0.2126291,1,4,11,1,FALSE,4,0,1,1,TRUE,FALSE,low_6,0.75,-1,3,,,,,,,,,,,165,11,3.2.2021,164.9568885
119,"['high', 6]",6,white,135,right,down,high,white_high_135_down,black_high_45_down,10,1.807172849,right,0.2123241,1,10,10,1,FALSE,3,0,1,1,TRUE,FALSE,high_6,0.75,-1,3,,,,,,,,,,,165,11,3.2.2021,164.9568885
120,"['low', 2]",2,black,45,right,down,low,black_low_45_down,white_low_135_down,3,1.859984671,left,1.0086191,0,3,8,1,FALSE,2,0,1,1,TRUE,FALSE,low_2,0.75,-1,3,,,,,,,,,,,165,11,3.2.2021,164.9568885
121,"['low', 2]",2,black,45,right,down,low,black_low_45_down,white_low_135_down,6,1.79091872,right,0.4727255,1,6,9,0,TRUE,3,0,1,1,TRUE,FALSE,low_2,0.75,-1,3,,,,,,,,,,,165,11,3.2.2021,164.9568885
122,"['low', 4]",4,black,45,right,down,low,black_low_45_down,white_low_135_down,10,1.926980179,right,0.3788917,1,10,13,1,TRUE,8,1,1,1,TRUE,FALSE,low_4,0.75,-1,3,,,,,,,,,,,165,11,3.2.2021,164.9568885
123,"['high', 1]",1,white,45,left,up,high,white_high_45_up,black_high_135_up,22,1.248831032,left,0.2573964,1,22,10,0,FALSE,4,0,1,1,TRUE,FALSE,high_1,0.75,-1,3,,,,,,,,,,,165,11,3.2.2021,164.9568885
124,"['high', 2]",2,black,135,left,up,high,black_high_135_up,white_high_45_up,11,1.639299194,right,0.3136573,0,11,17,1,FALSE,5,1,1,1,TRUE,FALSE,high_2,0.75,-1,3,,,,,,,,,,,165,11,3.2.2021,164.9568885
125,"['high', 6]",6,white,135,right,up,high,white_high_135_up,black_high_45_up,9,1.987513435,right,0.2780464,1,9,11,1,FALSE,3,0,1,1,TRUE,FALSE,high_6,0.75,-1,3,,,,,,,,,,,165,11,3.2.2021,164.9568885
126,"['low', 4]",4,white,45,left,up,low,white_low_45_up,black_low_135_up,9,1.3730582,left,0.020641,1,9,14,1,FALSE,8,1,1,1,TRUE,FALSE,low_4,0.75,-1,3,,,,,,,,,,,165,11,3.2.2021,164.9568885
127,"['high', 2]",2,black,135,left,up,high,black_high_135_up,white_high_45_up,14,1.37164355,right,0.2894339,0,14,18,0,TRUE,6,1,1,1,TRUE,FALSE,high_2,0.75,-1,3,,,,,,,,,,,165,11,3.2.2021,164.9568885
128,"['high', 3]",3,black,45,right,up,high,black_high_45_up,white_high_135_up,8,1.83242681,left,0.2835996,0,8,12,1,FALSE,6,1,1,1,TRUE,FALSE,high_3,0.75,-1,3,,,,,,,,,,,165,11,3.2.2021,164.9568885
129,"['high', 1]",1,white,45,left,down,high,white_high_45_down,black_high_135_down,21,1.199128907,left,0.265104,1,21,11,1,TRUE,5,1,1,1,TRUE,FALSE,high_1,0.75,-1,3,,,,,,,,,,,165,11,3.2.2021,164.9568885
130,"['high', 4]",4,black,135,left,down,high,black_high_135_down,white_high_45_down,25,1.242053495,right,0.6186932,0,25,15,1,TRUE,8,1,1,1,TRUE,FALSE,high_4,0.75,-1,3,,,,,,,,,,,165,11,3.2.2021,164.9568885
131,"['high', 4]",4,white,45,left,down,high,white_high_45_down,black_high_135_down,28,1.207320761,left,0.5986558,1,28,16,0,TRUE,9,1,1,1,TRUE,FALSE,high_4,0.75,-1,3,,,,,,,,,,,165,11,3.2.2021,164.9568885
132,"['low', 1]",1,white,45,left,up,low,white_low_45_up,black_low_135_up,17,1.478391899,left,0.3988336,1,17,11,1,TRUE,6,1,1,1,TRUE,FALSE,low_1,0.75,-1,3,,,,,,,,,,,165,11,3.2.2021,164.9568885
133,"['high', 3]",3,black,135,left,up,high,black_high_135_up,white_high_45_up,11,1.027960895,right,0.4206252,0,11,13,0,TRUE,7,1,1,1,TRUE,FALSE,high_3,0.75,-1,3,,,,,,,,,,,165,11,3.2.2021,164.9568885
134,"['high', 1]",1,black,45,right,down,high,black_high_45_down,white_high_135_down,20,1.748528066,left,0.3714901,0,20,12,1,FALSE,5,1,1,1,TRUE,FALSE,high_1,0.75,-1,3,,,,,,,,,,,165,11,3.2.2021,164.9568885
135,"['low', 2]",2,white,45,left,down,low,white_low_45_down,black_low_135_down,5,1.082168761,left,0.63681,1,5,10,1,TRUE,4,0,1,1,TRUE,FALSE,low_2,0.75,-1,3,,,,,,,,,,,165,11,3.2.2021,164.9568885
136,"['high', 4]",4,white,135,right,down,high,white_high_135_down,black_high_45_down,27,1.643293403,right,0.543301,1,27,17,1,TRUE,10,1,1,1,TRUE,FALSE,high_4,0.75,-1,3,,,,,,,,,,,165,11,3.2.2021,164.9568885
137,"['low', 3]",3,white,135,right,down,low,white_low_135_down,black_low_45_down,4,1.39717046,right,0.4110245,1,4,11,1,FALSE,6,1,1,1,TRUE,FALSE,low_3,0.75,-1,3,,,,,,,,,,,165,11,3.2.2021,164.9568885
138,"['low', 6]",6,white,135,right,down,low,white_low_135_down,black_low_45_down,3,1.315104766,right,0.4835086,1,3,12,1,FALSE,4,0,1,1,TRUE,FALSE,low_6,0.75,-1,3,,,,,,,,,,,165,11,3.2.2021,164.9568885
139,"['low', 4]",4,white,135,right,up,low,white_low_135_up,black_low_45_up,8,1.107536313,right,0.3911897,1,8,15,1,FALSE,8,1,1,1,TRUE,FALSE,low_4,0.75,-1,3,,,,,,,,,,,165,11,3.2.2021,164.9568885
140,"['low', 1]",1,black,45,right,down,low,black_low_45_down,white_low_135_down,16,1.95583818,left,0.1491933,0,16,12,1,FALSE,6,1,1,1,TRUE,FALSE,low_1,0.75,-1,3,,,,,,,,,,,165,11,3.2.2021,164.9568885
141,"['low', 2]",2,white,135,right,down,low,white_low_135_down,black_low_45_down,4,1.475357013,right,0.2902299,1,4,11,1,FALSE,4,0,1,1,TRUE,FALSE,low_2,0.75,-1,3,,,,,,,,,,,165,11,3.2.2021,164.9568885
142,"['low', 2]",2,white,135,right,up,low,white_low_135_up,black_low_45_up,3,1.36757983,right,0.4746048,1,3,12,1,FALSE,4,0,1,1,TRUE,FALSE,low_2,0.75,-1,3,,,,,,,,,,,165,11,3.2.2021,164.9568885
143,"['low', 2]",2,black,135,left,down,low,black_low_135_down,white_low_45_down,2,1.815216731,left,0.5610924,1,2,13,1,FALSE,4,0,1,1,TRUE,FALSE,low_2,0.75,-1,3,,,,,,,,,,,165,11,3.2.2021,164.9568885
144,"['low', 3]",3,white,135,right,up,low,white_low_135_up,black_low_45_up,3,1.389135487,right,0.7248947,1,3,12,1,FALSE,6,1,1,1,TRUE,FALSE,low_3,0.75,-1,3,,,,,,,,,,,165,11,3.2.2021,164.9568885
145,"['high', 3]",3,white,135,right,up,high,white_high_135_up,black_high_45_up,14,1.04309633,right,0.3885652,1,14,14,0,FALSE,7,1,1,1,TRUE,FALSE,high_3,0.75,-1,3,,,,,,,,,,,165,11,3.2.2021,164.9568885
146,"['high', 3]",3,black,45,right,down,high,black_high_45_down,white_high_135_down,13,1.380282741,left,0.2406389,0,13,15,1,TRUE,8,1,1,1,TRUE,FALSE,high_3,0.75,-1,3,,,,,,,,,,,165,11,3.2.2021,164.9568885
147,"['low', 4]",4,white,45,left,down,low,white_low_45_down,black_low_135_down,7,1.122616855,left,0.3251139,1,7,16,1,FALSE,8,1,1,1,TRUE,FALSE,low_4,0.75,-1,3,,,,,,,,,,,165,11,3.2.2021,164.9568885
148,"['low', 2]",2,white,135,right,up,low,white_low_135_up,black_low_45_up,1,1.1995247,right,0.3606934,1,1,14,1,FALSE,4,0,1,1,TRUE,FALSE,low_2,0.75,-1,3,,,,,,,,,,,165,11,3.2.2021,164.9568885
149,"['low', 3]",3,black,135,left,down,low,black_low_135_down,white_low_45_down,2,1.333336912,right,0.3403164,0,2,13,1,FALSE,6,1,1,1,TRUE,FALSE,low_3,0.75,-1,3,,,,,,,,,,,165,11,3.2.2021,164.9568885
150,"['high', 3]",3,white,45,left,up,high,white_high_45_up,black_high_135_up,16,1.937067057,left,0.2808803,1,16,16,0,TRUE,9,1,1,1,TRUE,FALSE,high_3,0.75,-1,3,,,,,,,,,,,165,11,3.2.2021,164.9568885
151,"['high', 4]",4,white,45,left,up,high,white_high_45_up,black_high_135_up,26,1.393275392,left,0.7106609,1,26,18,1,FALSE,10,1,1,1,TRUE,FALSE,high_4,0.75,-1,3,,,,,,,,,,,165,11,3.2.2021,164.9568885
152,"['low', 4]",4,black,135,left,up,low,black_low_135_up,white_low_45_up,6,1.63634488,left,0.29709,1,6,17,1,FALSE,8,1,1,1,TRUE,FALSE,low_4,0.75,-1,3,,,,,,,,,,,165,11,3.2.2021,164.9568885
153,"['low', 2]",2,white,135,right,down,low,white_low_135_down,black_low_45_down,1,1.216010042,right,0.2856203,1,1,15,1,FALSE,4,0,1,1,TRUE,FALSE,low_2,0.75,-1,3,,,,,,,,,,,165,11,3.2.2021,164.9568885
154,"['high', 1]",1,black,45,right,up,high,black_high_45_up,white_high_135_up,23,1.909756693,left,0.2836574,0,23,13,0,TRUE,6,1,1,1,TRUE,FALSE,high_1,0.75,-1,3,,,,,,,,,,,165,11,3.2.2021,164.9568885
155,"['high', 2]",2,white,45,left,up,high,white_high_45_up,black_high_135_up,17,1.339231883,left,0.1571226,1,17,19,0,FALSE,6,1,1,1,TRUE,FALSE,high_2,0.75,-1,3,,,,,,,,,,,165,11,3.2.2021,164.9568885
156,"['low', 6]",6,black,45,right,down,low,black_low_45_down,white_low_135_down,2,1.028423636,left,0.3477536,0,2,13,1,FALSE,4,0,1,1,TRUE,FALSE,low_6,0.75,-1,3,,,,,,,,,,,165,11,3.2.2021,164.9568885
157,"['high', 2]",2,white,45,left,up,high,white_high_45_up,black_high_135_up,16,1.10087761,left,0.2435655,1,16,20,1,TRUE,7,1,1,1,TRUE,FALSE,high_2,0.75,-1,3,,,,,,,,,,,165,11,3.2.2021,164.9568885
158,"['low', 4]",4,black,135,left,up,low,black_low_135_up,white_low_45_up,5,1.99555892,left,0.2808567,1,5,18,1,FALSE,8,1,1,1,TRUE,FALSE,low_4,0.75,-1,3,,,,,,,,,,,165,11,3.2.2021,164.9568885
159,"['low', 2]",2,black,45,right,up,low,black_low_45_up,white_low_135_up,1,1.056101088,right,0.3639627,1,1,16,1,FALSE,4,0,1,1,TRUE,FALSE,low_2,0.75,-1,3,,,,,,,,,,,165,11,3.2.2021,164.9568885
160,"['low', 2]",2,black,45,right,up,low,black_low_45_up,white_low_135_up,1,1.484679824,left,0.5893701,0,1,17,1,FALSE,4,0,1,1,TRUE,FALSE,low_2,0.75,-1,3,,,,,,,,,,,165,11,3.2.2021,164.9568885
161,"['low', 4]",4,white,45,left,up,low,white_low_45_up,black_low_135_up,4,1.644039111,left,0.4040377,1,4,19,1,FALSE,8,1,1,1,TRUE,FALSE,low_4,0.75,-1,3,,,,,,,,,,,165,11,3.2.2021,164.9568885
162,"['low', 1]",1,black,45,right,down,low,black_low_45_down,white_low_135_down,19,1.624602324,left,1.0181148,0,19,13,0,TRUE,7,1,1,1,TRUE,FALSE,low_1,0.75,-1,3,,,,,,,,,,,165,11,3.2.2021,164.9568885
163,"['high', 2]",2,white,45,left,up,high,white_high_45_up,black_high_135_up,15,1.966444294,left,0.3024726,1,15,21,1,FALSE,7,1,1,1,TRUE,FALSE,high_2,0.75,-1,3,,,,,,,,,,,165,11,3.2.2021,164.9568885
164,"['low', 6]",6,black,135,left,up,low,black_low_135_up,white_low_45_up,5,1.018561367,left,0.5930271,1,5,14,0,TRUE,5,1,1,1,TRUE,FALSE,low_6,0.75,-1,3,,,,,,,,,,,165,11,3.2.2021,164.9568885
165,"['high', 3]",3,white,45,left,down,high,white_high_45_down,black_high_135_down,15,1.444055782,left,0.2484871,1,15,17,1,TRUE,10,1,1,1,TRUE,FALSE,high_3,0.75,-1,3,,,,,,,,,,,165,11,3.2.2021,164.9568885
166,"['low', 1]",1,white,135,right,up,low,white_low_135_up,black_low_45_up,22,1.175019211,right,0.255996,1,22,14,0,FALSE,7,1,1,1,TRUE,FALSE,low_1,0.75,-1,3,,,,,,,,,,,165,11,3.2.2021,164.9568885
167,"['high', 2]",2,white,135,right,down,high,white_high_135_down,black_high_45_down,14,1.8804952,right,0.2958077,1,14,22,1,FALSE,7,1,1,1,TRUE,FALSE,high_2,0.75,-1,3,,,,,,,,,,,165,11,3.2.2021,164.9568885
168,"['high', 2]",2,white,45,left,up,high,white_high_45_up,black_high_135_up,13,1.894732121,left,0.289887,1,13,23,1,FALSE,7,1,1,1,TRUE,FALSE,high_2,0.75,-1,3,,,,,,,,,,,165,11,3.2.2021,164.9568885
169,"['low', 4]",4,black,45,right,up,low,black_low_45_up,white_low_135_up,3,1.926277693,right,0.4408425,1,3,20,1,FALSE,8,1,1,1,TRUE,FALSE,low_4,0.75,-1,3,,,,,,,,,,,165,11,3.2.2021,164.9568885
170,"['high', 1]",1,black,45,right,down,high,black_high_45_down,white_high_135_down,26,1.631123154,left,0.3192471,0,26,14,0,FALSE,6,1,1,1,TRUE,FALSE,high_1,0.75,-1,3,,,,,,,,,,,165,11,3.2.2021,164.9568885
171,"['low', 6]",6,white,135,right,down,low,white_low_135_down,black_low_45_down,4,1.652917467,right,0.4265224,1,4,15,1,TRUE,6,1,1,1,TRUE,FALSE,low_6,0.75,-1,3,,,,,,,,,,,165,11,3.2.2021,164.9568885
172,"['low', 4]",4,white,45,left,up,low,white_low_45_up,black_low_135_up,2,1.998491164,left,0.4492641,1,2,21,1,FALSE,8,1,1,1,TRUE,FALSE,low_4,0.75,-1,3,,,,,,,,,,,165,11,3.2.2021,164.9568885
173,"['low', 6]",6,black,45,right,up,low,black_low_45_up,white_low_135_up,3,1.554069623,right,0.4281399,1,3,16,1,FALSE,6,1,1,1,TRUE,FALSE,low_6,0.75,-1,3,,,,,,,,,,,165,11,3.2.2021,164.9568885
174,"['high', 2]",2,black,45,right,up,high,black_high_45_up,white_high_135_up,12,1.746084213,left,0.3672763,0,12,24,1,FALSE,7,1,1,1,TRUE,FALSE,high_2,0.75,-1,3,,,,,,,,,,,165,11,3.2.2021,164.9568885
175,"['high', 2]",2,white,45,left,down,high,white_high_45_down,black_high_135_down,15,1.50689423,left,0.3072448,1,15,25,0,TRUE,8,1,1,1,TRUE,FALSE,high_2,0.75,-1,3,,,,,,,,,,,165,11,3.2.2021,164.9568885
176,"['low', 2]",2,white,135,right,up,low,white_low_135_up,black_low_45_up,4,1.1552135,right,0.5066808,1,4,18,0,TRUE,5,1,1,1,TRUE,FALSE,low_2,0.75,-1,3,,,,,,,,,,,165,11,3.2.2021,164.9568885
177,"['high', 3]",3,black,45,right,down,high,black_high_45_down,white_high_135_down,14,1.555853596,left,0.3350028,0,14,18,1,FALSE,10,1,1,1,TRUE,FALSE,high_3,0.75,-1,3,,,,,,,,,,,165,11,3.2.2021,164.9568885
178,"['low', 1]",1,black,45,right,down,low,black_low_45_down,white_low_135_down,21,1.836626312,left,0.5389957,0,21,15,1,TRUE,8,1,1,1,TRUE,FALSE,low_1,0.75,-1,3,,,,,,,,,,,165,11,3.2.2021,164.9568885
179,"['high', 6]",6,white,135,right,down,high,white_high_135_down,black_high_45_down,8,1.763426239,right,0.2422838,1,8,12,1,FALSE,3,0,1,1,TRUE,FALSE,high_6,0.75,-1,3,,,,,,,,,,,165,11,3.2.2021,164.9568885
180,"['high', 3]",3,black,135,left,down,high,black_high_135_down,white_high_45_down,17,1.737341873,left,0.6855716,1,17,19,0,TRUE,11,1,1,1,TRUE,FALSE,high_3,0.75,-1,3,,,,,,,,,,,165,11,3.2.2021,164.9568885
181,"['high', 1]",1,white,135,right,down,high,white_high_135_down,black_high_45_down,29,1.512915885,right,0.3079548,1,29,15,0,FALSE,6,1,1,1,TRUE,FALSE,high_1,0.75,-1,3,,,,,,,,,,,165,11,3.2.2021,164.9568885
182,"['low', 4]",4,black,45,right,up,low,black_low_45_up,white_low_135_up,1,1.211910143,right,0.3912685,1,1,22,1,FALSE,8,1,1,1,TRUE,FALSE,low_4,0.75,-1,3,,,,,,,,,,,165,11,3.2.2021,164.9568885
183,"['high', 3]",3,white,135,right,up,high,white_high_135_up,black_high_45_up,16,1.300751491,right,0.3071458,1,16,20,1,TRUE,12,1,1,1,TRUE,FALSE,high_3,0.75,-1,3,,,,,,,,,,,165,11,3.2.2021,164.9568885
184,"['high', 6]",6,white,135,right,down,high,white_high_135_down,black_high_45_down,7,1.643505138,right,0.3504696,1,7,13,1,FALSE,3,0,1,1,TRUE,FALSE,high_6,0.75,-1,3,,,,,,,,,,,165,11,3.2.2021,164.9568885
185,"['low', 3]",3,black,45,right,up,low,black_low_45_up,white_low_135_up,5,1.203182163,right,0.0984228,1,5,14,0,TRUE,7,1,1,1,TRUE,FALSE,low_3,0.75,-1,3,,,,,,,,,,,165,11,3.2.2021,164.9568885
186,"['low', 3]",3,black,135,left,up,low,black_low_135_up,white_low_45_up,4,1.955708436,left,0.1957326,1,4,15,1,TRUE,8,1,1,1,TRUE,FALSE,low_3,0.75,-1,3,,,,,,,,,,,165,11,3.2.2021,164.9568885
187,"['high', 6]",6,black,135,left,up,high,black_high_135_up,white_high_45_up,6,1.455371328,right,0.7905035,0,6,14,1,FALSE,3,0,1,1,TRUE,FALSE,high_6,0.75,-1,3,,,,,,,,,,,165,11,3.2.2021,164.9568885
188,"['high', 4]",4,white,45,left,up,high,white_high_45_up,black_high_135_up,25,1.662245559,left,0.4936946,1,25,19,1,FALSE,10,1,1,1,TRUE,FALSE,high_4,0.75,-1,3,,,,,,,,,,,165,11,3.2.2021,164.9568885
189,"['high', 6]",6,black,135,left,down,high,black_high_135_down,white_high_45_down,9,1.444858598,right,0.4953558,0,9,15,0,TRUE,4,0,1,1,TRUE,FALSE,high_6,0.75,-1,3,,,,,,,,,,,165,11,3.2.2021,164.9568885
190,"['low', 6]",6,black,135,left,down,low,black_low_135_down,white_low_45_down,2,1.844701095,right,0.6000906,0,2,17,1,FALSE,6,1,1,1,TRUE,FALSE,low_6,0.75,-1,3,,,,,,,,,,,165,11,3.2.2021,164.9568885
191,"['high', 2]",2,black,45,right,up,high,black_high_45_up,white_high_135_up,14,1.007550091,right,0.8987229,1,14,26,1,TRUE,9,1,1,1,TRUE,FALSE,high_2,0.75,-1,3,,,,,,,,,,,165,11,3.2.2021,164.9568885
192,"['high', 6]",6,black,45,right,down,high,black_high_45_down,white_high_135_down,12,1.013704973,left,0.3239821,0,12,16,0,FALSE,4,0,1,1,TRUE,FALSE,high_6,0.75,-1,3,,,,,,,,,,,165,11,3.2.2021,164.9568885
193,"['low', 4]",4,black,45,right,up,low,black_low_45_up,white_low_135_up,1,1.613301751,right,0.3458696,1,1,23,1,FALSE,8,1,1,1,TRUE,FALSE,low_4,0.75,-1,3,,,,,,,,,,,165,11,3.2.2021,164.9568885
194,"['high', 1]",1,black,135,left,up,high,black_high_135_up,white_high_45_up,28,1.895453227,left,0.9677895,1,28,16,1,TRUE,7,1,1,1,TRUE,FALSE,high_1,0.75,-1,3,,,,,,,,,,,165,11,3.2.2021,164.9568885
195,"['low', 6]",6,black,45,right,down,low,black_low_45_down,white_low_135_down,5,1.703241959,right,0.9572492,1,5,18,0,TRUE,7,1,1,1,TRUE,FALSE,low_6,0.75,-1,3,,,,,,,,,,,165,11,3.2.2021,164.9568885
196,"['low', 1]",1,black,135,left,up,low,black_low_135_up,white_low_45_up,24,1.677760509,left,0.728237,1,24,16,0,TRUE,9,1,1,1,TRUE,FALSE,low_1,0.75,-1,3,,,,,,,,,,,165,11,3.2.2021,164.9568885
197,"['low', 6]",6,black,45,right,down,low,black_low_45_down,white_low_135_down,4,1.323409593,right,0.8884189,1,4,19,1,TRUE,8,1,1,1,TRUE,FALSE,low_6,0.75,-1,3,,,,,,,,,,,165,11,3.2.2021,164.9568885
198,"['low', 6]",6,white,135,right,up,low,white_low_135_up,black_low_45_up,3,1.643188751,right,0.5580975,1,3,20,1,FALSE,8,1,1,1,TRUE,FALSE,low_6,0.75,-1,3,,,,,,,,,,,165,11,3.2.2021,164.9568885
199,"['low', 6]",6,white,45,left,up,low,white_low_45_up,black_low_135_up,2,1.515600076,left,0.2010376,1,2,21,1,FALSE,8,1,1,1,TRUE,FALSE,low_6,0.75,-1,3,,,,,,,,,,,165,11,3.2.2021,164.9568885
200,"['low', 6]",6,white,45,left,down,low,white_low_45_down,black_low_135_down,1,1.36357223,left,0.1910366,1,1,22,1,FALSE,8,1,1,1,TRUE,FALSE,low_6,0.75,-1,3,,,,,,,,,,,165,11,3.2.2021,164.9568885
201,"['high', 4]",4,white,135,right,down,high,white_high_135_down,black_high_45_down,24,1.239905729,right,0.5750923,1,24,20,1,FALSE,10,1,1,1,TRUE,FALSE,high_4,0.75,-1,3,,,,,,,,,,,165,11,3.2.2021,164.9568885
202,"['low', 4]",4,black,45,right,up,low,black_low_45_up,white_low_135_up,1,1.327274973,left,1.5081184,0,1,24,1,FALSE,8,1,1,1,TRUE,FALSE,low_4,0.75,-1,3,,,,,,,,,,,165,11,3.2.2021,164.9568885
203,"['high', 1]",1,white,45,left,up,high,white_high_45_up,black_high_135_up,27,1.188930695,left,0.3517519,1,27,17,1,FALSE,7,1,1,1,TRUE,FALSE,high_1,0.75,-1,3,,,,,,,,,,,165,11,3.2.2021,164.9568885
204,"['low', 4]",4,white,45,left,up,low,white_low_45_up,black_low_135_up,4,1.023966239,left,0.3041515,1,4,25,0,TRUE,9,1,1,1,TRUE,FALSE,low_4,0.75,-1,3,,,,,,,,,,,165,11,3.2.2021,164.9568885
205,"['low', 3]",3,white,135,right,down,low,white_low_135_down,black_low_45_down,3,1.099302475,right,0.2663861,1,3,16,1,FALSE,8,1,1,1,TRUE,FALSE,low_3,0.75,-1,3,,,,,,,,,,,165,11,3.2.2021,164.9568885
206,"['low', 2]",2,black,45,right,up,low,black_low_45_up,white_low_135_up,3,1.435865183,left,0.2520454,0,3,19,1,TRUE,6,1,1,1,TRUE,FALSE,low_2,0.75,-1,3,,,,,,,,,,,165,11,3.2.2021,164.9568885
207,"['low', 4]",4,white,135,right,up,low,white_low_135_up,black_low_45_up,3,1.633702348,right,0.2937919,1,3,26,1,TRUE,10,1,1,1,TRUE,FALSE,low_4,0.75,-1,3,,,,,,,,,,,165,11,3.2.2021,164.9568885
208,"['high', 1]",1,white,45,left,down,high,white_high_45_down,black_high_135_down,26,1.058048095,left,0.2774172,1,26,18,1,FALSE,7,1,1,1,TRUE,FALSE,high_1,0.75,-1,3,,,,,,,,,,,165,11,3.2.2021,164.9568885
209,"['high', 6]",6,black,45,right,up,high,black_high_45_up,white_high_135_up,15,1.91918587,right,0.4462596,1,15,17,0,FALSE,4,0,1,1,TRUE,FALSE,high_6,0.75,-1,3,,,,,,,,,,,165,11,3.2.2021,164.9568885
210,"['low', 2]",2,black,135,left,down,low,black_low_135_down,white_low_45_down,6,1.103180856,right,0.472483,0,6,20,0,TRUE,7,1,1,1,TRUE,FALSE,low_2,0.75,-1,3,,,,,,,,,,,165,11,3.2.2021,164.9568885
211,"['high', 2]",2,black,135,left,up,high,black_high_135_up,white_high_45_up,13,1.910400236,left,0.5720617,1,13,27,1,FALSE,9,1,1,1,TRUE,FALSE,high_2,0.75,-1,3,,,,,,,,,,,165,11,3.2.2021,164.9568885
212,"['high', 1]",1,white,135,right,up,high,white_high_135_up,black_high_45_up,25,1.736753453,right,0.4190158,1,25,19,1,FALSE,7,1,1,1,TRUE,FALSE,high_1,0.75,-1,3,,,,,,,,,,,165,11,3.2.2021,164.9568885
213,"['low', 4]",4,black,135,left,down,low,black_low_135_down,white_low_45_down,2,1.499468522,right,0.453136,0,2,27,1,FALSE,10,1,1,1,TRUE,FALSE,low_4,0.75,-1,3,,,,,,,,,,,165,11,3.2.2021,164.9568885
214,"['high', 3]",3,white,45,left,down,high,white_high_45_down,black_high_135_down,15,1.24162155,left,0.3202987,1,15,21,1,FALSE,12,1,1,1,TRUE,FALSE,high_3,0.75,-1,3,,,,,,,,,,,165,11,3.2.2021,164.9568885
215,"['high', 6]",6,white,45,left,up,high,white_high_45_up,black_high_135_up,14,1.596877704,left,0.5115525,1,14,18,1,TRUE,5,1,1,1,TRUE,FALSE,high_6,0.75,-1,3,,,,,,,,,,,165,11,3.2.2021,164.9568885
216,"['low', 6]",6,black,45,right,down,low,black_low_45_down,white_low_135_down,1,1.069715285,right,0.7273127,1,1,23,1,FALSE,8,1,1,1,TRUE,FALSE,low_6,0.75,-1,3,,,,,,,,,,,165,11,3.2.2021,164.9568885
217,"['low', 3]",3,black,135,left,down,low,black_low_135_down,white_low_45_down,2,1.121849314,left,0.7852772,1,2,17,1,FALSE,8,1,1,1,TRUE,FALSE,low_3,0.75,-1,3,,,,,,,,,,,165,11,3.2.2021,164.9568885
218,"['low', 4]",4,white,135,right,up,low,white_low_135_up,black_low_45_up,5,1.893048255,right,0.3666002,1,5,28,0,TRUE,11,1,1,1,TRUE,FALSE,low_4,0.75,-1,3,,,,,,,,,,,165,11,3.2.2021,164.9568885
219,"['high', 6]",6,white,135,right,up,high,white_high_135_up,black_high_45_up,13,1.539500736,right,0.4211004,1,13,19,1,FALSE,5,1,1,1,TRUE,FALSE,high_6,0.75,-1,3,,,,,,,,,,,165,11,3.2.2021,164.9568885
220,"['low', 3]",3,black,135,left,down,low,black_low_135_down,white_low_45_down,1,1.558283168,left,0.5880256,1,1,18,1,FALSE,8,1,1,1,TRUE,FALSE,low_3,0.75,-1,3,,,,,,,,,,,165,11,3.2.2021,164.9568885
221,"['low', 2]",2,white,45,left,down,low,white_low_45_down,black_low_135_down,9,1.228067571,left,0.5073361,1,9,21,0,FALSE,7,1,1,1,TRUE,FALSE,low_2,0.75,-1,3,,,,,,,,,,,165,11,3.2.2021,164.9568885
222,"['low', 3]",3,black,135,left,down,low,black_low_135_down,white_low_45_down,1,1.313827017,left,0.3847806,1,1,19,1,FALSE,8,1,1,1,TRUE,FALSE,low_3,0.75,-1,3,,,,,,,,,,,165,11,3.2.2021,164.9568885
223,"['high', 2]",2,white,45,left,down,high,white_high_45_down,black_high_135_down,12,1.885460186,left,0.4239202,1,12,28,1,FALSE,9,1,1,1,TRUE,FALSE,high_2,0.75,-1,3,,,,,,,,,,,165,11,3.2.2021,164.9568885
224,"['low', 1]",1,white,135,right,down,low,white_low_135_down,black_low_45_down,23,1.431590612,right,0.3885134,1,23,17,1,TRUE,10,1,1,1,TRUE,FALSE,low_1,0.75,-1,3,,,,,,,,,,,165,11,3.2.2021,164.9568885
225,"['high', 1]",1,white,45,left,down,high,white_high_45_down,black_high_135_down,24,1.29633065,left,0.9436256,1,24,20,1,FALSE,7,1,1,1,TRUE,FALSE,high_1,0.75,-1,3,,,,,,,,,,,165,11,3.2.2021,164.9568885
226,"['low', 2]",2,white,135,right,up,low,white_low_135_up,black_low_45_up,8,1.666731752,right,0.1024642,1,8,22,1,TRUE,8,1,1,1,TRUE,FALSE,low_2,0.75,-1,3,,,,,,,,,,,165,11,3.2.2021,164.9568885
227,"['low', 6]",6,white,45,left,up,low,white_low_45_up,black_low_135_up,1,1.984976973,left,0.2940122,1,1,24,1,FALSE,8,1,1,1,TRUE,FALSE,low_6,0.75,-1,3,,,,,,,,,,,165,11,3.2.2021,164.9568885
228,"['high', 4]",4,black,135,left,up,high,black_high_135_up,white_high_45_up,23,1.115652438,left,0.3667956,1,23,21,1,FALSE,10,1,1,1,TRUE,FALSE,high_4,0.75,-1,3,,,,,,,,,,,165,11,3.2.2021,164.9568885
229,"['low', 6]",6,white,45,left,down,low,white_low_45_down,black_low_135_down,1,1.790555366,left,0.3812926,1,1,25,1,FALSE,8,1,1,1,TRUE,FALSE,low_6,0.75,-1,3,,,,,,,,,,,165,11,3.2.2021,164.9568885
230,"['low', 3]",3,white,135,right,up,low,white_low_135_up,black_low_45_up,1,1.048499927,right,0.4930376,1,1,20,1,FALSE,8,1,1,1,TRUE,FALSE,low_3,0.75,-1,3,,,,,,,,,,,165,11,3.2.2021,164.9568885
231,"['high', 1]",1,white,135,right,up,high,white_high_135_up,black_high_45_up,23,1.14416344,right,0.5289992,1,23,21,1,FALSE,7,1,1,1,TRUE,FALSE,high_1,0.75,-1,3,,,,,,,,,,,165,11,3.2.2021,164.9568885
232,"['high', 1]",1,white,135,right,up,high,white_high_135_up,black_high_45_up,22,1.974012469,right,0.6406699,1,22,22,1,FALSE,7,1,1,1,TRUE,FALSE,high_1,0.75,-1,3,,,,,,,,,,,165,11,3.2.2021,164.9568885
233,"['high', 4]",4,white,45,left,up,high,white_high_45_up,black_high_135_up,22,1.874120975,left,0.0717272,1,22,22,1,FALSE,10,1,1,1,TRUE,FALSE,high_4,0.75,-1,3,,,,,,,,,,,165,11,3.2.2021,164.9568885
234,"['high', 1]",1,black,45,right,up,high,black_high_45_up,white_high_135_up,21,1.874916138,left,0.358162,0,21,23,1,FALSE,7,1,1,1,TRUE,FALSE,high_1,0.75,-1,3,,,,,,,,,,,165,11,3.2.2021,164.9568885
235,"['high', 2]",2,black,135,left,up,high,black_high_135_up,white_high_45_up,11,1.269600731,left,0.4064477,1,11,29,1,FALSE,9,1,1,1,TRUE,FALSE,high_2,0.75,-1,3,,,,,,,,,,,165,11,3.2.2021,164.9568885
236,"['low', 6]",6,black,135,left,down,low,black_low_135_down,white_low_45_down,1,1.900545338,right,0.4972387,0,1,26,1,FALSE,8,1,1,1,TRUE,FALSE,low_6,0.75,-1,3,,,,,,,,,,,165,11,3.2.2021,164.9568885
237,"['high', 6]",6,black,45,right,up,high,black_high_45_up,white_high_135_up,12,1.741800312,right,0.3812271,1,12,20,1,FALSE,5,1,1,1,TRUE,FALSE,high_6,0.75,-1,3,,,,,,,,,,,165,11,3.2.2021,164.9568885
238,"['high', 2]",2,white,135,right,up,high,white_high_135_up,black_high_45_up,10,1.90989087,right,0.3096269,1,10,30,1,FALSE,9,1,1,1,TRUE,FALSE,high_2,0.75,-1,3,,,,,,,,,,,165,11,3.2.2021,164.9568885
239,"['low', 2]",2,white,135,right,down,low,white_low_135_down,black_low_45_down,7,1.068457153,right,0.444944,1,7,23,1,FALSE,8,1,1,1,TRUE,FALSE,low_2,0.75,-1,3,,,,,,,,,,,165,11,3.2.2021,164.9568885
240,"['low', 3]",3,black,45,right,up,low,black_low_45_up,white_low_135_up,1,1.446919776,right,0.7380955,1,1,21,1,FALSE,8,1,1,1,TRUE,FALSE,low_3,0.75,-1,3,,,,,,,,,,,165,11,3.2.2021,164.9568885
241,"['high', 2]",2,black,135,left,down,high,black_high_135_down,white_high_45_down,9,1.572405112,right,0.5076102,0,9,31,1,FALSE,9,1,1,1,TRUE,FALSE,high_2,0.75,-1,3,,,,,,,,,,,165,11,3.2.2021,164.9568885
242,"['low', 1]",1,white,135,right,up,low,white_low_135_up,black_low_45_up,22,1.635521647,right,0.4329298,1,22,18,1,FALSE,10,1,1,1,TRUE,FALSE,low_1,0.75,-1,3,,,,,,,,,,,165,11,3.2.2021,164.9568885
243,"['low', 3]",3,black,135,left,up,low,black_low_135_up,white_low_45_up,1,1.933767037,right,2.5411326,0,1,22,1,FALSE,8,1,1,1,TRUE,FALSE,low_3,0.75,-1,3,,,,,,,,,,,165,11,3.2.2021,164.9568885
244,"['high', 1]",1,black,45,right,up,high,black_high_45_up,white_high_135_up,24,1.702970563,right,0.7823947,1,24,24,0,TRUE,8,1,1,1,TRUE,FALSE,high_1,0.75,-1,3,,,,,,,,,,,165,11,3.2.2021,164.9568885
245,"['low', 6]",6,white,45,left,up,low,white_low_45_up,black_low_135_up,4,1.667716238,left,0.2837719,1,4,27,0,TRUE,9,1,1,1,TRUE,FALSE,low_6,0.75,-1,3,,,,,,,,,,,165,11,3.2.2021,164.9568885
246,"['low', 3]",3,black,45,right,down,low,black_low_45_down,white_low_135_down,4,1.014538097,right,0.907222,1,4,23,0,TRUE,9,1,1,1,TRUE,FALSE,low_3,0.75,-1,3,,,,,,,,,,,165,11,3.2.2021,164.9568885
247,"['low', 1]",1,black,135,left,down,low,black_low_135_down,white_low_45_down,21,1.12647706,left,1.8853416,1,21,19,1,FALSE,10,1,1,1,TRUE,FALSE,low_1,0.75,-1,3,,,,,,,,,,,165,11,3.2.2021,164.9568885
248,"['low', 3]",3,white,135,right,up,low,white_low_135_up,black_low_45_up,3,1.324533232,right,0.4139591,1,3,24,1,TRUE,10,1,1,1,TRUE,FALSE,low_3,0.75,-1,3,,,,,,,,,,,165,11,3.2.2021,164.9568885
249,"['high', 2]",2,black,45,right,down,high,black_high_45_down,white_high_135_down,12,1.668824245,left,0.6038445,0,12,32,0,TRUE,10,1,1,1,TRUE,FALSE,high_2,0.75,-1,3,,,,,,,,,,,165,11,3.2.2021,164.9568885
250,"['low', 2]",2,black,45,right,down,low,black_low_45_down,white_low_135_down,6,1.306511683,left,0.4440109,0,6,24,1,FALSE,8,1,1,1,TRUE,FALSE,low_2,0.75,-1,3,,,,,,,,,,,165,11,3.2.2021,164.9568885
251,"['low', 6]",6,black,45,right,down,low,black_low_45_down,white_low_135_down,3,1.924766079,left,0.6367897,0,3,28,1,TRUE,10,1,1,1,TRUE,FALSE,low_6,0.75,-1,3,,,,,,,,,,,165,11,3.2.2021,164.9568885
252,"['low', 2]",2,black,45,right,down,low,black_low_45_down,white_low_135_down,9,1.832818697,left,0.2984843,0,9,25,0,TRUE,9,1,1,1,TRUE,FALSE,low_2,0.75,-1,3,,,,,,,,,,,165,11,3.2.2021,164.9568885
253,"['high', 1]",1,black,45,right,up,high,black_high_45_up,white_high_135_up,23,1.236923914,right,1.0243235,1,23,25,1,TRUE,9,1,1,1,TRUE,FALSE,high_1,0.75,-1,3,,,,,,,,,,,165,11,3.2.2021,164.9568885
254,"['low', 3]",3,white,135,right,down,low,white_low_135_down,black_low_45_down,2,1.66234937,right,0.3536034,1,2,25,1,FALSE,10,1,1,1,TRUE,FALSE,low_3,0.75,-1,3,,,,,,,,,,,165,11,3.2.2021,164.9568885
255,"['high', 4]",4,black,45,right,down,high,black_high_45_down,white_high_135_down,21,1.350508403,right,0.4078179,1,21,23,1,FALSE,10,1,1,1,TRUE,FALSE,high_4,0.75,-1,3,,,,,,,,,,,165,11,3.2.2021,164.9568885
256,"['low', 1]",1,black,45,right,up,low,black_low_45_up,white_low_135_up,20,1.231735254,left,0.5228356,0,20,20,1,FALSE,10,1,1,1,TRUE,FALSE,low_1,0.75,-1,3,,,,,,,,,,,165,11,3.2.2021,164.9568885
257,"['high', 1]",1,white,45,left,down,high,white_high_45_down,black_high_135_down,22,1.716147962,left,0.4409585,1,22,26,1,FALSE,9,1,1,1,TRUE,FALSE,high_1,0.75,-1,3,,,,,,,,,,,165,11,3.2.2021,164.9568885
258,"['low', 1]",1,black,135,left,down,low,black_low_135_down,white_low_45_down,23,1.353964995,right,1.0801931,0,23,21,0,TRUE,11,1,1,1,TRUE,FALSE,low_1,0.75,-1,3,,,,,,,,,,,165,11,3.2.2021,164.9568885
259,"['high', 6]",6,black,45,right,down,high,black_high_45_down,white_high_135_down,11,1.76014358,right,0.3909792,1,11,21,1,FALSE,5,1,1,1,TRUE,FALSE,high_6,0.75,-1,3,,,,,,,,,,,165,11,3.2.2021,164.9568885
260,"['low', 2]",2,black,45,right,down,low,black_low_45_down,white_low_135_down,12,1.505174761,right,0.5360381,1,12,26,0,FALSE,9,1,1,1,TRUE,FALSE,low_2,0.75,-1,3,,,,,,,,,,,165,11,3.2.2021,164.9568885
261,"['high', 3]",3,white,135,right,up,high,white_high_135_up,black_high_45_up,14,1.777827453,right,0.3537502,1,14,22,1,FALSE,12,1,1,1,TRUE,FALSE,high_3,0.75,-1,3,,,,,,,,,,,165,11,3.2.2021,164.9568885
262,"['high', 4]",4,black,45,right,up,high,black_high_45_up,white_high_135_up,20,1.042566825,right,0.2843526,1,20,24,1,FALSE,10,1,1,1,TRUE,FALSE,high_4,0.75,-1,3,,,,,,,,,,,165,11,3.2.2021,164.9568885
263,"['low', 4]",4,black,45,right,down,low,black_low_45_down,white_low_135_down,4,1.79920685,left,0.8229651,0,4,29,1,TRUE,12,1,1,1,TRUE,FALSE,low_4,0.75,-1,3,,,,,,,,,,,165,11,3.2.2021,164.9568885
264,"['high', 1]",1,black,45,right,down,high,black_high_45_down,white_high_135_down,21,1.210561395,left,0.5709548,0,21,27,1,FALSE,9,1,1,1,TRUE,FALSE,high_1,0.75,-1,3,,,,,,,,,,,165,11,3.2.2021,164.9568885
265,"['high', 1]",1,black,135,left,down,high,black_high_135_down,white_high_45_down,24,1.875839003,left,0.4607996,1,24,28,0,TRUE,10,1,1,1,TRUE,FALSE,high_1,0.75,-1,3,,,,,,,,,,,165,11,3.2.2021,164.9568885
266,"['low', 6]",6,black,135,left,down,low,black_low_135_down,white_low_45_down,6,1.22981865,left,0.2969709,1,6,29,0,TRUE,11,1,1,1,TRUE,FALSE,low_6,0.75,-1,3,,,,,,,,,,,165,11,3.2.2021,164.9568885
267,"['high', 4]",4,white,135,right,up,high,white_high_135_up,black_high_45_up,19,1.737602549,right,0.4791892,1,19,25,1,FALSE,10,1,1,1,TRUE,FALSE,high_4,0.75,-1,3,,,,,,,,,,,165,11,3.2.2021,164.9568885
268,"['low', 3]",3,white,135,right,up,low,white_low_135_up,black_low_45_up,1,1.814270218,right,0.3939141,1,1,26,1,FALSE,10,1,1,1,TRUE,FALSE,low_3,0.75,-1,3,,,,,,,,,,,165,11,3.2.2021,164.9568885
269,"['high', 4]",4,black,45,right,up,high,black_high_45_up,white_high_135_up,18,1.587309453,right,0.3930679,1,18,26,1,FALSE,10,1,1,1,TRUE,FALSE,high_4,0.75,-1,3,,,,,,,,,,,165,11,3.2.2021,164.9568885
270,"['high', 3]",3,black,135,left,down,high,black_high_135_down,white_high_45_down,13,1.303847749,right,0.9029488,0,13,23,1,FALSE,12,1,1,1,TRUE,FALSE,high_3,0.75,-1,3,,,,,,,,,,,165,11,3.2.2021,164.9568885
271,"['low', 6]",6,black,135,left,up,low,black_low_135_up,white_low_45_up,5,1.352612881,left,0.5400831,1,5,30,1,TRUE,12,1,1,1,TRUE,FALSE,low_6,0.75,-1,3,,,,,,,,,,,165,11,3.2.2021,164.9568885
272,"['high', 1]",1,black,45,right,up,high,black_high_45_up,white_high_135_up,23,1.343828515,right,0.6145818,1,23,29,1,TRUE,11,1,1,1,TRUE,FALSE,high_1,0.75,-1,3,,,,,,,,,,,165,11,3.2.2021,164.9568885
273,"['high', 2]",2,white,45,left,up,high,white_high_45_up,black_high_135_up,15,1.708435369,right,0.5954695,0,15,33,0,FALSE,10,1,1,1,TRUE,FALSE,high_2,0.75,-1,3,,,,,,,,,,,165,11,3.2.2021,164.9568885
274,"['high', 3]",3,black,135,left,down,high,black_high_135_down,white_high_45_down,16,1.113344899,left,0.3502198,1,16,24,0,TRUE,13,1,1,1,TRUE,FALSE,high_3,0.75,-1,3,,,,,,,,,,,165,11,3.2.2021,164.9568885
275,"['high', 6]",6,white,45,left,up,high,white_high_45_up,black_high_135_up,10,1.060902482,left,0.1717606,1,10,22,1,FALSE,5,1,1,1,TRUE,FALSE,high_6,0.75,-1,3,,,,,,,,,,,165,11,3.2.2021,164.9568885
276,"['high', 3]",3,black,45,right,down,high,black_high_45_down,white_high_135_down,15,1.437884359,right,0.2724832,1,15,25,1,TRUE,14,1,1,1,TRUE,FALSE,high_3,0.75,-1,3,,,,,,,,,,,165,11,3.2.2021,164.9568885
277,"['low', 6]",6,black,45,right,down,low,black_low_45_down,white_low_135_down,4,1.512708597,left,0.2791916,0,4,31,1,FALSE,12,1,1,1,TRUE,FALSE,low_6,0.75,-1,3,,,,,,,,,,,165,11,3.2.2021,164.9568885
278,"['low', 3]",3,black,45,right,up,low,black_low_45_up,white_low_135_up,1,1.417206427,right,0.2392509,1,1,27,1,FALSE,10,1,1,1,TRUE,FALSE,low_3,0.75,-1,3,,,,,,,,,,,165,11,3.2.2021,164.9568885
279,"['low', 1]",1,black,135,left,up,low,black_low_135_up,white_low_45_up,26,1.885367374,left,0.6170234,1,26,22,0,FALSE,11,1,1,1,TRUE,FALSE,low_1,0.75,-1,3,,,,,,,,,,,165,11,3.2.2021,164.9568885
280,"['low', 2]",2,white,135,right,down,low,white_low_135_down,black_low_45_down,11,1.476513324,right,0.296859,1,11,27,1,TRUE,10,1,1,1,TRUE,FALSE,low_2,0.75,-1,3,,,,,,,,,,,165,11,3.2.2021,164.9568885
281,"['high', 1]",1,white,135,right,up,high,white_high_135_up,black_high_45_up,22,1.623805688,right,0.3885305,1,22,30,1,FALSE,11,1,1,1,TRUE,FALSE,high_1,0.75,-1,3,,,,,,,,,,,165,11,3.2.2021,164.9568885
282,"['high', 2]",2,black,45,right,down,high,black_high_45_down,white_high_135_down,18,1.648118758,right,0.5747036,1,18,34,0,FALSE,10,1,1,1,TRUE,FALSE,high_2,0.75,-1,3,,,,,,,,,,,165,11,3.2.2021,164.9568885
283,"['low', 2]",2,black,45,right,up,low,black_low_45_up,white_low_135_up,10,1.878325806,right,0.355536,1,10,28,1,FALSE,10,1,1,1,TRUE,FALSE,low_2,0.75,-1,3,,,,,,,,,,,165,11,3.2.2021,164.9568885
284,"['low', 4]",4,black,135,left,up,low,black_low_135_up,white_low_45_up,7,1.857049957,left,0.2647275,1,7,30,0,TRUE,13,1,1,1,TRUE,FALSE,low_4,0.75,-1,3,,,,,,,,,,,165,11,3.2.2021,164.9568885
285,"['low', 1]",1,black,45,right,up,low,black_low_45_up,white_low_135_up,25,1.502577086,right,0.3751825,1,25,23,1,TRUE,12,1,1,1,TRUE,FALSE,low_1,0.75,-1,3,,,,,,,,,,,165,11,3.2.2021,164.9568885
286,"['low', 1]",1,black,45,right,down,low,black_low_45_down,white_low_135_down,24,1.197948203,right,1.3544406,1,24,24,1,FALSE,12,1,1,1,TRUE,FALSE,low_1,0.75,-1,3,,,,,,,,,,,165,11,3.2.2021,164.9568885
287,"['low', 6]",6,black,135,left,up,low,black_low_135_up,white_low_45_up,7,1.199951062,left,0.2114527,1,7,32,0,TRUE,13,1,1,1,TRUE,FALSE,low_6,0.75,-1,3,,,,,,,,,,,165,11,3.2.2021,164.9568885
288,"['high', 2]",2,black,45,right,up,high,black_high_45_up,white_high_135_up,17,1.675080434,right,0.2914042,1,17,35,1,TRUE,11,1,1,1,TRUE,FALSE,high_2,0.75,-1,3,,,,,,,,,,,165,11,3.2.2021,164.9568885
289,"['low', 3]",3,black,135,left,down,low,black_low_135_down,white_low_45_down,1,1.220633023,right,0.4560143,0,1,28,1,FALSE,10,1,1,1,TRUE,FALSE,low_3,0.75,-1,3,,,,,,,,,,,165,11,3.2.2021,164.9568885
290,"['low', 2]",2,white,45,left,up,low,white_low_45_up,black_low_135_up,9,1.082084763,left,0.3221336,1,9,29,1,FALSE,10,1,1,1,TRUE,FALSE,low_2,0.75,-1,3,,,,,,,,,,,165,11,3.2.2021,164.9568885
291,"['high', 2]",2,white,45,left,down,high,white_high_45_down,black_high_135_down,16,1.499072556,left,0.3676632,1,16,36,1,FALSE,11,1,1,1,TRUE,FALSE,high_2,0.75,-1,3,,,,,,,,,,,165,11,3.2.2021,164.9568885
292,"['high', 2]",2,white,135,right,up,high,white_high_135_up,black_high_45_up,15,1.139201177,right,0.3662773,1,15,37,1,FALSE,11,1,1,1,TRUE,FALSE,high_2,0.75,-1,3,,,,,,,,,,,165,11,3.2.2021,164.9568885
293,"['low', 2]",2,black,135,left,up,low,black_low_135_up,white_low_45_up,8,1.572208641,left,0.3960448,1,8,30,1,FALSE,10,1,1,1,TRUE,FALSE,low_2,0.75,-1,3,,,,,,,,,,,165,11,3.2.2021,164.9568885
294,"['high', 1]",1,black,45,right,down,high,black_high_45_down,white_high_135_down,21,1.555348131,left,0.3493253,0,21,31,1,FALSE,11,1,1,1,TRUE,FALSE,high_1,0.75,-1,3,,,,,,,,,,,165,11,3.2.2021,164.9568885
295,"['low', 3]",3,white,135,right,up,low,white_low_135_up,black_low_45_up,4,1.550737972,right,0.3785743,1,4,29,0,TRUE,11,1,1,1,TRUE,FALSE,low_3,0.75,-1,3,,,,,,,,,,,165,11,3.2.2021,164.9568885
296,"['low', 1]",1,black,45,right,down,low,black_low_45_down,white_low_135_down,23,1.511374861,right,0.5400606,1,23,25,1,FALSE,12,1,1,1,TRUE,FALSE,low_1,0.75,-1,3,,,,,,,,,,,165,11,3.2.2021,164.9568885
297,"['low', 6]",6,white,45,left,up,low,white_low_45_up,black_low_135_up,6,1.678801241,left,0.2671708,1,6,33,1,TRUE,14,1,1,1,TRUE,FALSE,low_6,0.75,-1,3,,,,,,,,,,,165,11,3.2.2021,164.9568885
298,"['low', 1]",1,white,45,left,up,low,white_low_45_up,black_low_135_up,22,1.236288538,left,0.4417447,1,22,26,1,FALSE,12,1,1,1,TRUE,FALSE,low_1,0.75,-1,3,,,,,,,,,,,165,11,3.2.2021,164.9568885
299,"['high', 3]",3,white,135,right,down,high,white_high_135_down,black_high_45_down,14,1.840745223,right,0.4200422,1,14,26,1,FALSE,14,1,1,1,TRUE,FALSE,high_3,0.75,-1,3,,,,,,,,,,,165,11,3.2.2021,164.9568885
300,"['high', 1]",1,black,135,left,down,high,black_high_135_down,white_high_45_down,24,1.426246416,left,0.6113034,1,24,32,0,TRUE,12,1,1,1,TRUE,FALSE,high_1,0.75,-1,3,,,,,,,,,,,165,11,3.2.2021,164.9568885
301,"['low', 4]",4,black,45,right,up,low,black_low_45_up,white_low_135_up,6,1.330626896,right,0.3184964,1,6,31,1,TRUE,14,1,1,1,TRUE,FALSE,low_4,0.75,-1,3,,,,,,,,,,,165,11,3.2.2021,164.9568885
302,"['low', 6]",6,white,45,left,up,low,white_low_45_up,black_low_135_up,5,1.915706446,left,0.1907599,1,5,34,1,FALSE,14,1,1,1,TRUE,FALSE,low_6,0.75,-1,3,,,,,,,,,,,165,11,3.2.2021,164.9568885
303,"['high', 2]",2,black,45,right,up,high,black_high_45_up,white_high_135_up,14,1.307941919,right,0.3457371,1,14,38,1,FALSE,11,1,1,1,TRUE,FALSE,high_2,0.75,-1,3,,,,,,,,,,,165,11,3.2.2021,164.9568885
304,"['low', 2]",2,white,135,right,up,low,white_low_135_up,black_low_45_up,7,1.11370045,right,0.2780778,1,7,31,1,FALSE,10,1,1,1,TRUE,FALSE,low_2,0.75,-1,3,,,,,,,,,,,165,11,3.2.2021,164.9568885
305,"['high', 3]",3,black,45,right,up,high,black_high_45_up,white_high_135_up,13,1.656252293,left,0.4693917,0,13,27,1,FALSE,14,1,1,1,TRUE,FALSE,high_3,0.75,-1,3,,,,,,,,,,,165,11,3.2.2021,164.9568885
306,"['high', 3]",3,white,45,left,up,high,white_high_45_up,black_high_135_up,16,1.309889081,left,0.2335305,1,16,28,0,TRUE,15,1,1,1,TRUE,FALSE,high_3,0.75,-1,3,,,,,,,,,,,165,11,3.2.2021,164.9568885
307,"['high', 1]",1,black,135,left,down,high,black_high_135_down,white_high_45_down,23,1.20333013,right,0.4674667,0,23,33,1,TRUE,13,1,1,1,TRUE,FALSE,high_1,0.75,-1,3,,,,,,,,,,,165,11,3.2.2021,164.9568885
308,"['high', 2]",2,black,45,right,down,high,black_high_45_down,white_high_135_down,13,1.09153443,left,0.3062901,0,13,39,1,FALSE,11,1,1,1,TRUE,FALSE,high_2,0.75,-1,3,,,,,,,,,,,165,11,3.2.2021,164.9568885
309,"['high', 2]",2,white,45,left,up,high,white_high_45_up,black_high_135_up,16,1.884011963,left,0.3348328,1,16,40,0,TRUE,12,1,1,1,TRUE,FALSE,high_2,0.75,-1,3,,,,,,,,,,,165,11,3.2.2021,164.9568885
310,"['high', 6]",6,white,45,left,down,high,white_high_45_down,black_high_135_down,9,1.014659812,left,0.3190526,1,9,23,1,FALSE,5,1,1,1,TRUE,FALSE,high_6,0.75,-1,3,,,,,,,,,,,165,11,3.2.2021,164.9568885
311,"['low', 3]",3,white,45,left,up,low,white_low_45_up,black_low_135_up,3,1.463762716,left,0.4937421,1,3,30,1,TRUE,12,1,1,1,TRUE,FALSE,low_3,0.75,-1,3,,,,,,,,,,,165,11,3.2.2021,164.9568885
312,"['low', 1]",1,black,45,right,up,low,black_low_45_up,white_low_135_up,21,1.502325463,right,0.933717,1,21,27,1,FALSE,12,1,1,1,TRUE,FALSE,low_1,0.75,-1,3,,,,,,,,,,,165,11,3.2.2021,164.9568885
313,"['high', 4]",4,black,45,right,down,high,black_high_45_down,white_high_135_down,17,1.502614664,right,0.3527501,1,17,27,1,FALSE,10,1,1,1,TRUE,FALSE,high_4,0.75,-1,3,,,,,,,,,,,165,11,3.2.2021,164.9568885
314,"['low', 2]",2,black,135,left,up,low,black_low_135_up,white_low_45_up,6,1.885515459,left,0.4985638,1,6,32,1,FALSE,10,1,1,1,TRUE,FALSE,low_2,0.75,-1,3,,,,,,,,,,,165,11,3.2.2021,164.9568885
315,"['low', 3]",3,white,135,right,up,low,white_low_135_up,black_low_45_up,2,1.552962031,right,0.2376711,1,2,31,1,FALSE,12,1,1,1,TRUE,FALSE,low_3,0.75,-1,3,,,,,,,,,,,165,11,3.2.2021,164.9568885
316,"['high', 2]",2,white,45,left,down,high,white_high_45_down,black_high_135_down,15,1.419357006,left,0.2663698,1,15,41,1,TRUE,13,1,1,1,TRUE,FALSE,high_2,0.75,-1,3,,,,,,,,,,,165,11,3.2.2021,164.9568885
317,"['high', 1]",1,black,45,right,up,high,black_high_45_up,white_high_135_up,26,1.70443136,left,0.5617684,0,26,34,0,TRUE,14,1,1,1,TRUE,FALSE,high_1,0.75,-1,3,,,,,,,,,,,165,11,3.2.2021,164.9568885
318,"['low', 1]",1,black,135,left,up,low,black_low_135_up,white_low_45_up,20,1.767204183,left,0.4455704,1,20,28,1,FALSE,12,1,1,1,TRUE,FALSE,low_1,0.75,-1,3,,,,,,,,,,,165,11,3.2.2021,164.9568885
319,"['low', 6]",6,white,135,right,up,low,white_low_135_up,black_low_45_up,4,1.477351045,right,0.3179309,1,4,35,1,FALSE,14,1,1,1,TRUE,FALSE,low_6,0.75,-1,3,,,,,,,,,,,165,11,3.2.2021,164.9568885
320,"['high', 6]",6,black,135,left,up,high,black_high_135_up,white_high_45_up,8,1.406070291,right,0.2866596,0,8,24,1,FALSE,5,1,1,1,TRUE,FALSE,high_6,0.75,-1,3,,,,,,,,,,,165,11,3.2.2021,164.9568885
321,"['low', 1]",1,white,45,left,down,low,white_low_45_down,black_low_135_down,19,1.850912592,left,0.0833849,1,19,29,1,FALSE,12,1,1,1,TRUE,FALSE,low_1,0.75,-1,3,,,,,,,,,,,165,11,3.2.2021,164.9568885
322,"['high', 3]",3,white,135,right,up,high,white_high_135_up,black_high_45_up,15,1.52952497,right,0.425691,1,15,29,1,TRUE,16,1,1,1,TRUE,FALSE,high_3,0.75,-1,3,,,,,,,,,,,165,11,3.2.2021,164.9568885
323,"['low', 6]",6,white,45,left,down,low,white_low_45_down,black_low_135_down,3,1.718697278,left,0.3434923,1,3,36,1,FALSE,14,1,1,1,TRUE,FALSE,low_6,0.75,-1,3,,,,,,,,,,,165,11,3.2.2021,164.9568885
324,"['low', 6]",6,black,45,right,up,low,black_low_45_up,white_low_135_up,2,1.83621983,right,0.2352305,1,2,37,1,FALSE,14,1,1,1,TRUE,FALSE,low_6,0.75,-1,3,,,,,,,,,,,165,11,3.2.2021,164.9568885
325,"['high', 2]",2,black,45,right,down,high,black_high_45_down,white_high_135_down,14,1.868418549,left,0.2923181,0,14,42,1,FALSE,13,1,1,1,TRUE,FALSE,high_2,0.75,-1,3,,,,,,,,,,,165,11,3.2.2021,164.9568885
326,"['low', 3]",3,white,135,right,up,low,white_low_135_up,black_low_45_up,1,1.456262633,right,0.1266563,1,1,32,1,FALSE,12,1,1,1,TRUE,FALSE,low_3,0.75,-1,3,,,,,,,,,,,165,11,3.2.2021,164.9568885
327,"['high', 1]",1,white,45,left,up,high,white_high_45_up,black_high_135_up,29,1.872093136,left,0.4281813,1,29,35,0,FALSE,14,1,1,1,TRUE,FALSE,high_1,0.75,-1,3,,,,,,,,,,,165,11,3.2.2021,164.9568885
328,"['high', 4]",4,white,135,right,down,high,white_high_135_down,black_high_45_down,16,1.327565764,right,0.3421957,1,16,28,1,FALSE,10,1,1,1,TRUE,FALSE,high_4,0.75,-1,3,,,,,,,,,,,165,11,3.2.2021,164.9568885
329,"['low', 4]",4,white,135,right,up,low,white_low_135_up,black_low_45_up,5,1.828818776,right,0.2753577,1,5,32,1,FALSE,14,1,1,1,TRUE,FALSE,low_4,0.75,-1,3,,,,,,,,,,,165,11,3.2.2021,164.9568885
330,"['low', 3]",3,white,135,right,up,low,white_low_135_up,black_low_45_up,1,1.050433244,right,0.1964673,1,1,33,1,FALSE,12,1,1,1,TRUE,FALSE,low_3,0.75,-1,3,,,,,,,,,,,165,11,3.2.2021,164.9568885
331,"['low', 4]",4,white,135,right,down,low,white_low_135_down,black_low_45_down,4,1.757795965,right,0.273997,1,4,33,1,FALSE,14,1,1,1,TRUE,FALSE,low_4,0.75,-1,3,,,,,,,,,,,165,11,3.2.2021,164.9568885
332,"['low', 2]",2,black,45,right,up,low,black_low_45_up,white_low_135_up,5,1.059734719,left,0.2316611,0,5,33,1,FALSE,10,1,1,1,TRUE,FALSE,low_2,0.75,-1,3,,,,,,,,,,,165,11,3.2.2021,164.9568885
333,"['high', 6]",6,white,135,right,up,high,white_high_135_up,black_high_45_up,11,1.216738615,right,0.0062595,1,11,25,0,TRUE,6,1,1,1,TRUE,FALSE,high_6,0.75,-1,3,,,,,,,,,,,165,11,3.2.2021,164.9568885
334,"['high', 2]",2,white,135,right,up,high,white_high_135_up,black_high_45_up,17,1.415432578,right,0.3171337,1,17,43,0,TRUE,14,1,1,1,TRUE,FALSE,high_2,0.75,-1,3,,,,,,,,,,,165,11,3.2.2021,164.9568885
335,"['low', 1]",1,black,135,left,up,low,black_low_135_up,white_low_45_up,18,1.147091636,left,0.5627625,1,18,30,1,FALSE,12,1,1,1,TRUE,FALSE,low_1,0.75,-1,3,,,,,,,,,,,165,11,3.2.2021,164.9568885
336,"['high', 4]",4,white,135,right,down,high,white_high_135_down,black_high_45_down,15,1.550682123,right,0.3313419,1,15,29,1,FALSE,10,1,1,1,TRUE,FALSE,high_4,0.75,-1,3,,,,,,,,,,,165,11,3.2.2021,164.9568885
337,"['high', 3]",3,black,45,right,down,high,black_high_45_down,white_high_135_down,14,1.837798792,left,0.3178863,0,14,30,1,FALSE,16,1,1,1,TRUE,FALSE,high_3,0.75,-1,3,,,,,,,,,,,165,11,3.2.2021,164.9568885
338,"['high', 1]",1,white,135,right,up,high,white_high_135_up,black_high_45_up,28,1.709035574,right,0.6539824,1,28,36,1,TRUE,15,1,1,1,TRUE,FALSE,high_1,0.75,-1,3,,,,,,,,,,,165,11,3.2.2021,164.9568885
339,"['low', 6]",6,black,45,right,up,low,black_low_45_up,white_low_135_up,1,1.881340757,right,0.4214005,1,1,38,1,FALSE,14,1,1,1,TRUE,FALSE,low_6,0.75,-1,3,,,,,,,,,,,165,11,3.2.2021,164.9568885
340,"['high', 3]",3,white,45,left,down,high,white_high_45_down,black_high_135_down,17,1.638148829,left,0.4640959,1,17,31,0,TRUE,17,1,1,1,TRUE,FALSE,high_3,0.75,-1,3,,,,,,,,,,,165,11,3.2.2021,164.9568885
341,"['low', 6]",6,white,135,right,down,low,white_low_135_down,black_low_45_down,1,1.822556334,right,0.3880453,1,1,39,1,FALSE,14,1,1,1,TRUE,FALSE,low_6,0.75,-1,3,,,,,,,,,,,165,11,3.2.2021,164.9568885
342,"['low', 2]",2,black,135,left,down,low,black_low_135_down,white_low_45_down,8,1.73961774,left,0.5725851,1,8,34,0,TRUE,11,1,1,1,TRUE,FALSE,low_2,0.75,-1,3,,,,,,,,,,,165,11,3.2.2021,164.9568885
343,"['high', 4]",4,black,45,right,up,high,black_high_45_up,white_high_135_up,14,1.7195123,right,0.3436637,1,14,30,1,FALSE,10,1,1,1,TRUE,FALSE,high_4,0.75,-1,3,,,,,,,,,,,165,11,3.2.2021,164.9568885
344,"['low', 6]",6,black,135,left,up,low,black_low_135_up,white_low_45_up,1,1.82086652,left,0.4090207,1,1,40,1,FALSE,14,1,1,1,TRUE,FALSE,low_6,0.75,-1,3,,,,,,,,,,,165,11,3.2.2021,164.9568885
345,"['low', 3]",3,white,135,right,up,low,white_low_135_up,black_low_45_up,1,1.154471088,right,0.6917173,1,1,34,1,FALSE,12,1,1,1,TRUE,FALSE,low_3,0.75,-1,3,,,,,,,,,,,165,11,3.2.2021,164.9568885
346,"['low', 3]",3,white,135,right,down,low,white_low_135_down,black_low_45_down,1,1.234273533,right,0.2903804,1,1,35,1,FALSE,12,1,1,1,TRUE,FALSE,low_3,0.75,-1,3,,,,,,,,,,,165,11,3.2.2021,164.9568885
347,"['high', 3]",3,black,45,right,down,high,black_high_45_down,white_high_135_down,16,1.568140209,left,0.380871,0,16,32,1,TRUE,18,1,1,1,TRUE,FALSE,high_3,0.75,-1,3,,,,,,,,,,,165,11,3.2.2021,164.9568885
348,"['high', 3]",3,black,135,left,up,high,black_high_135_up,white_high_45_up,19,1.279369563,left,0.6053865,1,19,33,0,TRUE,19,1,1,1,TRUE,FALSE,high_3,0.75,-1,3,,,,,,,,,,,165,11,3.2.2021,164.9568885
349,"['low', 6]",6,black,135,left,down,low,black_low_135_down,white_low_45_down,1,1.253068035,left,0.7163884,1,1,41,1,FALSE,14,1,1,1,TRUE,FALSE,low_6,0.75,-1,3,,,,,,,,,,,165,11,3.2.2021,164.9568885
350,"['low', 4]",4,white,135,right,down,low,white_low_135_down,black_low_45_down,3,1.586750812,right,0.4876472,1,3,34,1,FALSE,14,1,1,1,TRUE,FALSE,low_4,0.75,-1,3,,,,,,,,,,,165,11,3.2.2021,164.9568885
351,"['low', 2]",2,black,135,left,down,low,black_low_135_down,white_low_45_down,7,1.670863708,right,0.3555062,0,7,35,1,TRUE,12,1,1,1,TRUE,FALSE,low_2,0.75,-1,3,,,,,,,,,,,165,11,3.2.2021,164.9568885
352,"['low', 4]",4,white,135,right,down,low,white_low_135_down,black_low_45_down,2,1.464320047,right,0.1895128,1,2,35,1,FALSE,14,1,1,1,TRUE,FALSE,low_4,0.75,-1,3,,,,,,,,,,,165,11,3.2.2021,164.9568885
353,"['high', 3]",3,white,45,left,up,high,white_high_45_up,black_high_135_up,18,1.320545214,left,0.284897,1,18,34,1,TRUE,20,1,1,1,TRUE,FALSE,high_3,0.75,-1,3,,,,,,,,,,,165,11,3.2.2021,164.9568885
354,"['low', 1]",1,white,135,right,down,low,white_low_135_down,black_low_45_down,17,1.2460561,right,0.1452215,1,17,31,1,FALSE,12,1,1,1,TRUE,FALSE,low_1,0.75,-1,3,,,,,,,,,,,165,11,3.2.2021,164.9568885
355,"['high', 3]",3,white,45,left,up,high,white_high_45_up,black_high_135_up,17,1.006187507,left,0.6824107,1,17,35,1,FALSE,20,1,1,1,TRUE,FALSE,high_3,0.75,-1,3,,,,,,,,,,,165,11,3.2.2021,164.9568885
356,"['low', 1]",1,white,45,left,down,low,white_low_45_down,black_low_135_down,16,1.609649725,left,0.5032023,1,16,32,1,FALSE,12,1,1,1,TRUE,FALSE,low_1,0.75,-1,3,,,,,,,,,,,165,11,3.2.2021,164.9568885
357,"['low', 4]",4,black,45,right,up,low,black_low_45_up,white_low_135_up,1,1.412602778,right,0.3696634,1,1,36,1,FALSE,14,1,1,1,TRUE,FALSE,low_4,0.75,-1,3,,,,,,,,,,,165,11,3.2.2021,164.9568885
358,"['high', 3]",3,black,45,right,down,high,black_high_45_down,white_high_135_down,16,1.8726919,right,0.2697208,1,16,36,1,FALSE,20,1,1,1,TRUE,FALSE,high_3,0.75,-1,3,,,,,,,,,,,165,11,3.2.2021,164.9568885
359,"['low', 2]",2,black,135,left,down,low,black_low_135_down,white_low_45_down,10,1.403772641,left,0.2370918,1,10,36,0,TRUE,13,1,1,1,TRUE,FALSE,low_2,0.75,-1,3,,,,,,,,,,,165,11,3.2.2021,164.9568885
360,"['low', 4]",4,white,45,left,up,low,white_low_45_up,black_low_135_up,1,1.008136425,left,0.4158411,1,1,37,1,FALSE,14,1,1,1,TRUE,FALSE,low_4,0.75,-1,3,,,,,,,,,,,165,11,3.2.2021,164.9568885
361,"['low', 2]",2,black,135,left,down,low,black_low_135_down,white_low_45_down,9,1.839111986,right,0.4207629,0,9,37,1,TRUE,14,1,1,1,TRUE,FALSE,low_2,0.75,-1,3,,,,,,,,,,,165,11,3.2.2021,164.9568885
362,"['low', 2]",2,white,45,left,up,low,white_low_45_up,black_low_135_up,12,1.780924604,left,0.4496135,1,12,38,0,TRUE,15,1,1,1,TRUE,FALSE,low_2,0.75,-1,3,,,,,,,,,,,165,11,3.2.2021,164.9568885
363,"['high', 6]",6,white,135,right,down,high,white_high_135_down,black_high_45_down,10,1.633580491,right,0.2628908,1,10,26,1,TRUE,7,1,1,1,TRUE,FALSE,high_6,0.75,-1,3,,,,,,,,,,,165,11,3.2.2021,164.9568885
364,"['high', 4]",4,black,135,left,down,high,black_high_135_down,white_high_45_down,13,1.838581138,left,0.2843964,1,13,31,1,FALSE,10,1,1,1,TRUE,FALSE,high_4,0.75,-1,3,,,,,,,,,,,165,11,3.2.2021,164.9568885
365,"['high', 2]",2,black,135,left,down,high,black_high_135_down,white_high_45_down,16,1.590920886,right,0.3611052,0,16,44,1,TRUE,15,1,1,1,TRUE,FALSE,high_2,0.75,-1,3,,,,,,,,,,,165,11,3.2.2021,164.9568885
366,"['high', 4]",4,white,135,right,down,high,white_high_135_down,black_high_45_down,12,1.830803916,right,0.4117507,1,12,32,1,FALSE,10,1,1,1,TRUE,FALSE,high_4,0.75,-1,3,,,,,,,,,,,165,11,3.2.2021,164.9568885
367,"['high', 1]",1,white,135,right,up,high,white_high_135_up,black_high_45_up,27,1.991505867,right,0.7165155,1,27,37,1,FALSE,15,1,1,1,TRUE,FALSE,high_1,0.75,-1,3,,,,,,,,,,,165,11,3.2.2021,164.9568885
368,"['low', 3]",3,black,135,left,down,low,black_low_135_down,white_low_45_down,1,1.905377621,right,0.5545432,0,1,36,1,FALSE,12,1,1,1,TRUE,FALSE,low_3,0.75,-1,3,,,,,,,,,,,165,11,3.2.2021,164.9568885
369,"['low', 4]",4,black,45,right,down,low,black_low_45_down,white_low_135_down,1,1.640862903,right,0.3209133,1,1,38,1,FALSE,14,1,1,1,TRUE,FALSE,low_4,0.75,-1,3,,,,,,,,,,,165,11,3.2.2021,164.9568885
370,"['high', 6]",6,black,135,left,up,high,black_high_135_up,white_high_45_up,9,1.537508642,left,0.2993807,1,9,27,1,FALSE,7,1,1,1,TRUE,FALSE,high_6,0.75,-1,3,,,,,,,,,,,165,11,3.2.2021,164.9568885
371,"['low', 2]",2,white,45,left,down,low,white_low_45_down,black_low_135_down,11,1.371443147,left,0.3207557,1,11,39,1,TRUE,16,1,1,1,TRUE,FALSE,low_2,0.75,-1,3,,,,,,,,,,,165,11,3.2.2021,164.9568885
372,"['high', 4]",4,white,45,left,down,high,white_high_45_down,black_high_135_down,11,1.616941102,left,0.4898838,1,11,33,1,FALSE,10,1,1,1,TRUE,FALSE,high_4,0.75,-1,3,,,,,,,,,,,165,11,3.2.2021,164.9568885
373,"['low', 6]",6,white,135,right,down,low,white_low_135_down,black_low_45_down,1,1.226347415,right,1.0207536,1,1,42,1,FALSE,14,1,1,1,TRUE,FALSE,low_6,0.75,-1,3,,,,,,,,,,,165,11,3.2.2021,164.9568885
374,"['high', 6]",6,black,45,right,up,high,black_high_45_up,white_high_135_up,8,1.009096679,left,0.3143628,0,8,28,1,FALSE,7,1,1,1,TRUE,FALSE,high_6,0.75,-1,3,,,,,,,,,,,165,11,3.2.2021,164.9568885
375,"['high', 2]",2,white,135,right,up,high,white_high_135_up,black_high_45_up,19,1.845230063,right,0.4134013,1,19,45,0,TRUE,16,1,1,1,TRUE,FALSE,high_2,0.75,-1,3,,,,,,,,,,,165,11,3.2.2021,164.9568885
376,"['high', 3]",3,white,45,left,down,high,white_high_45_down,black_high_135_down,15,1.323583136,left,0.3874184,1,15,37,1,FALSE,20,1,1,1,TRUE,FALSE,high_3,0.75,-1,3,,,,,,,,,,,165,11,3.2.2021,164.9568885
377,"['high', 4]",4,white,135,right,down,high,white_high_135_down,black_high_45_down,10,1.53084376,left,0.3235401,0,10,34,1,FALSE,10,1,1,1,TRUE,FALSE,high_4,0.75,-1,3,,,,,,,,,,,165,11,3.2.2021,164.9568885
378,"['high', 6]",6,black,45,right,up,high,black_high_45_up,white_high_135_up,11,1.027714188,right,0.3300081,1,11,29,0,TRUE,8,1,1,1,TRUE,FALSE,high_6,0.75,-1,3,,,,,,,,,,,165,11,3.2.2021,164.9568885
379,"['low', 4]",4,black,45,right,down,low,black_low_45_down,white_low_135_down,1,1.383935903,right,0.468292,1,1,39,1,FALSE,14,1,1,1,TRUE,FALSE,low_4,0.75,-1,3,,,,,,,,,,,165,11,3.2.2021,164.9568885
380,"['low', 4]",4,black,45,right,up,low,black_low_45_up,white_low_135_up,1,1.880775271,right,0.95627,1,1,40,1,FALSE,14,1,1,1,TRUE,FALSE,low_4,0.75,-1,3,,,,,,,,,,,165,11,3.2.2021,164.9568885
381,"['low', 4]",4,black,135,left,down,low,black_low_135_down,white_low_45_down,1,1.51849287,left,0.5074885,1,1,41,1,FALSE,14,1,1,1,TRUE,FALSE,low_4,0.75,-1,3,,,,,,,,,,,165,11,3.2.2021,164.9568885
382,"['high', 6]",6,white,45,left,down,high,white_high_45_down,black_high_135_down,10,1.321575886,left,0.4187988,1,10,30,1,TRUE,9,1,1,1,TRUE,FALSE,high_6,0.75,-1,3,,,,,,,,,,,165,11,3.2.2021,164.9568885
383,"['low', 2]",2,black,45,right,up,low,black_low_45_up,white_low_135_up,10,1.690050306,right,0.4058216,1,10,40,1,FALSE,16,1,1,1,TRUE,FALSE,low_2,0.75,-1,3,,,,,,,,,,,165,11,3.2.2021,164.9568885
384,"['high', 6]",6,white,135,right,up,high,white_high_135_up,black_high_45_up,9,1.616992605,right,0.3059721,1,9,31,1,FALSE,9,1,1,1,TRUE,FALSE,high_6,0.75,-1,3,,,,,,,,,,,165,11,3.2.2021,164.9568885
385,"['high', 6]",6,white,45,left,up,high,white_high_45_up,black_high_135_up,8,1.169147482,right,0.0670777,0,8,32,1,FALSE,9,1,1,1,TRUE,FALSE,high_6,0.75,-1,3,,,,,,,,,,,165,11,3.2.2021,164.9568885
386,"['low', 3]",3,black,45,right,up,low,black_low_45_up,white_low_135_up,4,1.035356819,right,0.0233368,1,4,37,0,TRUE,13,1,1,1,TRUE,FALSE,low_3,0.75,-1,3,,,,,,,,,,,165,11,3.2.2021,164.9568885
387,"['low', 3]",3,white,45,left,down,low,white_low_45_down,black_low_135_down,3,1.178969549,left,0.4379663,1,3,38,1,TRUE,14,1,1,1,TRUE,FALSE,low_3,0.75,-1,3,,,,,,,,,,,165,11,3.2.2021,164.9568885
388,"['low', 2]",2,white,135,right,down,low,white_low_135_down,black_low_45_down,9,1.834489109,right,0.4543772,1,9,41,1,FALSE,16,1,1,1,TRUE,FALSE,low_2,0.75,-1,3,,,,,,,,,,,165,11,3.2.2021,164.9568885
389,"['low', 2]",2,white,135,right,down,low,white_low_135_down,black_low_45_down,8,1.411887507,right,0.4286167,1,8,42,1,FALSE,16,1,1,1,TRUE,FALSE,low_2,0.75,-1,3,,,,,,,,,,,165,11,3.2.2021,164.9568885
390,"['low', 3]",3,black,45,right,down,low,black_low_45_down,white_low_135_down,2,1.72727392,left,0.3198627,0,2,39,1,FALSE,14,1,1,1,TRUE,FALSE,low_3,0.75,-1,3,,,,,,,,,,,165,11,3.2.2021,164.9568885
391,"['high', 4]",4,black,45,right,up,high,black_high_45_up,white_high_135_up,13,1.13473071,right,0.4040863,1,13,35,0,TRUE,11,1,1,1,TRUE,FALSE,high_4,0.75,-1,3,,,,,,,,,,,165,11,3.2.2021,164.9568885
392,"['low', 1]",1,black,45,right,down,low,black_low_45_down,white_low_135_down,15,1.550456705,left,0.4634454,0,15,33,1,FALSE,12,1,1,1,TRUE,FALSE,low_1,0.75,-1,3,,,,,,,,,,,165,11,3.2.2021,164.9568885
393,"['high', 4]",4,black,45,right,down,high,black_high_45_down,white_high_135_down,12,1.607849472,left,0.3122417,0,12,36,1,TRUE,12,1,1,1,TRUE,FALSE,high_4,0.75,-1,3,,,,,,,,,,,165,11,3.2.2021,164.9568885
394,"['high', 4]",4,white,135,right,up,high,white_high_135_up,black_high_45_up,15,1.425216629,right,0.3442012,1,15,37,0,TRUE,13,1,1,1,TRUE,FALSE,high_4,0.75,-1,3,,,,,,,,,,,165,11,3.2.2021,164.9568885
395,"['high', 6]",6,white,45,left,down,high,white_high_45_down,black_high_135_down,11,1.282092761,left,0.3253474,1,11,33,0,TRUE,10,1,1,1,TRUE,FALSE,high_6,0.75,-1,3,,,,,,,,,,,165,11,3.2.2021,164.9568885
396,"['high', 3]",3,white,45,left,down,high,white_high_45_down,black_high_135_down,14,1.610655246,left,0.3437426,1,14,38,1,FALSE,20,1,1,1,TRUE,FALSE,high_3,0.75,-1,3,,,,,,,,,,,165,11,3.2.2021,164.9568885
397,"['low', 2]",2,black,45,right,down,low,black_low_45_down,white_low_135_down,7,1.963451535,left,0.5515302,0,7,43,1,FALSE,16,1,1,1,TRUE,FALSE,low_2,0.75,-1,3,,,,,,,,,,,165,11,3.2.2021,164.9568885
398,"['high', 3]",3,white,135,right,up,high,white_high_135_up,black_high_45_up,13,1.191074045,right,0.3510077,1,13,39,1,FALSE,20,1,1,1,TRUE,FALSE,high_3,0.75,-1,3,,,,,,,,,,,165,11,3.2.2021,164.9568885
399,"['low', 6]",6,black,135,left,up,low,black_low_135_up,white_low_45_up,1,1.611827236,left,0.4893844,1,1,43,1,FALSE,14,1,1,1,TRUE,FALSE,low_6,0.75,-1,3,,,,,,,,,,,165,11,3.2.2021,164.9568885
400,"['high', 2]",2,black,135,left,up,high,black_high_135_up,white_high_45_up,18,1.832194015,left,0.3576034,1,18,46,1,TRUE,17,1,1,1,TRUE,FALSE,high_2,0.75,-1,3,,,,,,,,,,,165,11,3.2.2021,164.9568885
401,"['high', 4]",4,white,45,left,down,high,white_high_45_down,black_high_135_down,14,1.407415013,left,0.7439816,1,14,38,1,TRUE,14,1,1,1,TRUE,FALSE,high_4,0.75,-1,3,,,,,,,,,,,165,11,3.2.2021,164.9568885
402,"['high', 1]",1,black,135,left,down,high,black_high_135_down,white_high_45_down,26,1.60091626,right,0.6402577,0,26,38,1,FALSE,15,1,1,1,TRUE,FALSE,high_1,0.75,-1,3,,,,,,,,,,,165,11,3.2.2021,164.9568885
403,"['high', 6]",6,white,45,left,up,high,white_high_45_up,black_high_135_up,10,1.621832687,left,0.2791819,1,10,34,1,TRUE,11,1,1,1,TRUE,FALSE,high_6,0.75,-1,3,,,,,,,,,,,165,11,3.2.2021,164.9568885
404,"['high', 1]",1,black,135,left,up,high,black_high_135_up,white_high_45_up,29,1.15446225,left,0.4853024,1,29,39,0,TRUE,16,1,1,1,TRUE,FALSE,high_1,0.75,-1,3,,,,,,,,,,,165,11,3.2.2021,164.9568885
405,"['high', 3]",3,white,135,right,down,high,white_high_135_down,black_high_45_down,12,1.602217512,right,0.3242221,1,12,40,1,FALSE,20,1,1,1,TRUE,FALSE,high_3,0.75,-1,3,,,,,,,,,,,165,11,3.2.2021,164.9568885
406,"['low', 4]",4,black,45,right,up,low,black_low_45_up,white_low_135_up,1,1.956784276,right,0.3821952,1,1,42,1,FALSE,14,1,1,1,TRUE,FALSE,low_4,0.75,-1,3,,,,,,,,,,,165,11,3.2.2021,164.9568885
407,"['low', 4]",4,white,45,left,down,low,white_low_45_down,black_low_135_down,1,1.446925576,left,0.3453461,1,1,43,1,FALSE,14,1,1,1,TRUE,FALSE,low_4,0.75,-1,3,,,,,,,,,,,165,11,3.2.2021,164.9568885
408,"['high', 3]",3,white,45,left,down,high,white_high_45_down,black_high_135_down,11,1.413547596,left,0.2839474,1,11,41,1,FALSE,20,1,1,1,TRUE,FALSE,high_3,0.75,-1,3,,,,,,,,,,,165,11,3.2.2021,164.9568885
409,"['low', 1]",1,white,135,right,up,low,white_low_135_up,black_low_45_up,18,1.393065979,right,0.2025487,1,18,34,0,TRUE,13,1,1,1,TRUE,FALSE,low_1,0.75,-1,3,,,,,,,,,,,165,11,3.2.2021,164.9568885
410,"['high', 3]",3,white,45,left,down,high,white_high_45_down,black_high_135_down,10,1.548871165,left,0.3113184,1,10,42,1,FALSE,20,1,1,1,TRUE,FALSE,high_3,0.75,-1,3,,,,,,,,,,,165,11,3.2.2021,164.9568885
411,"['high', 1]",1,white,45,left,down,high,white_high_45_down,black_high_135_down,28,1.669051605,left,0.3113199,1,28,40,1,TRUE,17,1,1,1,TRUE,FALSE,high_1,0.75,-1,3,,,,,,,,,,,165,11,3.2.2021,164.9568885
412,"['high', 4]",4,black,135,left,down,high,black_high_135_down,white_high_45_down,13,1.895259146,left,0.396546,1,13,39,1,FALSE,14,1,1,1,TRUE,FALSE,high_4,0.75,-1,3,,,,,,,,,,,165,11,3.2.2021,164.9568885
413,"['low', 6]",6,white,135,right,up,low,white_low_135_up,black_low_45_up,1,1.17434636,right,1.9240864,1,1,44,1,FALSE,14,1,1,1,TRUE,FALSE,low_6,0.75,-1,3,,,,,,,,,,,165,11,3.2.2021,164.9568885
414,"['low', 2]",2,white,135,right,down,low,white_low_135_down,black_low_45_down,10,1.54694752,right,0.2987972,1,10,44,0,TRUE,17,1,1,1,TRUE,FALSE,low_2,0.75,-1,3,,,,,,,,,,,165,11,3.2.2021,164.9568885
415,"['high', 6]",6,white,135,right,down,high,white_high_135_down,black_high_45_down,9,1.138381761,right,0.4937703,1,9,35,1,FALSE,11,1,1,1,TRUE,FALSE,high_6,0.75,-1,3,,,,,,,,,,,165,11,3.2.2021,164.9568885
416,"['high', 1]",1,black,45,right,up,high,black_high_45_up,white_high_135_up,27,1.621306228,left,0.2203366,0,27,41,1,FALSE,17,1,1,1,TRUE,FALSE,high_1,0.75,-1,3,,,,,,,,,,,165,11,3.2.2021,164.9568885
417,"['high', 4]",4,white,135,right,up,high,white_high_135_up,black_high_45_up,12,1.383771095,right,0.2409624,1,12,40,1,FALSE,14,1,1,1,TRUE,FALSE,high_4,0.75,-1,3,,,,,,,,,,,165,11,3.2.2021,164.9568885
418,"['low', 4]",4,white,135,right,up,low,white_low_135_up,black_low_45_up,1,1.350690266,left,0.9924052,0,1,44,1,FALSE,14,1,1,1,TRUE,FALSE,low_4,0.75,-1,3,,,,,,,,,,,165,11,3.2.2021,164.9568885
419,"['high', 1]",1,white,45,left,down,high,white_high_45_down,black_high_135_down,30,1.903279056,left,1.0553442,1,30,42,0,TRUE,18,1,1,1,TRUE,FALSE,high_1,0.75,-1,3,,,,,,,,,,,165,11,3.2.2021,164.9568885
420,"['low', 3]",3,white,45,left,up,low,white_low_45_up,black_low_135_up,5,1.436621319,left,0.4490681,1,5,40,0,TRUE,15,1,1,1,TRUE,FALSE,low_3,0.75,-1,3,,,,,,,,,,,165,11,3.2.2021,164.9568885
421,"['low', 2]",2,black,135,left,up,low,black_low_135_up,white_low_45_up,9,1.63730876,left,0.969984,1,9,45,1,TRUE,18,1,1,1,TRUE,FALSE,low_2,0.75,-1,3,,,,,,,,,,,165,11,3.2.2021,164.9568885
422,"['low', 1]",1,white,135,right,up,low,white_low_135_up,black_low_45_up,17,1.955199747,right,0.4774162,1,17,35,1,TRUE,14,1,1,1,TRUE,FALSE,low_1,0.75,-1,3,,,,,,,,,,,165,11,3.2.2021,164.9568885
423,"['low', 6]",6,white,45,left,down,low,white_low_45_down,black_low_135_down,1,1.503869507,left,0.2187671,1,1,45,1,FALSE,14,1,1,1,TRUE,FALSE,low_6,0.75,-1,3,,,,,,,,,,,165,11,3.2.2021,164.9568885
424,"['low', 2]",2,black,135,left,up,low,black_low_135_up,white_low_45_up,8,1.227812548,left,0.2356743,1,8,46,1,FALSE,18,1,1,1,TRUE,FALSE,low_2,0.75,-1,3,,,,,,,,,,,165,11,3.2.2021,164.9568885
425,"['high', 3]",3,black,45,right,up,high,black_high_45_up,white_high_135_up,9,1.004468715,left,0.2697139,0,9,43,1,FALSE,20,1,1,1,TRUE,FALSE,high_3,0.75,-1,3,,,,,,,,,,,165,11,3.2.2021,164.9568885
426,"['high', 3]",3,black,45,right,down,high,black_high_45_down,white_high_135_down,12,1.833426534,right,0.320217,1,12,44,0,TRUE,21,1,1,1,TRUE,FALSE,high_3,0.75,-1,3,,,,,,,,,,,165,11,3.2.2021,164.9568885
427,"['high', 4]",4,black,135,left,up,high,black_high_135_up,white_high_45_up,11,1.457388132,right,0.3189461,0,11,41,1,FALSE,14,1,1,1,TRUE,FALSE,high_4,0.75,-1,3,,,,,,,,,,,165,11,3.2.2021,164.9568885
428,"['low', 1]",1,black,135,left,up,low,black_low_135_up,white_low_45_up,16,1.322703482,left,0.3443486,1,16,36,1,FALSE,14,1,1,1,TRUE,FALSE,low_1,0.75,-1,3,,,,,,,,,,,165,11,3.2.2021,164.9568885
429,"['low', 1]",1,white,45,left,up,low,white_low_45_up,black_low_135_up,15,1.375052791,left,0.3352698,1,15,37,1,FALSE,14,1,1,1,TRUE,FALSE,low_1,0.75,-1,3,,,,,,,,,,,165,11,3.2.2021,164.9568885
430,"['high', 1]",1,black,45,right,down,high,black_high_45_down,white_high_135_down,29,1.140885179,right,0.6342343,1,29,43,1,TRUE,19,1,1,1,TRUE,FALSE,high_1,0.75,-1,3,,,,,,,,,,,165,11,3.2.2021,164.9568885
431,"['low', 3]",3,black,45,right,up,low,black_low_45_up,white_low_135_up,4,1.304824117,right,0.408673,1,4,41,1,TRUE,16,1,1,1,TRUE,FALSE,low_3,0.75,-1,3,,,,,,,,,,,165,11,3.2.2021,164.9568885
432,"['low', 2]",2,black,135,left,down,low,black_low_135_down,white_low_45_down,7,1.540553347,left,0.3537349,1,7,47,1,FALSE,18,1,1,1,TRUE,FALSE,low_2,0.75,-1,3,,,,,,,,,,,165,11,3.2.2021,164.9568885
433,"['high', 3]",3,black,135,left,down,high,black_high_135_down,white_high_45_down,11,1.447229186,left,0.3813737,1,11,45,1,TRUE,22,1,1,1,TRUE,FALSE,high_3,0.75,-1,3,,,,,,,,,,,165,11,3.2.2021,164.9568885
434,"['high', 2]",2,black,45,right,down,high,black_high_45_down,white_high_135_down,17,1.490698128,right,0.3447072,1,17,47,1,FALSE,17,1,1,1,TRUE,FALSE,high_2,0.75,-1,3,,,,,,,,,,,165,11,3.2.2021,164.9568885
435,"['low', 1]",1,white,45,left,up,low,white_low_45_up,black_low_135_up,14,1.57921284,left,0.2449205,1,14,38,1,FALSE,14,1,1,1,TRUE,FALSE,low_1,0.75,-1,3,,,,,,,,,,,165,11,3.2.2021,164.9568885
436,"['high', 1]",1,white,45,left,down,high,white_high_45_down,black_high_135_down,28,1.258871738,left,0.4203143,1,28,44,1,FALSE,19,1,1,1,TRUE,FALSE,high_1,0.75,-1,3,,,,,,,,,,,165,11,3.2.2021,164.9568885
437,"['low', 6]",6,white,135,right,down,low,white_low_135_down,black_low_45_down,1,1.9669328,right,0.3012917,1,1,46,1,FALSE,14,1,1,1,TRUE,FALSE,low_6,0.75,-1,3,,,,,,,,,,,165,11,3.2.2021,164.9568885
438,"['high', 1]",1,white,135,right,down,high,white_high_135_down,black_high_45_down,27,1.871554859,right,0.3274375,1,27,45,1,FALSE,19,1,1,1,TRUE,FALSE,high_1,0.75,-1,3,,,,,,,,,,,165,11,3.2.2021,164.9568885
439,"['high', 1]",1,black,45,right,down,high,black_high_45_down,white_high_135_down,26,1.132458758,right,0.314466,1,26,46,1,FALSE,19,1,1,1,TRUE,FALSE,high_1,0.75,-1,3,,,,,,,,,,,165,11,3.2.2021,164.9568885
440,"['high', 3]",3,white,135,right,up,high,white_high_135_up,black_high_45_up,10,1.169202554,left,0.7261902,0,10,46,1,FALSE,22,1,1,1,TRUE,FALSE,high_3,0.75,-1,3,,,,,,,,,,,165,11,3.2.2021,164.9568885
441,"['high', 2]",2,black,45,right,up,high,black_high_45_up,white_high_135_up,16,1.330711022,left,0.2895593,0,16,48,1,FALSE,17,1,1,1,TRUE,FALSE,high_2,0.75,-1,3,,,,,,,,,,,165,11,3.2.2021,164.9568885
442,"['low', 3]",3,black,135,left,down,low,black_low_135_down,white_low_45_down,3,1.904114536,left,0.3398334,1,3,42,1,FALSE,16,1,1,1,TRUE,FALSE,low_3,0.75,-1,3,,,,,,,,,,,165,11,3.2.2021,164.9568885
443,"['low', 6]",6,black,135,left,up,low,black_low_135_up,white_low_45_up,1,1.536618881,left,0.2733388,1,1,47,1,FALSE,14,1,1,1,TRUE,FALSE,low_6,0.75,-1,3,,,,,,,,,,,165,11,3.2.2021,164.9568885
444,"['low', 2]",2,white,45,left,up,low,white_low_45_up,black_low_135_up,6,1.975987765,left,0.1836071,1,6,48,1,FALSE,18,1,1,1,TRUE,FALSE,low_2,0.75,-1,3,,,,,,,,,,,165,11,3.2.2021,164.9568885
445,"['high', 6]",6,black,135,left,up,high,black_high_135_up,white_high_45_up,8,1.966343861,left,0.3840922,1,8,36,1,FALSE,11,1,1,1,TRUE,FALSE,high_6,0.75,-1,3,,,,,,,,,,,165,11,3.2.2021,164.9568885
446,"['low', 3]",3,black,135,left,down,low,black_low_135_down,white_low_45_down,2,1.487924106,right,0.9605155,0,2,43,1,FALSE,16,1,1,1,TRUE,FALSE,low_3,0.75,-1,3,,,,,,,,,,,165,11,3.2.2021,164.9568885
447,"['low', 6]",6,black,135,left,up,low,black_low_135_up,white_low_45_up,1,1.953580022,right,0.2530232,0,1,48,1,FALSE,14,1,1,1,TRUE,FALSE,low_6,0.75,-1,3,,,,,,,,,,,165,11,3.2.2021,164.9568885
448,"['low', 2]",2,white,45,left,up,low,white_low_45_up,black_low_135_up,5,1.910579435,left,0.053298,1,5,49,1,FALSE,18,1,1,1,TRUE,FALSE,low_2,0.75,-1,3,,,,,,,,,,,165,11,3.2.2021,164.9568885
449,"['high', 3]",3,white,135,right,up,high,white_high_135_up,black_high_45_up,13,1.874312198,right,0.1549603,1,13,47,0,TRUE,23,1,1,1,TRUE,FALSE,high_3,0.75,-1,3,,,,,,,,,,,165,11,3.2.2021,164.9568885
450,"['low', 2]",2,black,45,right,down,low,black_low_45_down,white_low_135_down,4,1.814551474,left,0.3882099,0,4,50,1,FALSE,18,1,1,1,TRUE,FALSE,low_2,0.75,-1,3,,,,,,,,,,,165,11,3.2.2021,164.9568885
451,"['high', 6]",6,white,45,left,up,high,white_high_45_up,black_high_135_up,7,1.418410182,right,0.4086847,0,7,37,1,FALSE,11,1,1,1,TRUE,FALSE,high_6,0.75,-1,3,,,,,,,,,,,165,11,3.2.2021,164.9568885
452,"['low', 6]",6,black,45,right,down,low,black_low_45_down,white_low_135_down,4,1.176796139,right,0.1830492,1,4,49,0,TRUE,15,1,1,1,TRUE,FALSE,low_6,0.75,-1,3,,,,,,,,,,,165,11,3.2.2021,164.9568885
453,"['low', 3]",3,black,45,right,up,low,black_low_45_up,white_low_135_up,5,1.753245363,right,0.3578965,1,5,44,0,TRUE,17,1,1,1,TRUE,FALSE,low_3,0.75,-1,3,,,,,,,,,,,165,11,3.2.2021,164.9568885
454,"['low', 1]",1,white,45,left,down,low,white_low_45_down,black_low_135_down,13,1.156158385,left,0.2256447,1,13,39,1,FALSE,14,1,1,1,TRUE,FALSE,low_1,0.75,-1,3,,,,,,,,,,,165,11,3.2.2021,164.9568885
455,"['high', 3]",3,white,135,right,down,high,white_high_135_down,black_high_45_down,12,1.118927446,right,0.235075,1,12,48,1,TRUE,24,1,1,1,TRUE,FALSE,high_3,0.75,-1,3,,,,,,,,,,,165,11,3.2.2021,164.9568885
456,"['low', 1]",1,white,45,left,up,low,white_low_45_up,black_low_135_up,12,1.902911713,left,0.2110351,1,12,40,1,FALSE,14,1,1,1,TRUE,FALSE,low_1,0.75,-1,3,,,,,,,,,,,165,11,3.2.2021,164.9568885
457,"['low', 1]",1,white,45,left,up,low,white_low_45_up,black_low_135_up,11,1.3269733,left,0.2072069,1,11,41,1,FALSE,14,1,1,1,TRUE,FALSE,low_1,0.75,-1,3,,,,,,,,,,,165,11,3.2.2021,164.9568885
458,"['high', 3]",3,black,45,right,up,high,black_high_45_up,white_high_135_up,11,1.423537979,right,0.1406459,1,11,49,1,FALSE,24,1,1,1,TRUE,FALSE,high_3,0.75,-1,3,,,,,,,,,,,165,11,3.2.2021,164.9568885
459,"['low', 1]",1,black,135,left,up,low,black_low_135_up,white_low_45_up,10,1.749683305,left,0.5209002,1,10,42,1,FALSE,14,1,1,1,TRUE,FALSE,low_1,0.75,-1,3,,,,,,,,,,,165,11,3.2.2021,164.9568885
460,"['low', 2]",2,black,135,left,down,low,black_low_135_down,white_low_45_down,7,1.985998052,right,0.4710663,0,7,51,0,TRUE,19,1,1,1,TRUE,FALSE,low_2,0.75,-1,3,,,,,,,,,,,165,11,3.2.2021,164.9568885
461,"['high', 6]",6,white,135,right,down,high,white_high_135_down,black_high_45_down,10,1.151113686,right,0.3270679,1,10,38,0,TRUE,12,1,1,1,TRUE,FALSE,high_6,0.75,-1,3,,,,,,,,,,,165,11,3.2.2021,164.9568885
462,"['low', 6]",6,black,45,right,down,low,black_low_45_down,white_low_135_down,3,1.700837421,left,0.8651222,0,3,50,1,TRUE,16,1,1,1,TRUE,FALSE,low_6,0.75,-1,3,,,,,,,,,,,165,11,3.2.2021,164.9568885
463,"['high', 2]",2,black,135,left,up,high,black_high_135_up,white_high_45_up,19,1.831831775,right,0.7372892,0,19,49,0,TRUE,18,1,1,1,TRUE,FALSE,high_2,0.75,-1,3,,,,,,,,,,,165,11,3.2.2021,164.9568885
464,"['high', 1]",1,white,135,right,up,high,white_high_135_up,black_high_45_up,25,1.153585574,right,0.3129822,1,25,47,1,FALSE,19,1,1,1,TRUE,FALSE,high_1,0.75,-1,3,,,,,,,,,,,165,11,3.2.2021,164.9568885
465,"['high', 1]",1,white,45,left,down,high,white_high_45_down,black_high_135_down,24,1.646286919,left,0.4533761,1,24,48,1,FALSE,19,1,1,1,TRUE,FALSE,high_1,0.75,-1,3,,,,,,,,,,,165,11,3.2.2021,164.9568885
466,"['low', 3]",3,black,135,left,up,low,black_low_135_up,white_low_45_up,4,1.563498736,left,0.2813526,1,4,45,1,TRUE,18,1,1,1,TRUE,FALSE,low_3,0.75,-1,3,,,,,,,,,,,165,11,3.2.2021,164.9568885
467,"['low', 2]",2,white,135,right,up,low,white_low_135_up,black_low_45_up,10,1.217196553,right,0.506101,1,10,52,0,FALSE,19,1,1,1,TRUE,FALSE,low_2,0.75,-1,3,,,,,,,,,,,165,11,3.2.2021,164.9568885
468,"['high', 1]",1,white,135,right,up,high,white_high_135_up,black_high_45_up,23,1.40933747,right,0.5912842,1,23,49,1,FALSE,19,1,1,1,TRUE,FALSE,high_1,0.75,-1,3,,,,,,,,,,,165,11,3.2.2021,164.9568885
469,"['low', 4]",4,white,135,right,up,low,white_low_135_up,black_low_45_up,4,1.795863384,right,0.4139032,1,4,45,0,TRUE,15,1,1,1,TRUE,FALSE,low_4,0.75,-1,3,,,,,,,,,,,165,11,3.2.2021,164.9568885
470,"['high', 6]",6,white,135,right,down,high,white_high_135_down,black_high_45_down,9,1.374558263,left,0.4305369,0,9,39,1,TRUE,13,1,1,1,TRUE,FALSE,high_6,0.75,-1,3,,,,,,,,,,,165,11,3.2.2021,164.9568885
471,"['low', 2]",2,black,45,right,down,low,black_low_45_down,white_low_135_down,9,1.279172222,left,0.3224104,0,9,53,1,TRUE,20,1,1,1,TRUE,FALSE,low_2,0.75,-1,3,,,,,,,,,,,165,11,3.2.2021,164.9568885
472,"['high', 2]",2,white,45,left,up,high,white_high_45_up,black_high_135_up,22,1.414065742,left,0.296451,1,22,50,0,FALSE,18,1,1,1,TRUE,FALSE,high_2,0.75,-1,3,,,,,,,,,,,165,11,3.2.2021,164.9568885
473,"['low', 3]",3,black,135,left,down,low,black_low_135_down,white_low_45_down,3,1.800027432,right,0.4057052,0,3,46,1,FALSE,18,1,1,1,TRUE,FALSE,low_3,0.75,-1,3,,,,,,,,,,,165,11,3.2.2021,164.9568885
474,"['low', 2]",2,white,45,left,up,low,white_low_45_up,black_low_135_up,12,1.705637364,left,0.2848683,1,12,54,0,TRUE,21,1,1,1,TRUE,FALSE,low_2,0.75,-1,3,,,,,,,,,,,165,11,3.2.2021,164.9568885
475,"['high', 2]",2,black,135,left,down,high,black_high_135_down,white_high_45_down,21,1.111427864,left,0.3372332,1,21,51,1,TRUE,19,1,1,1,TRUE,FALSE,high_2,0.75,-1,3,,,,,,,,,,,165,11,3.2.2021,164.9568885
476,"['high', 3]",3,white,45,left,up,high,white_high_45_up,black_high_135_up,10,1.644896456,left,0.6208513,1,10,50,1,FALSE,24,1,1,1,TRUE,FALSE,high_3,0.75,-1,3,,,,,,,,,,,165,11,3.2.2021,164.9568885
477,"['low', 2]",2,white,45,left,up,low,white_low_45_up,black_low_135_up,11,1.550639133,left,0.2333214,1,11,55,1,TRUE,22,1,1,1,TRUE,FALSE,low_2,0.75,-1,3,,,,,,,,,,,165,11,3.2.2021,164.9568885
478,"['low', 6]",6,black,135,left,down,low,black_low_135_down,white_low_45_down,6,1.376282988,left,0.2477921,1,6,51,0,TRUE,17,1,1,1,TRUE,FALSE,low_6,0.75,-1,3,,,,,,,,,,,165,11,3.2.2021,164.9568885
479,"['high', 3]",3,white,135,right,down,high,white_high_135_down,black_high_45_down,9,1.530079988,right,0.2698727,1,9,51,1,FALSE,24,1,1,1,TRUE,FALSE,high_3,0.75,-1,3,,,,,,,,,,,165,11,3.2.2021,164.9568885
480,"['high', 2]",2,white,45,left,down,high,white_high_45_down,black_high_135_down,20,1.412735038,left,0.2942004,1,20,52,1,FALSE,19,1,1,1,TRUE,FALSE,high_2,0.75,-1,3,,,,,,,,,,,165,11,3.2.2021,164.9568885
481,"['low', 1]",1,black,135,left,down,low,black_low_135_down,white_low_45_down,9,1.475670937,right,0.2809139,0,9,43,1,FALSE,14,1,1,1,TRUE,FALSE,low_1,0.75,-1,3,,,,,,,,,,,165,11,3.2.2021,164.9568885
482,"['high', 2]",2,white,135,right,up,high,white_high_135_up,black_high_45_up,19,1.427389809,right,0.3418685,1,19,53,1,FALSE,19,1,1,1,TRUE,FALSE,high_2,0.75,-1,3,,,,,,,,,,,165,11,3.2.2021,164.9568885
483,"['low', 1]",1,white,45,left,down,low,white_low_45_down,black_low_135_down,12,1.978062782,left,0.228657,1,12,44,0,TRUE,15,1,1,1,TRUE,FALSE,low_1,0.75,-1,3,,,,,,,,,,,165,11,3.2.2021,164.9568885
484,"['high', 4]",4,black,135,left,down,high,black_high_135_down,white_high_45_down,14,1.189484651,left,0.3489884,1,14,42,0,TRUE,15,1,1,1,TRUE,FALSE,high_4,0.75,-1,3,,,,,,,,,,,165,11,3.2.2021,164.9568885
485,"['low', 1]",1,black,135,left,down,low,black_low_135_down,white_low_45_down,11,1.692571636,right,0.3508548,0,11,45,1,TRUE,16,1,1,1,TRUE,FALSE,low_1,0.75,-1,3,,,,,,,,,,,165,11,3.2.2021,164.9568885
486,"['low', 3]",3,white,135,right,down,low,white_low_135_down,black_low_45_down,6,1.042491403,right,0.9887153,1,6,47,0,TRUE,19,1,1,1,TRUE,FALSE,low_3,0.75,-1,3,,,,,,,,,,,165,11,3.2.2021,164.9568885
487,"['low', 2]",2,white,135,right,up,low,white_low_135_up,black_low_45_up,10,1.678467738,right,0.3080117,1,10,56,1,FALSE,22,1,1,1,TRUE,FALSE,low_2,0.75,-1,3,,,,,,,,,,,165,11,3.2.2021,164.9568885
488,"['high', 3]",3,white,45,left,down,high,white_high_45_down,black_high_135_down,8,1.537739443,left,0.316156,1,8,52,1,FALSE,24,1,1,1,TRUE,FALSE,high_3,0.75,-1,3,,,,,,,,,,,165,11,3.2.2021,164.9568885
489,"['low', 4]",4,white,135,right,up,low,white_low_135_up,black_low_45_up,3,1.191968527,right,0.301124,1,3,46,1,TRUE,16,1,1,1,TRUE,FALSE,low_4,0.75,-1,3,,,,,,,,,,,165,11,3.2.2021,164.9568885
490,"['low', 6]",6,black,135,left,up,low,black_low_135_up,white_low_45_up,5,1.896480213,left,0.4068566,1,5,52,1,TRUE,18,1,1,1,TRUE,FALSE,low_6,0.75,-1,3,,,,,,,,,,,165,11,3.2.2021,164.9568885
491,"['low', 1]",1,white,45,left,up,low,white_low_45_up,black_low_135_up,14,1.098675598,left,0.3670576,1,14,46,0,TRUE,17,1,1,1,TRUE,FALSE,low_1,0.75,-1,3,,,,,,,,,,,165,11,3.2.2021,164.9568885
492,"['low', 6]",6,black,45,right,down,low,black_low_45_down,white_low_135_down,4,1.167108913,right,0.3385792,1,4,53,1,FALSE,18,1,1,1,TRUE,FALSE,low_6,0.75,-1,3,,,,,,,,,,,165,11,3.2.2021,164.9568885
493,"['high', 1]",1,black,135,left,down,high,black_high_135_down,white_high_45_down,22,1.036442366,right,0.4359466,0,22,50,1,FALSE,19,1,1,1,TRUE,FALSE,high_1,0.75,-1,3,,,,,,,,,,,165,11,3.2.2021,164.9568885
494,"['low', 4]",4,white,135,right,down,low,white_low_135_down,black_low_45_down,2,1.968684478,right,0.7357284,1,2,47,1,FALSE,16,1,1,1,TRUE,FALSE,low_4,0.75,-1,3,,,,,,,,,,,165,11,3.2.2021,164.9568885
495,"['high', 6]",6,black,45,right,down,high,black_high_45_down,white_high_135_down,12,1.619336337,right,0.3383799,1,12,40,0,TRUE,14,1,1,1,TRUE,FALSE,high_6,0.75,-1,3,,,,,,,,,,,165,11,3.2.2021,164.9568885
496,"['low', 3]",3,black,135,left,up,low,black_low_135_up,white_low_45_up,5,1.386103977,left,0.3403927,1,5,48,1,TRUE,20,1,1,1,TRUE,FALSE,low_3,0.75,-1,3,,,,,,,,,,,165,11,3.2.2021,164.9568885
497,"['high', 3]",3,black,45,right,down,high,black_high_45_down,white_high_135_down,7,1.952306917,left,0.2763741,0,7,53,1,FALSE,24,1,1,1,TRUE,FALSE,high_3,0.75,-1,3,,,,,,,,,,,165,11,3.2.2021,164.9568885
498,"['high', 2]",2,black,135,left,up,high,black_high_135_up,white_high_45_up,18,1.678881238,right,0.8515517,0,18,54,1,FALSE,19,1,1,1,TRUE,FALSE,high_2,0.75,-1,3,,,,,,,,,,,165,11,3.2.2021,164.9568885
499,"['high', 4]",4,black,45,right,up,high,black_high_45_up,white_high_135_up,13,1.972668006,right,0.5603415,1,13,43,1,TRUE,16,1,1,1,TRUE,FALSE,high_4,0.75,-1,3,,,,,,,,,,,165,11,3.2.2021,164.9568885
