trial_number,trial_type,cycle_number,first_color,first_orientation,correct_response,visual_field,spatial_frequency,first_stim,second_stim,stimulus_frame_duration,answer,rt,accuracy,staircase_dv,staircase_trial_num,staircase_previous_correct,staircase_reversal,staircase_reversal_num,staircase_phase,staircase_step_size,staircase_powers_law,staircase_siam,staircase_over,staircase_name,staircase_conv_p,staircase_step_hit,staircase_step_miss,threshold_low1,threshold_low2,threshold_low3,threshold_low4,threshold_low6,threshold_high1,threshold_high2,threshold_high3,threshold_high4,threshold_high6,frame_rate,participant,psychopyVersion,frame_rate_detected
0,"['low', 6]",6,white,45,left,up,low,white_low_45_up,black_low_135_up,4,left,0.3067543,1,4,0,None,FALSE,0,0,1,1,TRUE,FALSE,low_6,0.75,-1,3,,,,,,,,,,,165,7,3.2.2021,164.9585212
1,"['low', 3]",3,black,45,right,down,low,black_low_45_down,white_low_135_down,4,right,0.1816071,1,4,0,None,FALSE,0,0,1,1,TRUE,FALSE,low_3,0.75,-1,3,,,,,,,,,,,165,7,3.2.2021,164.9585212
2,"['high', 1]",1,white,135,right,down,high,white_high_135_down,black_high_45_down,12,right,0.3367047,1,12,0,None,FALSE,0,0,1,1,TRUE,FALSE,high_1,0.75,-1,3,,,,,,,,,,,165,7,3.2.2021,164.9585212
3,"['low', 3]",3,black,45,right,down,low,black_low_45_down,white_low_135_down,3,right,0.3221126,1,3,1,1,FALSE,0,0,1,1,TRUE,FALSE,low_3,0.75,-1,3,,,,,,,,,,,165,7,3.2.2021,164.9585212
4,"['high', 3]",3,white,45,left,down,high,white_high_45_down,black_high_135_down,8,left,0.5887857,1,8,0,None,FALSE,0,0,1,1,TRUE,FALSE,high_3,0.75,-1,3,,,,,,,,,,,165,7,3.2.2021,164.9585212
5,"['high', 4]",4,white,45,left,up,high,white_high_45_up,black_high_135_up,8,left,0.2619003,1,8,0,None,FALSE,0,0,1,1,TRUE,FALSE,high_4,0.75,-1,3,,,,,,,,,,,165,7,3.2.2021,164.9585212
6,"['low', 1]",1,white,135,right,down,low,white_low_135_down,black_low_45_down,8,right,0.2640076,1,8,0,None,FALSE,0,0,1,1,TRUE,FALSE,low_1,0.75,-1,3,,,,,,,,,,,165,7,3.2.2021,164.9585212
7,"['low', 1]",1,white,45,left,down,low,white_low_45_down,black_low_135_down,7,right,1.6735331,0,7,1,1,FALSE,0,0,1,1,TRUE,FALSE,low_1,0.75,-1,3,,,,,,,,,,,165,7,3.2.2021,164.9585212
8,"['high', 3]",3,white,135,right,down,high,white_high_135_down,black_high_45_down,7,right,0.293808,1,7,1,1,FALSE,0,0,1,1,TRUE,FALSE,high_3,0.75,-1,3,,,,,,,,,,,165,7,3.2.2021,164.9585212
9,"['low', 4]",4,black,45,right,up,low,black_low_45_up,white_low_135_up,4,right,0.2460193,1,4,0,None,FALSE,0,0,1,1,TRUE,FALSE,low_4,0.75,-1,3,,,,,,,,,,,165,7,3.2.2021,164.9585212
10,"['low', 4]",4,white,135,right,down,low,white_low_135_down,black_low_45_down,3,right,0.2342174,1,3,1,1,FALSE,0,0,1,1,TRUE,FALSE,low_4,0.75,-1,3,,,,,,,,,,,165,7,3.2.2021,164.9585212
11,"['low', 4]",4,white,135,right,down,low,white_low_135_down,black_low_45_down,2,right,0.2379069,1,2,2,1,FALSE,0,0,1,1,TRUE,FALSE,low_4,0.75,-1,3,,,,,,,,,,,165,7,3.2.2021,164.9585212
12,"['high', 3]",3,black,135,left,down,high,black_high_135_down,white_high_45_down,6,left,1.1608244,1,6,2,1,FALSE,0,0,1,1,TRUE,FALSE,high_3,0.75,-1,3,,,,,,,,,,,165,7,3.2.2021,164.9585212
13,"['high', 3]",3,white,135,right,up,high,white_high_135_up,black_high_45_up,5,right,0.2118652,1,5,3,1,FALSE,0,0,1,1,TRUE,FALSE,high_3,0.75,-1,3,,,,,,,,,,,165,7,3.2.2021,164.9585212
14,"['high', 4]",4,black,45,right,down,high,black_high_45_down,white_high_135_down,7,right,0.1520786,1,7,1,1,FALSE,0,0,1,1,TRUE,FALSE,high_4,0.75,-1,3,,,,,,,,,,,165,7,3.2.2021,164.9585212
15,"['low', 1]",1,black,45,right,down,low,black_low_45_down,white_low_135_down,10,right,0.0824906,1,10,2,0,TRUE,1,0,1,1,TRUE,FALSE,low_1,0.75,-1,3,,,,,,,,,,,165,7,3.2.2021,164.9585212
16,"['high', 1]",1,black,45,right,down,high,black_high_45_down,white_high_135_down,11,right,0.2964311,1,11,1,1,FALSE,0,0,1,1,TRUE,FALSE,high_1,0.75,-1,3,,,,,,,,,,,165,7,3.2.2021,164.9585212
17,"['low', 1]",1,black,45,right,up,low,black_low_45_up,white_low_135_up,9,right,0.2355415,1,9,3,1,TRUE,2,0,1,1,TRUE,FALSE,low_1,0.75,-1,3,,,,,,,,,,,165,7,3.2.2021,164.9585212
18,"['high', 3]",3,white,135,right,down,high,white_high_135_down,black_high_45_down,4,right,0.162739,1,4,4,1,FALSE,0,0,1,1,TRUE,FALSE,high_3,0.75,-1,3,,,,,,,,,,,165,7,3.2.2021,164.9585212
19,"['low', 2]",2,white,135,right,down,low,white_low_135_down,black_low_45_down,4,right,0.3949923,1,4,0,None,FALSE,0,0,1,1,TRUE,FALSE,low_2,0.75,-1,3,,,,,,,,,,,165,7,3.2.2021,164.9585212
20,"['high', 1]",1,black,135,left,up,high,black_high_135_up,white_high_45_up,10,right,0.4545649,0,10,2,1,FALSE,0,0,1,1,TRUE,FALSE,high_1,0.75,-1,3,,,,,,,,,,,165,7,3.2.2021,164.9585212
21,"['high', 3]",3,black,45,right,down,high,black_high_45_down,white_high_135_down,3,right,0.4013091,1,3,5,1,FALSE,0,0,1,1,TRUE,FALSE,high_3,0.75,-1,3,,,,,,,,,,,165,7,3.2.2021,164.9585212
22,"['low', 1]",1,white,135,right,up,low,white_low_135_up,black_low_45_up,8,right,0.1729066,1,8,4,1,FALSE,2,0,1,1,TRUE,FALSE,low_1,0.75,-1,3,,,,,,,,,,,165,7,3.2.2021,164.9585212
23,"['high', 3]",3,white,45,left,up,high,white_high_45_up,black_high_135_up,2,left,1.675473,1,2,6,1,FALSE,0,0,1,1,TRUE,FALSE,high_3,0.75,-1,3,,,,,,,,,,,165,7,3.2.2021,164.9585212
24,"['low', 1]",1,black,45,right,down,low,black_low_45_down,white_low_135_down,7,right,0.516411,1,7,5,1,FALSE,2,0,1,1,TRUE,FALSE,low_1,0.75,-1,3,,,,,,,,,,,165,7,3.2.2021,164.9585212
25,"['low', 1]",1,white,135,right,down,low,white_low_135_down,black_low_45_down,6,right,0.1736827,1,6,6,1,FALSE,2,0,1,1,TRUE,FALSE,low_1,0.75,-1,3,,,,,,,,,,,165,7,3.2.2021,164.9585212
26,"['high', 1]",1,white,45,left,down,high,white_high_45_down,black_high_135_down,13,left,1.073636,1,13,3,0,TRUE,1,0,1,1,TRUE,FALSE,high_1,0.75,-1,3,,,,,,,,,,,165,7,3.2.2021,164.9585212
27,"['high', 6]",6,black,45,right,down,high,black_high_45_down,white_high_135_down,8,right,0.4136945,1,8,0,None,FALSE,0,0,1,1,TRUE,FALSE,high_6,0.75,-1,3,,,,,,,,,,,165,7,3.2.2021,164.9585212
28,"['high', 1]",1,white,135,right,up,high,white_high_135_up,black_high_45_up,12,right,0.4292648,1,12,4,1,TRUE,2,0,1,1,TRUE,FALSE,high_1,0.75,-1,3,,,,,,,,,,,165,7,3.2.2021,164.9585212
29,"['low', 6]",6,black,45,right,down,low,black_low_45_down,white_low_135_down,3,right,0.2689563,1,3,1,1,FALSE,0,0,1,1,TRUE,FALSE,low_6,0.75,-1,3,,,,,,,,,,,165,7,3.2.2021,164.9585212
30,"['high', 1]",1,black,135,left,down,high,black_high_135_down,white_high_45_down,11,left,0.6733198,1,11,5,1,FALSE,2,0,1,1,TRUE,FALSE,high_1,0.75,-1,3,,,,,,,,,,,165,7,3.2.2021,164.9585212
31,"['low', 6]",6,black,45,right,down,low,black_low_45_down,white_low_135_down,2,right,0.2751817,1,2,2,1,FALSE,0,0,1,1,TRUE,FALSE,low_6,0.75,-1,3,,,,,,,,,,,165,7,3.2.2021,164.9585212
32,"['low', 4]",4,white,45,left,up,low,white_low_45_up,black_low_135_up,1,left,0.6446916,1,1,3,1,FALSE,0,0,1,1,TRUE,FALSE,low_4,0.75,-1,3,,,,,,,,,,,165,7,3.2.2021,164.9585212
33,"['high', 1]",1,white,135,right,up,high,white_high_135_up,black_high_45_up,10,right,0.2619183,1,10,6,1,FALSE,2,0,1,1,TRUE,FALSE,high_1,0.75,-1,3,,,,,,,,,,,165,7,3.2.2021,164.9585212
34,"['high', 6]",6,black,45,right,down,high,black_high_45_down,white_high_135_down,7,right,0.2767458,1,7,1,1,FALSE,0,0,1,1,TRUE,FALSE,high_6,0.75,-1,3,,,,,,,,,,,165,7,3.2.2021,164.9585212
35,"['high', 6]",6,black,135,left,down,high,black_high_135_down,white_high_45_down,6,left,0.0929785,1,6,2,1,FALSE,0,0,1,1,TRUE,FALSE,high_6,0.75,-1,3,,,,,,,,,,,165,7,3.2.2021,164.9585212
36,"['high', 6]",6,black,45,right,up,high,black_high_45_up,white_high_135_up,5,right,0.3764343,1,5,3,1,FALSE,0,0,1,1,TRUE,FALSE,high_6,0.75,-1,3,,,,,,,,,,,165,7,3.2.2021,164.9585212
37,"['high', 2]",2,white,45,left,up,high,white_high_45_up,black_high_135_up,8,left,0.372471,1,8,0,None,FALSE,0,0,1,1,TRUE,FALSE,high_2,0.75,-1,3,,,,,,,,,,,165,7,3.2.2021,164.9585212
38,"['low', 6]",6,black,45,right,up,low,black_low_45_up,white_low_135_up,1,right,0.360353,1,1,3,1,FALSE,0,0,1,1,TRUE,FALSE,low_6,0.75,-1,3,,,,,,,,,,,165,7,3.2.2021,164.9585212
39,"['low', 3]",3,black,135,left,up,low,black_low_135_up,white_low_45_up,2,left,0.5691209,1,2,2,1,FALSE,0,0,1,1,TRUE,FALSE,low_3,0.75,-1,3,,,,,,,,,,,165,7,3.2.2021,164.9585212
40,"['high', 6]",6,white,135,right,up,high,white_high_135_up,black_high_45_up,4,right,0.3088988,1,4,4,1,FALSE,0,0,1,1,TRUE,FALSE,high_6,0.75,-1,3,,,,,,,,,,,165,7,3.2.2021,164.9585212
41,"['high', 6]",6,black,45,right,down,high,black_high_45_down,white_high_135_down,3,right,0.2817655,1,3,5,1,FALSE,0,0,1,1,TRUE,FALSE,high_6,0.75,-1,3,,,,,,,,,,,165,7,3.2.2021,164.9585212
42,"['high', 6]",6,white,135,right,down,high,white_high_135_down,black_high_45_down,2,right,0.2508794,1,2,6,1,FALSE,0,0,1,1,TRUE,FALSE,high_6,0.75,-1,3,,,,,,,,,,,165,7,3.2.2021,164.9585212
43,"['high', 4]",4,black,135,left,up,high,black_high_135_up,white_high_45_up,6,left,0.1643867,1,6,2,1,FALSE,0,0,1,1,TRUE,FALSE,high_4,0.75,-1,3,,,,,,,,,,,165,7,3.2.2021,164.9585212
44,"['low', 1]",1,black,135,left,down,low,black_low_135_down,white_low_45_down,5,left,0.5233501,1,5,7,1,FALSE,2,0,1,1,TRUE,FALSE,low_1,0.75,-1,3,,,,,,,,,,,165,7,3.2.2021,164.9585212
45,"['high', 4]",4,black,45,right,down,high,black_high_45_down,white_high_135_down,5,right,0.1634984,1,5,3,1,FALSE,0,0,1,1,TRUE,FALSE,high_4,0.75,-1,3,,,,,,,,,,,165,7,3.2.2021,164.9585212
46,"['high', 6]",6,black,45,right,down,high,black_high_45_down,white_high_135_down,1,right,0.4959418,1,1,7,1,FALSE,0,0,1,1,TRUE,FALSE,high_6,0.75,-1,3,,,,,,,,,,,165,7,3.2.2021,164.9585212
47,"['low', 3]",3,black,45,right,up,low,black_low_45_up,white_low_135_up,1,right,0.4752035,1,1,3,1,FALSE,0,0,1,1,TRUE,FALSE,low_3,0.75,-1,3,,,,,,,,,,,165,7,3.2.2021,164.9585212
48,"['low', 6]",6,black,45,right,up,low,black_low_45_up,white_low_135_up,1,right,0.2896688,1,1,4,1,FALSE,0,0,1,1,TRUE,FALSE,low_6,0.75,-1,3,,,,,,,,,,,165,7,3.2.2021,164.9585212
49,"['high', 1]",1,white,45,left,down,high,white_high_45_down,black_high_135_down,9,left,0.1770882,1,9,7,1,FALSE,2,0,1,1,TRUE,FALSE,high_1,0.75,-1,3,,,,,,,,,,,165,7,3.2.2021,164.9585212
50,"['low', 4]",4,black,135,left,down,low,black_low_135_down,white_low_45_down,1,left,0.3270901,1,1,4,1,FALSE,0,0,1,1,TRUE,FALSE,low_4,0.75,-1,3,,,,,,,,,,,165,7,3.2.2021,164.9585212
51,"['high', 1]",1,white,135,right,down,high,white_high_135_down,black_high_45_down,8,right,0.2776247,1,8,8,1,FALSE,2,0,1,1,TRUE,FALSE,high_1,0.75,-1,3,,,,,,,,,,,165,7,3.2.2021,164.9585212
52,"['high', 3]",3,black,135,left,up,high,black_high_135_up,white_high_45_up,1,right,0.3574243,0,1,7,1,FALSE,0,0,1,1,TRUE,FALSE,high_3,0.75,-1,3,,,,,,,,,,,165,7,3.2.2021,164.9585212
53,"['high', 6]",6,white,45,left,down,high,white_high_45_down,black_high_135_down,1,left,0.4149595,1,1,8,1,FALSE,0,0,1,1,TRUE,FALSE,high_6,0.75,-1,3,,,,,,,,,,,165,7,3.2.2021,164.9585212
54,"['high', 1]",1,black,135,left,up,high,black_high_135_up,white_high_45_up,7,left,0.3136087,1,7,9,1,FALSE,2,0,1,1,TRUE,FALSE,high_1,0.75,-1,3,,,,,,,,,,,165,7,3.2.2021,164.9585212
55,"['high', 1]",1,black,45,right,down,high,black_high_45_down,white_high_135_down,6,right,0.2208911,1,6,10,1,FALSE,2,0,1,1,TRUE,FALSE,high_1,0.75,-1,3,,,,,,,,,,,165,7,3.2.2021,164.9585212
56,"['high', 4]",4,black,45,right,down,high,black_high_45_down,white_high_135_down,4,right,0.170731,1,4,4,1,FALSE,0,0,1,1,TRUE,FALSE,high_4,0.75,-1,3,,,,,,,,,,,165,7,3.2.2021,164.9585212
57,"['low', 2]",2,white,135,right,up,low,white_low_135_up,black_low_45_up,3,right,0.2676784,1,3,1,1,FALSE,0,0,1,1,TRUE,FALSE,low_2,0.75,-1,3,,,,,,,,,,,165,7,3.2.2021,164.9585212
58,"['high', 3]",3,black,45,right,up,high,black_high_45_up,white_high_135_up,4,right,0.0802789,1,4,8,0,TRUE,1,0,1,1,TRUE,FALSE,high_3,0.75,-1,3,,,,,,,,,,,165,7,3.2.2021,164.9585212
59,"['high', 6]",6,white,135,right,down,high,white_high_135_down,black_high_45_down,1,right,0.3767908,1,1,9,1,FALSE,0,0,1,1,TRUE,FALSE,high_6,0.75,-1,3,,,,,,,,,,,165,7,3.2.2021,164.9585212
60,"['low', 4]",4,white,135,right,up,low,white_low_135_up,black_low_45_up,1,right,0.5084697,1,1,5,1,FALSE,0,0,1,1,TRUE,FALSE,low_4,0.75,-1,3,,,,,,,,,,,165,7,3.2.2021,164.9585212
61,"['low', 3]",3,white,135,right,down,low,white_low_135_down,black_low_45_down,1,right,0.2788876,1,1,4,1,FALSE,0,0,1,1,TRUE,FALSE,low_3,0.75,-1,3,,,,,,,,,,,165,7,3.2.2021,164.9585212
62,"['high', 1]",1,black,135,left,up,high,black_high_135_up,white_high_45_up,5,left,0.5699607,1,5,11,1,FALSE,2,0,1,1,TRUE,FALSE,high_1,0.75,-1,3,,,,,,,,,,,165,7,3.2.2021,164.9585212
63,"['high', 1]",1,black,135,left,up,high,black_high_135_up,white_high_45_up,4,left,0.7002477,1,4,12,1,FALSE,2,0,1,1,TRUE,FALSE,high_1,0.75,-1,3,,,,,,,,,,,165,7,3.2.2021,164.9585212
64,"['low', 1]",1,white,135,right,down,low,white_low_135_down,black_low_45_down,4,right,0.2546103,1,4,8,1,FALSE,2,0,1,1,TRUE,FALSE,low_1,0.75,-1,3,,,,,,,,,,,165,7,3.2.2021,164.9585212
65,"['low', 6]",6,white,135,right,up,low,white_low_135_up,black_low_45_up,1,right,0.1343511,1,1,5,1,FALSE,0,0,1,1,TRUE,FALSE,low_6,0.75,-1,3,,,,,,,,,,,165,7,3.2.2021,164.9585212
66,"['low', 1]",1,white,135,right,up,low,white_low_135_up,black_low_45_up,3,right,0.2271951,1,3,9,1,FALSE,2,0,1,1,TRUE,FALSE,low_1,0.75,-1,3,,,,,,,,,,,165,7,3.2.2021,164.9585212
67,"['low', 3]",3,black,45,right,up,low,black_low_45_up,white_low_135_up,1,right,0.1641647,1,1,5,1,FALSE,0,0,1,1,TRUE,FALSE,low_3,0.75,-1,3,,,,,,,,,,,165,7,3.2.2021,164.9585212
68,"['low', 4]",4,black,45,right,down,low,black_low_45_down,white_low_135_down,1,right,0.4353043,1,1,6,1,FALSE,0,0,1,1,TRUE,FALSE,low_4,0.75,-1,3,,,,,,,,,,,165,7,3.2.2021,164.9585212
69,"['low', 6]",6,black,135,left,down,low,black_low_135_down,white_low_45_down,1,left,0.0357146,1,1,6,1,FALSE,0,0,1,1,TRUE,FALSE,low_6,0.75,-1,3,,,,,,,,,,,165,7,3.2.2021,164.9585212
70,"['high', 2]",2,white,45,left,down,high,white_high_45_down,black_high_135_down,7,left,0.1562579,1,7,1,1,FALSE,0,0,1,1,TRUE,FALSE,high_2,0.75,-1,3,,,,,,,,,,,165,7,3.2.2021,164.9585212
71,"['low', 4]",4,white,135,right,down,low,white_low_135_down,black_low_45_down,1,right,0.0963364,1,1,7,1,FALSE,0,0,1,1,TRUE,FALSE,low_4,0.75,-1,3,,,,,,,,,,,165,7,3.2.2021,164.9585212
72,"['low', 2]",2,white,45,left,up,low,white_low_45_up,black_low_135_up,2,left,0.2087591,1,2,2,1,FALSE,0,0,1,1,TRUE,FALSE,low_2,0.75,-1,3,,,,,,,,,,,165,7,3.2.2021,164.9585212
73,"['high', 6]",6,white,135,right,up,high,white_high_135_up,black_high_45_up,1,left,0.5091941,0,1,10,1,FALSE,0,0,1,1,TRUE,FALSE,high_6,0.75,-1,3,,,,,,,,,,,165,7,3.2.2021,164.9585212
74,"['low', 3]",3,black,45,right,down,low,black_low_45_down,white_low_135_down,1,right,0.2953007,1,1,6,1,FALSE,0,0,1,1,TRUE,FALSE,low_3,0.75,-1,3,,,,,,,,,,,165,7,3.2.2021,164.9585212
75,"['low', 1]",1,white,45,left,up,low,white_low_45_up,black_low_135_up,2,left,0.3460489,1,2,10,1,FALSE,2,0,1,1,TRUE,FALSE,low_1,0.75,-1,3,,,,,,,,,,,165,7,3.2.2021,164.9585212
76,"['low', 3]",3,white,135,right,down,low,white_low_135_down,black_low_45_down,1,right,0.240262,1,1,7,1,FALSE,0,0,1,1,TRUE,FALSE,low_3,0.75,-1,3,,,,,,,,,,,165,7,3.2.2021,164.9585212
77,"['high', 2]",2,white,135,right,down,high,white_high_135_down,black_high_45_down,6,right,0.2223602,1,6,2,1,FALSE,0,0,1,1,TRUE,FALSE,high_2,0.75,-1,3,,,,,,,,,,,165,7,3.2.2021,164.9585212
78,"['high', 3]",3,white,45,left,down,high,white_high_45_down,black_high_135_down,3,left,1.2107015,1,3,9,1,TRUE,2,0,1,1,TRUE,FALSE,high_3,0.75,-1,3,,,,,,,,,,,165,7,3.2.2021,164.9585212
79,"['low', 6]",6,black,45,right,up,low,black_low_45_up,white_low_135_up,1,right,0.3884159,1,1,7,1,FALSE,0,0,1,1,TRUE,FALSE,low_6,0.75,-1,3,,,,,,,,,,,165,7,3.2.2021,164.9585212
80,"['low', 4]",4,white,135,right,up,low,white_low_135_up,black_low_45_up,1,right,0.1150331,1,1,8,1,FALSE,0,0,1,1,TRUE,FALSE,low_4,0.75,-1,3,,,,,,,,,,,165,7,3.2.2021,164.9585212
81,"['high', 3]",3,black,45,right,down,high,black_high_45_down,white_high_135_down,2,left,1.5943793,0,2,10,1,FALSE,2,0,1,1,TRUE,FALSE,high_3,0.75,-1,3,,,,,,,,,,,165,7,3.2.2021,164.9585212
82,"['low', 1]",1,white,135,right,up,low,white_low_135_up,black_low_45_up,1,right,0.5212379,1,1,11,1,FALSE,2,0,1,1,TRUE,FALSE,low_1,0.75,-1,3,,,,,,,,,,,165,7,3.2.2021,164.9585212
83,"['high', 2]",2,black,45,right,up,high,black_high_45_up,white_high_135_up,5,right,0.335502,1,5,3,1,FALSE,0,0,1,1,TRUE,FALSE,high_2,0.75,-1,3,,,,,,,,,,,165,7,3.2.2021,164.9585212
84,"['low', 3]",3,white,135,right,up,low,white_low_135_up,black_low_45_up,1,right,0.3205974,1,1,8,1,FALSE,0,0,1,1,TRUE,FALSE,low_3,0.75,-1,3,,,,,,,,,,,165,7,3.2.2021,164.9585212
85,"['low', 4]",4,black,135,left,up,low,black_low_135_up,white_low_45_up,1,left,1.6033137,1,1,9,1,FALSE,0,0,1,1,TRUE,FALSE,low_4,0.75,-1,3,,,,,,,,,,,165,7,3.2.2021,164.9585212
86,"['low', 6]",6,white,135,right,up,low,white_low_135_up,black_low_45_up,1,right,0.4398896,1,1,8,1,FALSE,0,0,1,1,TRUE,FALSE,low_6,0.75,-1,3,,,,,,,,,,,165,7,3.2.2021,164.9585212
87,"['low', 1]",1,black,45,right,up,low,black_low_45_up,white_low_135_up,1,right,0.4452844,1,1,12,1,FALSE,2,0,1,1,TRUE,FALSE,low_1,0.75,-1,3,,,,,,,,,,,165,7,3.2.2021,164.9585212
88,"['high', 4]",4,black,45,right,down,high,black_high_45_down,white_high_135_down,3,left,0.4763081,0,3,5,1,FALSE,0,0,1,1,TRUE,FALSE,high_4,0.75,-1,3,,,,,,,,,,,165,7,3.2.2021,164.9585212
89,"['high', 1]",1,black,135,left,down,high,black_high_135_down,white_high_45_down,3,left,0.9050198,1,3,13,1,FALSE,2,0,1,1,TRUE,FALSE,high_1,0.75,-1,3,,,,,,,,,,,165,7,3.2.2021,164.9585212
90,"['low', 1]",1,black,135,left,up,low,black_low_135_up,white_low_45_up,1,left,2.3533106,1,1,13,1,FALSE,2,0,1,1,TRUE,FALSE,low_1,0.75,-1,3,,,,,,,,,,,165,7,3.2.2021,164.9585212
91,"['high', 3]",3,black,135,left,down,high,black_high_135_down,white_high_45_down,5,left,1.0175618,1,5,11,0,TRUE,3,0,1,1,TRUE,FALSE,high_3,0.75,-1,3,,,,,,,,,,,165,7,3.2.2021,164.9585212
92,"['low', 4]",4,white,45,left,down,low,white_low_45_down,black_low_135_down,1,left,1.2952381,1,1,10,1,FALSE,0,0,1,1,TRUE,FALSE,low_4,0.75,-1,3,,,,,,,,,,,165,7,3.2.2021,164.9585212
93,"['high', 4]",4,white,45,left,down,high,white_high_45_down,black_high_135_down,6,left,1.5002302,1,6,6,0,TRUE,1,0,1,1,TRUE,FALSE,high_4,0.75,-1,3,,,,,,,,,,,165,7,3.2.2021,164.9585212
94,"['high', 2]",2,black,135,left,down,high,black_high_135_down,white_high_45_down,4,left,1.3121629,1,4,4,1,FALSE,0,0,1,1,TRUE,FALSE,high_2,0.75,-1,3,,,,,,,,,,,165,7,3.2.2021,164.9585212
95,"['high', 4]",4,white,135,right,down,high,white_high_135_down,black_high_45_down,5,right,0.5027927,1,5,7,1,TRUE,2,0,1,1,TRUE,FALSE,high_4,0.75,-1,3,,,,,,,,,,,165,7,3.2.2021,164.9585212
96,"['low', 4]",4,white,45,left,up,low,white_low_45_up,black_low_135_up,1,left,0.4741353,1,1,11,1,FALSE,0,0,1,1,TRUE,FALSE,low_4,0.75,-1,3,,,,,,,,,,,165,7,3.2.2021,164.9585212
97,"['high', 3]",3,white,135,right,down,high,white_high_135_down,black_high_45_down,4,right,0.5100573,1,4,12,1,TRUE,4,0,1,1,TRUE,FALSE,high_3,0.75,-1,3,,,,,,,,,,,165,7,3.2.2021,164.9585212
98,"['high', 2]",2,black,45,right,down,high,black_high_45_down,white_high_135_down,3,right,0.4023002,1,3,5,1,FALSE,0,0,1,1,TRUE,FALSE,high_2,0.75,-1,3,,,,,,,,,,,165,7,3.2.2021,164.9585212
99,"['high', 3]",3,black,135,left,up,high,black_high_135_up,white_high_45_up,3,left,0.3711149,1,3,13,1,FALSE,4,0,1,1,TRUE,FALSE,high_3,0.75,-1,3,,,,,,,,,,,165,7,3.2.2021,164.9585212
100,"['low', 1]",1,black,135,left,down,low,black_low_135_down,white_low_45_down,1,left,0.8391804,1,1,14,1,FALSE,2,0,1,1,TRUE,FALSE,low_1,0.75,-1,3,,,,,,,,,,,165,7,3.2.2021,164.9585212
101,"['low', 2]",2,white,135,right,up,low,white_low_135_up,black_low_45_up,1,right,0.328357,1,1,3,1,FALSE,0,0,1,1,TRUE,FALSE,low_2,0.75,-1,3,,,,,,,,,,,165,7,3.2.2021,164.9585212
102,"['low', 4]",4,black,135,left,up,low,black_low_135_up,white_low_45_up,1,left,0.7940563,1,1,12,1,FALSE,0,0,1,1,TRUE,FALSE,low_4,0.75,-1,3,,,,,,,,,,,165,7,3.2.2021,164.9585212
103,"['low', 2]",2,black,45,right,down,low,black_low_45_down,white_low_135_down,1,right,0.6577815,1,1,4,1,FALSE,0,0,1,1,TRUE,FALSE,low_2,0.75,-1,3,,,,,,,,,,,165,7,3.2.2021,164.9585212
104,"['high', 2]",2,black,135,left,down,high,black_high_135_down,white_high_45_down,2,left,0.8201315,1,2,6,1,FALSE,0,0,1,1,TRUE,FALSE,high_2,0.75,-1,3,,,,,,,,,,,165,7,3.2.2021,164.9585212
105,"['high', 3]",3,black,135,left,up,high,black_high_135_up,white_high_45_up,2,left,2.3196164,1,2,14,1,FALSE,4,0,1,1,TRUE,FALSE,high_3,0.75,-1,3,,,,,,,,,,,165,7,3.2.2021,164.9585212
106,"['high', 4]",4,white,135,right,down,high,white_high_135_down,black_high_45_down,4,right,0.2672171,1,4,8,1,FALSE,2,0,1,1,TRUE,FALSE,high_4,0.75,-1,3,,,,,,,,,,,165,7,3.2.2021,164.9585212
107,"['high', 1]",1,white,135,right,down,high,white_high_135_down,black_high_45_down,2,right,1.2738241,1,2,14,1,FALSE,2,0,1,1,TRUE,FALSE,high_1,0.75,-1,3,,,,,,,,,,,165,7,3.2.2021,164.9585212
108,"['high', 2]",2,black,135,left,up,high,black_high_135_up,white_high_45_up,1,left,0.7347963,1,1,7,1,FALSE,0,0,1,1,TRUE,FALSE,high_2,0.75,-1,3,,,,,,,,,,,165,7,3.2.2021,164.9585212
109,"['low', 2]",2,white,45,left,down,low,white_low_45_down,black_low_135_down,1,left,0.8467902,1,1,5,1,FALSE,0,0,1,1,TRUE,FALSE,low_2,0.75,-1,3,,,,,,,,,,,165,7,3.2.2021,164.9585212
110,"['high', 6]",6,black,45,right,up,high,black_high_45_up,white_high_135_up,4,right,0.3028013,1,4,11,0,TRUE,1,0,1,1,TRUE,FALSE,high_6,0.75,-1,3,,,,,,,,,,,165,7,3.2.2021,164.9585212
111,"['low', 6]",6,white,135,right,up,low,white_low_135_up,black_low_45_up,1,right,2.0122248,1,1,9,1,FALSE,0,0,1,1,TRUE,FALSE,low_6,0.75,-1,3,,,,,,,,,,,165,7,3.2.2021,164.9585212
112,"['high', 2]",2,white,135,right,up,high,white_high_135_up,black_high_45_up,1,left,0.4062762,0,1,8,1,FALSE,0,0,1,1,TRUE,FALSE,high_2,0.75,-1,3,,,,,,,,,,,165,7,3.2.2021,164.9585212
113,"['high', 2]",2,white,135,right,up,high,white_high_135_up,black_high_45_up,4,right,0.3120764,1,4,9,0,TRUE,1,0,1,1,TRUE,FALSE,high_2,0.75,-1,3,,,,,,,,,,,165,7,3.2.2021,164.9585212
114,"['low', 2]",2,black,135,left,up,low,black_low_135_up,white_low_45_up,1,left,0.5575723,1,1,6,1,FALSE,0,0,1,1,TRUE,FALSE,low_2,0.75,-1,3,,,,,,,,,,,165,7,3.2.2021,164.9585212
115,"['low', 3]",3,black,135,left,up,low,black_low_135_up,white_low_45_up,1,left,0.3190095,1,1,9,1,FALSE,0,0,1,1,TRUE,FALSE,low_3,0.75,-1,3,,,,,,,,,,,165,7,3.2.2021,164.9585212
116,"['high', 1]",1,white,135,right,up,high,white_high_135_up,black_high_45_up,1,left,0.5497436,0,1,15,1,FALSE,2,0,1,1,TRUE,FALSE,high_1,0.75,-1,3,,,,,,,,,,,165,7,3.2.2021,164.9585212
117,"['low', 6]",6,white,135,right,up,low,white_low_135_up,black_low_45_up,1,right,0.0750115,1,1,10,1,FALSE,0,0,1,1,TRUE,FALSE,low_6,0.75,-1,3,,,,,,,,,,,165,7,3.2.2021,164.9585212
118,"['low', 3]",3,white,135,right,up,low,white_low_135_up,black_low_45_up,1,left,1.556063,0,1,10,1,FALSE,0,0,1,1,TRUE,FALSE,low_3,0.75,-1,3,,,,,,,,,,,165,7,3.2.2021,164.9585212
119,"['low', 2]",2,black,135,left,down,low,black_low_135_down,white_low_45_down,1,left,0.5705925,1,1,7,1,FALSE,0,0,1,1,TRUE,FALSE,low_2,0.75,-1,3,,,,,,,,,,,165,7,3.2.2021,164.9585212
120,"['high', 3]",3,white,135,right,down,high,white_high_135_down,black_high_45_down,1,right,1.2206243,1,1,15,1,FALSE,4,0,1,1,TRUE,FALSE,high_3,0.75,-1,3,,,,,,,,,,,165,7,3.2.2021,164.9585212
121,"['low', 2]",2,black,135,left,up,low,black_low_135_up,white_low_45_up,1,left,0.3121324,1,1,8,1,FALSE,0,0,1,1,TRUE,FALSE,low_2,0.75,-1,3,,,,,,,,,,,165,7,3.2.2021,164.9585212
122,"['low', 2]",2,black,135,left,down,low,black_low_135_down,white_low_45_down,1,right,0.7937492,0,1,9,1,FALSE,0,0,1,1,TRUE,FALSE,low_2,0.75,-1,3,,,,,,,,,,,165,7,3.2.2021,164.9585212
123,"['high', 3]",3,white,135,right,up,high,white_high_135_up,black_high_45_up,1,left,0.2545076,0,1,16,1,FALSE,4,0,1,1,TRUE,FALSE,high_3,0.75,-1,3,,,,,,,,,,,165,7,3.2.2021,164.9585212
124,"['low', 1]",1,white,45,left,down,low,white_low_45_down,black_low_135_down,1,right,1.3932648,0,1,15,1,FALSE,2,0,1,1,TRUE,FALSE,low_1,0.75,-1,3,,,,,,,,,,,165,7,3.2.2021,164.9585212
125,"['low', 6]",6,black,45,right,down,low,black_low_45_down,white_low_135_down,1,right,0.4641578,1,1,11,1,FALSE,0,0,1,1,TRUE,FALSE,low_6,0.75,-1,3,,,,,,,,,,,165,7,3.2.2021,164.9585212
126,"['high', 2]",2,white,135,right,up,high,white_high_135_up,black_high_45_up,3,left,0.559521,0,3,10,1,TRUE,2,0,1,1,TRUE,FALSE,high_2,0.75,-1,3,,,,,,,,,,,165,7,3.2.2021,164.9585212
127,"['low', 2]",2,white,45,left,up,low,white_low_45_up,black_low_135_up,4,right,0.6631201,0,4,10,0,TRUE,1,0,1,1,TRUE,FALSE,low_2,0.75,-1,3,,,,,,,,,,,165,7,3.2.2021,164.9585212
128,"['high', 6]",6,black,135,left,down,high,black_high_135_down,white_high_45_down,3,left,0.0420761,1,3,12,1,TRUE,2,0,1,1,TRUE,FALSE,high_6,0.75,-1,3,,,,,,,,,,,165,7,3.2.2021,164.9585212
129,"['high', 4]",4,black,45,right,up,high,black_high_45_up,white_high_135_up,3,right,0.2124315,1,3,9,1,FALSE,2,0,1,1,TRUE,FALSE,high_4,0.75,-1,3,,,,,,,,,,,165,7,3.2.2021,164.9585212
130,"['low', 2]",2,white,135,right,down,low,white_low_135_down,black_low_45_down,7,right,0.2259927,1,7,11,0,FALSE,1,0,1,1,TRUE,FALSE,low_2,0.75,-1,3,,,,,,,,,,,165,7,3.2.2021,164.9585212
131,"['high', 4]",4,black,135,left,down,high,black_high_135_down,white_high_45_down,2,left,0.2258516,1,2,10,1,FALSE,2,0,1,1,TRUE,FALSE,high_4,0.75,-1,3,,,,,,,,,,,165,7,3.2.2021,164.9585212
132,"['high', 2]",2,black,135,left,up,high,black_high_135_up,white_high_45_up,6,left,0.1714464,1,6,11,0,TRUE,3,0,1,1,TRUE,FALSE,high_2,0.75,-1,3,,,,,,,,,,,165,7,3.2.2021,164.9585212
133,"['low', 6]",6,black,45,right,down,low,black_low_45_down,white_low_135_down,1,right,0.3430517,1,1,12,1,FALSE,0,0,1,1,TRUE,FALSE,low_6,0.75,-1,3,,,,,,,,,,,165,7,3.2.2021,164.9585212
134,"['high', 1]",1,white,45,left,down,high,white_high_45_down,black_high_135_down,4,left,0.2093545,1,4,16,0,TRUE,3,0,1,1,TRUE,FALSE,high_1,0.75,-1,3,,,,,,,,,,,165,7,3.2.2021,164.9585212
135,"['high', 6]",6,black,135,left,up,high,black_high_135_up,white_high_45_up,2,left,0.6753125,1,2,13,1,FALSE,2,0,1,1,TRUE,FALSE,high_6,0.75,-1,3,,,,,,,,,,,165,7,3.2.2021,164.9585212
136,"['low', 1]",1,white,45,left,up,low,white_low_45_up,black_low_135_up,4,left,0.0393342,1,4,16,0,TRUE,3,0,1,1,TRUE,FALSE,low_1,0.75,-1,3,,,,,,,,,,,165,7,3.2.2021,164.9585212
137,"['low', 2]",2,white,45,left,down,low,white_low_45_down,black_low_135_down,6,left,0.0438105,1,6,12,1,TRUE,2,0,1,1,TRUE,FALSE,low_2,0.75,-1,3,,,,,,,,,,,165,7,3.2.2021,164.9585212
138,"['high', 4]",4,white,45,left,down,high,white_high_45_down,black_high_135_down,1,left,0.5638497,1,1,11,1,FALSE,2,0,1,1,TRUE,FALSE,high_4,0.75,-1,3,,,,,,,,,,,165,7,3.2.2021,164.9585212
139,"['low', 3]",3,black,135,left,up,low,black_low_135_up,white_low_45_up,4,left,0.5189047,1,4,11,0,TRUE,1,0,1,1,TRUE,FALSE,low_3,0.75,-1,3,,,,,,,,,,,165,7,3.2.2021,164.9585212
140,"['low', 1]",1,black,45,right,up,low,black_low_45_up,white_low_135_up,3,right,0.6140536,1,3,17,1,TRUE,4,0,1,1,TRUE,FALSE,low_1,0.75,-1,3,,,,,,,,,,,165,7,3.2.2021,164.9585212
141,"['high', 3]",3,black,135,left,up,high,black_high_135_up,white_high_45_up,4,left,0.1217329,1,4,17,0,TRUE,5,1,1,1,TRUE,FALSE,high_3,0.75,-1,3,,,,,,,,,,,165,7,3.2.2021,164.9585212
142,"['low', 3]",3,white,45,left,down,low,white_low_45_down,black_low_135_down,3,left,0.1241488,1,3,12,1,TRUE,2,0,1,1,TRUE,FALSE,low_3,0.75,-1,3,,,,,,,,,,,165,7,3.2.2021,164.9585212
143,"['high', 2]",2,white,45,left,up,high,white_high_45_up,black_high_135_up,5,left,0.3421493,1,5,12,1,TRUE,4,0,1,1,TRUE,FALSE,high_2,0.75,-1,3,,,,,,,,,,,165,7,3.2.2021,164.9585212
144,"['high', 3]",3,black,45,right,up,high,black_high_45_up,white_high_135_up,3,right,0.3467661,1,3,18,1,TRUE,6,1,1,1,TRUE,FALSE,high_3,0.75,-1,3,,,,,,,,,,,165,7,3.2.2021,164.9585212
145,"['high', 6]",6,black,135,left,up,high,black_high_135_up,white_high_45_up,1,right,1.0384056,0,1,14,1,FALSE,2,0,1,1,TRUE,FALSE,high_6,0.75,-1,3,,,,,,,,,,,165,7,3.2.2021,164.9585212
146,"['low', 6]",6,black,135,left,up,low,black_low_135_up,white_low_45_up,1,left,0.0265645,1,1,13,1,FALSE,0,0,1,1,TRUE,FALSE,low_6,0.75,-1,3,,,,,,,,,,,165,7,3.2.2021,164.9585212
147,"['low', 2]",2,white,135,right,down,low,white_low_135_down,black_low_45_down,5,right,1.9131607,1,5,13,1,FALSE,2,0,1,1,TRUE,FALSE,low_2,0.75,-1,3,,,,,,,,,,,165,7,3.2.2021,164.9585212
148,"['low', 1]",1,white,45,left,down,low,white_low_45_down,black_low_135_down,2,left,0.1594959,1,2,18,1,FALSE,4,0,1,1,TRUE,FALSE,low_1,0.75,-1,3,,,,,,,,,,,165,7,3.2.2021,164.9585212
149,"['low', 4]",4,black,135,left,up,low,black_low_135_up,white_low_45_up,1,left,0.3070074,1,1,13,1,FALSE,0,0,1,1,TRUE,FALSE,low_4,0.75,-1,3,,,,,,,,,,,165,7,3.2.2021,164.9585212
150,"['high', 4]",4,white,45,left,up,high,white_high_45_up,black_high_135_up,1,left,1.3871753,1,1,12,1,FALSE,2,0,1,1,TRUE,FALSE,high_4,0.75,-1,3,,,,,,,,,,,165,7,3.2.2021,164.9585212
151,"['low', 1]",1,black,135,left,down,low,black_low_135_down,white_low_45_down,1,right,0.9846291,0,1,19,1,FALSE,4,0,1,1,TRUE,FALSE,low_1,0.75,-1,3,,,,,,,,,,,165,7,3.2.2021,164.9585212
152,"['high', 2]",2,black,135,left,up,high,black_high_135_up,white_high_45_up,4,left,0.4375003,1,4,13,1,FALSE,4,0,1,1,TRUE,FALSE,high_2,0.75,-1,3,,,,,,,,,,,165,7,3.2.2021,164.9585212
153,"['low', 3]",3,black,45,right,up,low,black_low_45_up,white_low_135_up,2,right,0.1440126,1,2,13,1,FALSE,2,0,1,1,TRUE,FALSE,low_3,0.75,-1,3,,,,,,,,,,,165,7,3.2.2021,164.9585212
154,"['high', 1]",1,white,135,right,down,high,white_high_135_down,black_high_45_down,3,left,0.5849203,0,3,17,1,TRUE,4,0,1,1,TRUE,FALSE,high_1,0.75,-1,3,,,,,,,,,,,165,7,3.2.2021,164.9585212
155,"['high', 6]",6,white,45,left,up,high,white_high_45_up,black_high_135_up,4,left,0.3749972,1,4,15,0,TRUE,3,0,1,1,TRUE,FALSE,high_6,0.75,-1,3,,,,,,,,,,,165,7,3.2.2021,164.9585212
156,"['high', 4]",4,black,135,left,down,high,black_high_135_down,white_high_45_down,1,left,0.2340796,1,1,13,1,FALSE,2,0,1,1,TRUE,FALSE,high_4,0.75,-1,3,,,,,,,,,,,165,7,3.2.2021,164.9585212
157,"['high', 3]",3,white,45,left,up,high,white_high_45_up,black_high_135_up,2,right,0.8305858,0,2,19,1,FALSE,6,1,1,1,TRUE,FALSE,high_3,0.75,-1,3,,,,,,,,,,,165,7,3.2.2021,164.9585212
158,"['low', 4]",4,white,45,left,down,low,white_low_45_down,black_low_135_down,1,left,0.2773645,1,1,14,1,FALSE,0,0,1,1,TRUE,FALSE,low_4,0.75,-1,3,,,,,,,,,,,165,7,3.2.2021,164.9585212
159,"['high', 3]",3,black,135,left,down,high,black_high_135_down,white_high_45_down,5,left,0.3686899,1,5,20,0,TRUE,7,1,1,1,TRUE,FALSE,high_3,0.75,-1,3,,,,,,,,,,,165,7,3.2.2021,164.9585212
160,"['high', 1]",1,white,135,right,down,high,white_high_135_down,black_high_45_down,6,right,0.4821352,1,6,18,0,TRUE,5,1,1,1,TRUE,FALSE,high_1,0.75,-1,3,,,,,,,,,,,165,7,3.2.2021,164.9585212
161,"['high', 2]",2,black,135,left,down,high,black_high_135_down,white_high_45_down,3,left,0.2824127,1,3,14,1,FALSE,4,0,1,1,TRUE,FALSE,high_2,0.75,-1,3,,,,,,,,,,,165,7,3.2.2021,164.9585212
162,"['low', 3]",3,black,45,right,up,low,black_low_45_up,white_low_135_up,1,right,0.4656186,1,1,14,1,FALSE,2,0,1,1,TRUE,FALSE,low_3,0.75,-1,3,,,,,,,,,,,165,7,3.2.2021,164.9585212
163,"['low', 2]",2,black,45,right,down,low,black_low_45_down,white_low_135_down,4,right,0.0522787,1,4,14,1,FALSE,2,0,1,1,TRUE,FALSE,low_2,0.75,-1,3,,,,,,,,,,,165,7,3.2.2021,164.9585212
164,"['low', 3]",3,white,135,right,up,low,white_low_135_up,black_low_45_up,1,right,0.1629876,1,1,15,1,FALSE,2,0,1,1,TRUE,FALSE,low_3,0.75,-1,3,,,,,,,,,,,165,7,3.2.2021,164.9585212
165,"['low', 4]",4,black,135,left,down,low,black_low_135_down,white_low_45_down,1,left,0.0813462,1,1,15,1,FALSE,0,0,1,1,TRUE,FALSE,low_4,0.75,-1,3,,,,,,,,,,,165,7,3.2.2021,164.9585212
166,"['low', 2]",2,white,135,right,up,low,white_low_135_up,black_low_45_up,3,right,0.0608897,1,3,15,1,FALSE,2,0,1,1,TRUE,FALSE,low_2,0.75,-1,3,,,,,,,,,,,165,7,3.2.2021,164.9585212
167,"['high', 1]",1,white,135,right,down,high,white_high_135_down,black_high_45_down,5,right,0.2610599,1,5,19,1,TRUE,6,1,1,1,TRUE,FALSE,high_1,0.75,-1,3,,,,,,,,,,,165,7,3.2.2021,164.9585212
168,"['low', 1]",1,black,45,right,up,low,black_low_45_up,white_low_135_up,4,right,0.5818122,1,4,20,0,TRUE,5,1,1,1,TRUE,FALSE,low_1,0.75,-1,3,,,,,,,,,,,165,7,3.2.2021,164.9585212
169,"['low', 1]",1,black,45,right,up,low,black_low_45_up,white_low_135_up,3,right,0.1477827,1,3,21,1,TRUE,6,1,1,1,TRUE,FALSE,low_1,0.75,-1,3,,,,,,,,,,,165,7,3.2.2021,164.9585212
170,"['low', 1]",1,black,45,right,up,low,black_low_45_up,white_low_135_up,2,right,1.5220742,1,2,22,1,FALSE,6,1,1,1,TRUE,FALSE,low_1,0.75,-1,3,,,,,,,,,,,165,7,3.2.2021,164.9585212
171,"['low', 3]",3,white,135,right,up,low,white_low_135_up,black_low_45_up,1,right,0.0923916,1,1,16,1,FALSE,2,0,1,1,TRUE,FALSE,low_3,0.75,-1,3,,,,,,,,,,,165,7,3.2.2021,164.9585212
172,"['high', 6]",6,black,135,left,down,high,black_high_135_down,white_high_45_down,3,left,0.2562093,1,3,16,1,TRUE,4,0,1,1,TRUE,FALSE,high_6,0.75,-1,3,,,,,,,,,,,165,7,3.2.2021,164.9585212
173,"['low', 6]",6,black,45,right,up,low,black_low_45_up,white_low_135_up,1,right,0.119085,1,1,14,1,FALSE,0,0,1,1,TRUE,FALSE,low_6,0.75,-1,3,,,,,,,,,,,165,7,3.2.2021,164.9585212
174,"['low', 1]",1,white,45,left,down,low,white_low_45_down,black_low_135_down,1,left,0.1566224,1,1,23,1,FALSE,6,1,1,1,TRUE,FALSE,low_1,0.75,-1,3,,,,,,,,,,,165,7,3.2.2021,164.9585212
175,"['low', 6]",6,white,135,right,down,low,white_low_135_down,black_low_45_down,1,right,0.0633971,1,1,15,1,FALSE,0,0,1,1,TRUE,FALSE,low_6,0.75,-1,3,,,,,,,,,,,165,7,3.2.2021,164.9585212
176,"['low', 2]",2,black,45,right,up,low,black_low_45_up,white_low_135_up,2,right,0.1326689,1,2,16,1,FALSE,2,0,1,1,TRUE,FALSE,low_2,0.75,-1,3,,,,,,,,,,,165,7,3.2.2021,164.9585212
177,"['high', 6]",6,white,135,right,up,high,white_high_135_up,black_high_45_up,2,right,0.2474291,1,2,17,1,FALSE,4,0,1,1,TRUE,FALSE,high_6,0.75,-1,3,,,,,,,,,,,165,7,3.2.2021,164.9585212
178,"['high', 3]",3,black,45,right,up,high,black_high_45_up,white_high_135_up,4,right,0.1998918,1,4,21,1,TRUE,8,1,1,1,TRUE,FALSE,high_3,0.75,-1,3,,,,,,,,,,,165,7,3.2.2021,164.9585212
179,"['low', 4]",4,black,135,left,down,low,black_low_135_down,white_low_45_down,1,left,0.5096753,1,1,16,1,FALSE,0,0,1,1,TRUE,FALSE,low_4,0.75,-1,3,,,,,,,,,,,165,7,3.2.2021,164.9585212
180,"['high', 2]",2,black,135,left,up,high,black_high_135_up,white_high_45_up,2,right,0.6905884,0,2,15,1,FALSE,4,0,1,1,TRUE,FALSE,high_2,0.75,-1,3,,,,,,,,,,,165,7,3.2.2021,164.9585212
181,"['low', 4]",4,black,45,right,up,low,black_low_45_up,white_low_135_up,1,right,0.3131282,1,1,17,1,FALSE,0,0,1,1,TRUE,FALSE,low_4,0.75,-1,3,,,,,,,,,,,165,7,3.2.2021,164.9585212
182,"['low', 2]",2,white,45,left,up,low,white_low_45_up,black_low_135_up,1,right,1.6046124,0,1,17,1,FALSE,2,0,1,1,TRUE,FALSE,low_2,0.75,-1,3,,,,,,,,,,,165,7,3.2.2021,164.9585212
183,"['high', 1]",1,white,135,right,down,high,white_high_135_down,black_high_45_down,4,right,0.7344258,1,4,20,1,FALSE,6,1,1,1,TRUE,FALSE,high_1,0.75,-1,3,,,,,,,,,,,165,7,3.2.2021,164.9585212
184,"['low', 3]",3,white,135,right,down,low,white_low_135_down,black_low_45_down,1,right,0.3791125,1,1,17,1,FALSE,2,0,1,1,TRUE,FALSE,low_3,0.75,-1,3,,,,,,,,,,,165,7,3.2.2021,164.9585212
185,"['high', 3]",3,black,45,right,down,high,black_high_45_down,white_high_135_down,3,left,0.5517068,0,3,22,1,FALSE,8,1,1,1,TRUE,FALSE,high_3,0.75,-1,3,,,,,,,,,,,165,7,3.2.2021,164.9585212
186,"['low', 3]",3,white,45,left,up,low,white_low_45_up,black_low_135_up,1,right,0.4744274,0,1,18,1,FALSE,2,0,1,1,TRUE,FALSE,low_3,0.75,-1,3,,,,,,,,,,,165,7,3.2.2021,164.9585212
187,"['low', 6]",6,white,135,right,up,low,white_low_135_up,black_low_45_up,1,right,0.4465715,1,1,16,1,FALSE,0,0,1,1,TRUE,FALSE,low_6,0.75,-1,3,,,,,,,,,,,165,7,3.2.2021,164.9585212
188,"['low', 6]",6,black,135,left,down,low,black_low_135_down,white_low_45_down,1,left,0.2456249,1,1,17,1,FALSE,0,0,1,1,TRUE,FALSE,low_6,0.75,-1,3,,,,,,,,,,,165,7,3.2.2021,164.9585212
189,"['low', 3]",3,black,45,right,down,low,black_low_45_down,white_low_135_down,4,right,0.1104206,1,4,19,0,TRUE,3,0,1,1,TRUE,FALSE,low_3,0.75,-1,3,,,,,,,,,,,165,7,3.2.2021,164.9585212
190,"['high', 2]",2,white,135,right,up,high,white_high_135_up,black_high_45_up,5,right,0.1934049,1,5,16,0,TRUE,5,1,1,1,TRUE,FALSE,high_2,0.75,-1,3,,,,,,,,,,,165,7,3.2.2021,164.9585212
191,"['low', 6]",6,white,135,right,down,low,white_low_135_down,black_low_45_down,1,right,0.1663138,1,1,18,1,FALSE,0,0,1,1,TRUE,FALSE,low_6,0.75,-1,3,,,,,,,,,,,165,7,3.2.2021,164.9585212
192,"['low', 6]",6,black,135,left,up,low,black_low_135_up,white_low_45_up,1,left,2.1476176,1,1,19,1,FALSE,0,0,1,1,TRUE,FALSE,low_6,0.75,-1,3,,,,,,,,,,,165,7,3.2.2021,164.9585212
193,"['low', 3]",3,black,135,left,up,low,black_low_135_up,white_low_45_up,3,left,0.206684,1,3,20,1,TRUE,4,0,1,1,TRUE,FALSE,low_3,0.75,-1,3,,,,,,,,,,,165,7,3.2.2021,164.9585212
194,"['high', 1]",1,black,45,right,down,high,black_high_45_down,white_high_135_down,3,left,2.7366922,0,3,21,1,FALSE,6,1,1,1,TRUE,FALSE,high_1,0.75,-1,3,,,,,,,,,,,165,7,3.2.2021,164.9585212
195,"['high', 4]",4,black,45,right,up,high,black_high_45_up,white_high_135_up,1,left,1.2772557,0,1,14,1,FALSE,2,0,1,1,TRUE,FALSE,high_4,0.75,-1,3,,,,,,,,,,,165,7,3.2.2021,164.9585212
196,"['high', 6]",6,white,135,right,down,high,white_high_135_down,black_high_45_down,1,left,4.8270451,0,1,18,1,FALSE,4,0,1,1,TRUE,FALSE,high_6,0.75,-1,3,,,,,,,,,,,165,7,3.2.2021,164.9585212
197,"['low', 1]",1,white,135,right,up,low,white_low_135_up,black_low_45_up,1,right,0.87634,1,1,24,1,FALSE,6,1,1,1,TRUE,FALSE,low_1,0.75,-1,3,,,,,,,,,,,165,7,3.2.2021,164.9585212
198,"['high', 3]",3,black,45,right,up,high,black_high_45_up,white_high_135_up,6,left,0.4687024,0,6,23,0,TRUE,9,1,1,1,TRUE,FALSE,high_3,0.75,-1,3,,,,,,,,,,,165,7,3.2.2021,164.9585212
199,"['high', 4]",4,black,135,left,down,high,black_high_135_down,white_high_45_down,4,left,3.4210726,1,4,15,0,TRUE,3,0,1,1,TRUE,FALSE,high_4,0.75,-1,3,,,,,,,,,,,165,7,3.2.2021,164.9585212
200,"['low', 3]",3,black,135,left,down,low,black_low_135_down,white_low_45_down,2,left,0.5661008,1,2,21,1,FALSE,4,0,1,1,TRUE,FALSE,low_3,0.75,-1,3,,,,,,,,,,,165,7,3.2.2021,164.9585212
201,"['low', 6]",6,white,45,left,up,low,white_low_45_up,black_low_135_up,1,left,0.2929094,1,1,20,1,FALSE,0,0,1,1,TRUE,FALSE,low_6,0.75,-1,3,,,,,,,,,,,165,7,3.2.2021,164.9585212
202,"['high', 1]",1,white,135,right,down,high,white_high_135_down,black_high_45_down,6,right,0.3528431,1,6,22,0,TRUE,7,1,1,1,TRUE,FALSE,high_1,0.75,-1,3,,,,,,,,,,,165,7,3.2.2021,164.9585212
203,"['low', 6]",6,white,45,left,down,low,white_low_45_down,black_low_135_down,1,left,0.092262,1,1,21,1,FALSE,0,0,1,1,TRUE,FALSE,low_6,0.75,-1,3,,,,,,,,,,,165,7,3.2.2021,164.9585212
204,"['high', 2]",2,white,135,right,down,high,white_high_135_down,black_high_45_down,4,right,0.1215057,1,4,17,1,TRUE,6,1,1,1,TRUE,FALSE,high_2,0.75,-1,3,,,,,,,,,,,165,7,3.2.2021,164.9585212
205,"['high', 4]",4,black,135,left,up,high,black_high_135_up,white_high_45_up,3,left,0.0824781,1,3,16,1,TRUE,4,0,1,1,TRUE,FALSE,high_4,0.75,-1,3,,,,,,,,,,,165,7,3.2.2021,164.9585212
206,"['high', 2]",2,black,45,right,down,high,black_high_45_down,white_high_135_down,3,right,0.6825204,1,3,18,1,FALSE,6,1,1,1,TRUE,FALSE,high_2,0.75,-1,3,,,,,,,,,,,165,7,3.2.2021,164.9585212
207,"['low', 4]",4,white,135,right,down,low,white_low_135_down,black_low_45_down,1,right,0.100659,1,1,18,1,FALSE,0,0,1,1,TRUE,FALSE,low_4,0.75,-1,3,,,,,,,,,,,165,7,3.2.2021,164.9585212
208,"['high', 6]",6,white,45,left,down,high,white_high_45_down,black_high_135_down,4,left,1.9181831,1,4,19,0,TRUE,5,1,1,1,TRUE,FALSE,high_6,0.75,-1,3,,,,,,,,,,,165,7,3.2.2021,164.9585212
209,"['low', 3]",3,black,135,left,up,low,black_low_135_up,white_low_45_up,1,left,0.9688216,1,1,22,1,FALSE,4,0,1,1,TRUE,FALSE,low_3,0.75,-1,3,,,,,,,,,,,165,7,3.2.2021,164.9585212
210,"['low', 4]",4,black,45,right,up,low,black_low_45_up,white_low_135_up,1,right,0.0785059,1,1,19,1,FALSE,0,0,1,1,TRUE,FALSE,low_4,0.75,-1,3,,,,,,,,,,,165,7,3.2.2021,164.9585212
211,"['high', 4]",4,white,45,left,up,high,white_high_45_up,black_high_135_up,2,left,0.4879841,1,2,17,1,FALSE,4,0,1,1,TRUE,FALSE,high_4,0.75,-1,3,,,,,,,,,,,165,7,3.2.2021,164.9585212
212,"['high', 4]",4,black,45,right,down,high,black_high_45_down,white_high_135_down,1,right,0.495617,1,1,18,1,FALSE,4,0,1,1,TRUE,FALSE,high_4,0.75,-1,3,,,,,,,,,,,165,7,3.2.2021,164.9585212
213,"['high', 4]",4,black,45,right,up,high,black_high_45_up,white_high_135_up,1,left,0.4798042,0,1,19,1,FALSE,4,0,1,1,TRUE,FALSE,high_4,0.75,-1,3,,,,,,,,,,,165,7,3.2.2021,164.9585212
214,"['low', 6]",6,black,45,right,up,low,black_low_45_up,white_low_135_up,1,right,0.1705181,1,1,22,1,FALSE,0,0,1,1,TRUE,FALSE,low_6,0.75,-1,3,,,,,,,,,,,165,7,3.2.2021,164.9585212
215,"['low', 4]",4,white,135,right,up,low,white_low_135_up,black_low_45_up,1,right,0.1080351,1,1,20,1,FALSE,0,0,1,1,TRUE,FALSE,low_4,0.75,-1,3,,,,,,,,,,,165,7,3.2.2021,164.9585212
216,"['low', 4]",4,white,45,left,down,low,white_low_45_down,black_low_135_down,1,left,0.2636427,1,1,21,1,FALSE,0,0,1,1,TRUE,FALSE,low_4,0.75,-1,3,,,,,,,,,,,165,7,3.2.2021,164.9585212
217,"['low', 4]",4,black,45,right,down,low,black_low_45_down,white_low_135_down,1,right,0.0235224,1,1,22,1,FALSE,0,0,1,1,TRUE,FALSE,low_4,0.75,-1,3,,,,,,,,,,,165,7,3.2.2021,164.9585212
218,"['low', 2]",2,white,45,left,up,low,white_low_45_up,black_low_135_up,4,left,0.4133506,1,4,18,0,TRUE,3,0,1,1,TRUE,FALSE,low_2,0.75,-1,3,,,,,,,,,,,165,7,3.2.2021,164.9585212
219,"['high', 6]",6,white,135,right,up,high,white_high_135_up,black_high_45_up,3,right,0.1313888,1,3,20,1,TRUE,6,1,1,1,TRUE,FALSE,high_6,0.75,-1,3,,,,,,,,,,,165,7,3.2.2021,164.9585212
220,"['low', 1]",1,black,45,right,down,low,black_low_45_down,white_low_135_down,1,right,0.2640041,1,1,25,1,FALSE,6,1,1,1,TRUE,FALSE,low_1,0.75,-1,3,,,,,,,,,,,165,7,3.2.2021,164.9585212
221,"['low', 6]",6,black,45,right,up,low,black_low_45_up,white_low_135_up,1,right,0.9932178,1,1,23,1,FALSE,0,0,1,1,TRUE,FALSE,low_6,0.75,-1,3,,,,,,,,,,,165,7,3.2.2021,164.9585212
222,"['low', 2]",2,black,135,left,up,low,black_low_135_up,white_low_45_up,3,left,0.3451999,1,3,19,1,TRUE,4,0,1,1,TRUE,FALSE,low_2,0.75,-1,3,,,,,,,,,,,165,7,3.2.2021,164.9585212
223,"['high', 6]",6,black,45,right,up,high,black_high_45_up,white_high_135_up,2,right,0.1489046,1,2,21,1,FALSE,6,1,1,1,TRUE,FALSE,high_6,0.75,-1,3,,,,,,,,,,,165,7,3.2.2021,164.9585212
224,"['high', 2]",2,white,45,left,up,high,white_high_45_up,black_high_135_up,2,right,0.9646737,0,2,19,1,FALSE,6,1,1,1,TRUE,FALSE,high_2,0.75,-1,3,,,,,,,,,,,165,7,3.2.2021,164.9585212
225,"['low', 6]",6,black,45,right,up,low,black_low_45_up,white_low_135_up,1,right,0.4560256,1,1,24,1,FALSE,0,0,1,1,TRUE,FALSE,low_6,0.75,-1,3,,,,,,,,,,,165,7,3.2.2021,164.9585212
226,"['high', 4]",4,black,45,right,down,high,black_high_45_down,white_high_135_down,4,left,0.3091903,0,4,20,0,TRUE,5,1,1,1,TRUE,FALSE,high_4,0.75,-1,3,,,,,,,,,,,165,7,3.2.2021,164.9585212
227,"['high', 6]",6,white,135,right,down,high,white_high_135_down,black_high_45_down,1,right,1.6354505,1,1,22,1,FALSE,6,1,1,1,TRUE,FALSE,high_6,0.75,-1,3,,,,,,,,,,,165,7,3.2.2021,164.9585212
228,"['low', 3]",3,white,135,right,down,low,white_low_135_down,black_low_45_down,1,right,0.253839,1,1,23,1,FALSE,4,0,1,1,TRUE,FALSE,low_3,0.75,-1,3,,,,,,,,,,,165,7,3.2.2021,164.9585212
229,"['high', 4]",4,black,45,right,up,high,black_high_45_up,white_high_135_up,7,right,0.1353881,1,7,21,0,FALSE,5,1,1,1,TRUE,FALSE,high_4,0.75,-1,3,,,,,,,,,,,165,7,3.2.2021,164.9585212
230,"['high', 3]",3,white,135,right,down,high,white_high_135_down,black_high_45_down,9,right,0.4831796,1,9,24,0,FALSE,9,1,1,1,TRUE,FALSE,high_3,0.75,-1,3,,,,,,,,,,,165,7,3.2.2021,164.9585212
231,"['high', 6]",6,black,135,left,up,high,black_high_135_up,white_high_45_up,1,left,0.8966385,1,1,23,1,FALSE,6,1,1,1,TRUE,FALSE,high_6,0.75,-1,3,,,,,,,,,,,165,7,3.2.2021,164.9585212
232,"['high', 4]",4,white,135,right,up,high,white_high_135_up,black_high_45_up,6,right,0.3288482,1,6,22,1,TRUE,6,1,1,1,TRUE,FALSE,high_4,0.75,-1,3,,,,,,,,,,,165,7,3.2.2021,164.9585212
233,"['high', 2]",2,black,45,right,up,high,black_high_45_up,white_high_135_up,5,right,0.0676617,1,5,20,0,TRUE,7,1,1,1,TRUE,FALSE,high_2,0.75,-1,3,,,,,,,,,,,165,7,3.2.2021,164.9585212
234,"['low', 1]",1,black,45,right,down,low,black_low_45_down,white_low_135_down,1,right,1.9271056,1,1,26,1,FALSE,6,1,1,1,TRUE,FALSE,low_1,0.75,-1,3,,,,,,,,,,,165,7,3.2.2021,164.9585212
235,"['high', 2]",2,white,45,left,up,high,white_high_45_up,black_high_135_up,4,right,0.4073116,0,4,21,1,TRUE,8,1,1,1,TRUE,FALSE,high_2,0.75,-1,3,,,,,,,,,,,165,7,3.2.2021,164.9585212
236,"['low', 1]",1,black,45,right,down,low,black_low_45_down,white_low_135_down,1,right,0.5590317,1,1,27,1,FALSE,6,1,1,1,TRUE,FALSE,low_1,0.75,-1,3,,,,,,,,,,,165,7,3.2.2021,164.9585212
237,"['low', 1]",1,black,45,right,down,low,black_low_45_down,white_low_135_down,1,right,0.3646682,1,1,28,1,FALSE,6,1,1,1,TRUE,FALSE,low_1,0.75,-1,3,,,,,,,,,,,165,7,3.2.2021,164.9585212
238,"['low', 2]",2,black,135,left,down,low,black_low_135_down,white_low_45_down,2,left,0.7302034,1,2,20,1,FALSE,4,0,1,1,TRUE,FALSE,low_2,0.75,-1,3,,,,,,,,,,,165,7,3.2.2021,164.9585212
239,"['low', 2]",2,white,45,left,up,low,white_low_45_up,black_low_135_up,1,left,0.6419646,1,1,21,1,FALSE,4,0,1,1,TRUE,FALSE,low_2,0.75,-1,3,,,,,,,,,,,165,7,3.2.2021,164.9585212
240,"['low', 6]",6,white,135,right,down,low,white_low_135_down,black_low_45_down,1,right,0.180106,1,1,25,1,FALSE,0,0,1,1,TRUE,FALSE,low_6,0.75,-1,3,,,,,,,,,,,165,7,3.2.2021,164.9585212
241,"['low', 1]",1,black,45,right,down,low,black_low_45_down,white_low_135_down,1,right,0.4411749,1,1,29,1,FALSE,6,1,1,1,TRUE,FALSE,low_1,0.75,-1,3,,,,,,,,,,,165,7,3.2.2021,164.9585212
242,"['high', 2]",2,white,135,right,up,high,white_high_135_up,black_high_45_up,7,right,0.331576,1,7,22,0,TRUE,9,1,1,1,TRUE,FALSE,high_2,0.75,-1,3,,,,,,,,,,,165,7,3.2.2021,164.9585212
243,"['high', 1]",1,white,135,right,up,high,white_high_135_up,black_high_45_up,5,right,0.3126596,1,5,23,1,TRUE,8,1,1,1,TRUE,FALSE,high_1,0.75,-1,3,,,,,,,,,,,165,7,3.2.2021,164.9585212
244,"['high', 4]",4,white,45,left,up,high,white_high_45_up,black_high_135_up,5,left,0.2733212,1,5,23,1,FALSE,6,1,1,1,TRUE,FALSE,high_4,0.75,-1,3,,,,,,,,,,,165,7,3.2.2021,164.9585212
245,"['high', 6]",6,black,45,right,down,high,black_high_45_down,white_high_135_down,1,right,1.4746487,1,1,24,1,FALSE,6,1,1,1,TRUE,FALSE,high_6,0.75,-1,3,,,,,,,,,,,165,7,3.2.2021,164.9585212
246,"['low', 3]",3,black,135,left,down,low,black_low_135_down,white_low_45_down,1,left,0.2572543,1,1,24,1,FALSE,4,0,1,1,TRUE,FALSE,low_3,0.75,-1,3,,,,,,,,,,,165,7,3.2.2021,164.9585212
247,"['high', 3]",3,black,45,right,up,high,black_high_45_up,white_high_135_up,8,right,0.0898972,1,8,25,1,TRUE,10,1,1,1,TRUE,FALSE,high_3,0.75,-1,3,,,,,,,,,,,165,7,3.2.2021,164.9585212
248,"['low', 2]",2,black,45,right,down,low,black_low_45_down,white_low_135_down,1,right,0.4095973,1,1,22,1,FALSE,4,0,1,1,TRUE,FALSE,low_2,0.75,-1,3,,,,,,,,,,,165,7,3.2.2021,164.9585212
249,"['high', 6]",6,black,45,right,down,high,black_high_45_down,white_high_135_down,1,right,0.7784345,1,1,25,1,FALSE,6,1,1,1,TRUE,FALSE,high_6,0.75,-1,3,,,,,,,,,,,165,7,3.2.2021,164.9585212
250,"['high', 6]",6,white,135,right,down,high,white_high_135_down,black_high_45_down,1,right,0.1801817,1,1,26,1,FALSE,6,1,1,1,TRUE,FALSE,high_6,0.75,-1,3,,,,,,,,,,,165,7,3.2.2021,164.9585212
251,"['high', 4]",4,white,45,left,down,high,white_high_45_down,black_high_135_down,4,left,0.1395496,1,4,24,1,FALSE,6,1,1,1,TRUE,FALSE,high_4,0.75,-1,3,,,,,,,,,,,165,7,3.2.2021,164.9585212
252,"['low', 4]",4,black,135,left,up,low,black_low_135_up,white_low_45_up,1,left,1.080316,1,1,23,1,FALSE,0,0,1,1,TRUE,FALSE,low_4,0.75,-1,3,,,,,,,,,,,165,7,3.2.2021,164.9585212
253,"['low', 4]",4,black,135,left,down,low,black_low_135_down,white_low_45_down,1,left,2.10271,1,1,24,1,FALSE,0,0,1,1,TRUE,FALSE,low_4,0.75,-1,3,,,,,,,,,,,165,7,3.2.2021,164.9585212
254,"['high', 2]",2,white,135,right,down,high,white_high_135_down,black_high_45_down,6,right,0.2145705,1,6,23,1,TRUE,10,1,1,1,TRUE,FALSE,high_2,0.75,-1,3,,,,,,,,,,,165,7,3.2.2021,164.9585212
255,"['low', 4]",4,white,45,left,down,low,white_low_45_down,black_low_135_down,1,left,0.2983674,1,1,25,1,FALSE,0,0,1,1,TRUE,FALSE,low_4,0.75,-1,3,,,,,,,,,,,165,7,3.2.2021,164.9585212
256,"['high', 1]",1,black,45,right,up,high,black_high_45_up,white_high_135_up,4,left,0.6141952,0,4,24,1,FALSE,8,1,1,1,TRUE,FALSE,high_1,0.75,-1,3,,,,,,,,,,,165,7,3.2.2021,164.9585212
257,"['high', 3]",3,black,135,left,up,high,black_high_135_up,white_high_45_up,7,left,0.3013452,1,7,26,1,FALSE,10,1,1,1,TRUE,FALSE,high_3,0.75,-1,3,,,,,,,,,,,165,7,3.2.2021,164.9585212
258,"['low', 4]",4,black,135,left,up,low,black_low_135_up,white_low_45_up,1,left,0.4970533,1,1,26,1,FALSE,0,0,1,1,TRUE,FALSE,low_4,0.75,-1,3,,,,,,,,,,,165,7,3.2.2021,164.9585212
259,"['low', 1]",1,white,45,left,up,low,white_low_45_up,black_low_135_up,1,left,0.9865681,1,1,30,1,FALSE,6,1,1,1,TRUE,FALSE,low_1,0.75,-1,3,,,,,,,,,,,165,7,3.2.2021,164.9585212
260,"['high', 1]",1,black,45,right,down,high,black_high_45_down,white_high_135_down,7,left,0.8966487,0,7,25,0,TRUE,9,1,1,1,TRUE,FALSE,high_1,0.75,-1,3,,,,,,,,,,,165,7,3.2.2021,164.9585212
261,"['high', 6]",6,white,135,right,down,high,white_high_135_down,black_high_45_down,1,left,2.4814767,0,1,27,1,FALSE,6,1,1,1,TRUE,FALSE,high_6,0.75,-1,3,,,,,,,,,,,165,7,3.2.2021,164.9585212
262,"['low', 2]",2,black,135,left,up,low,black_low_135_up,white_low_45_up,1,left,0.6965887,1,1,23,1,FALSE,4,0,1,1,TRUE,FALSE,low_2,0.75,-1,3,,,,,,,,,,,165,7,3.2.2021,164.9585212
263,"['low', 4]",4,white,135,right,up,low,white_low_135_up,black_low_45_up,1,right,0.1609332,1,1,27,1,FALSE,0,0,1,1,TRUE,FALSE,low_4,0.75,-1,3,,,,,,,,,,,165,7,3.2.2021,164.9585212
264,"['high', 6]",6,white,135,right,down,high,white_high_135_down,black_high_45_down,4,right,0.537375,1,4,28,0,TRUE,7,1,1,1,TRUE,FALSE,high_6,0.75,-1,3,,,,,,,,,,,165,7,3.2.2021,164.9585212
265,"['high', 6]",6,white,45,left,down,high,white_high_45_down,black_high_135_down,3,left,0.1752255,1,3,29,1,TRUE,8,1,1,1,TRUE,FALSE,high_6,0.75,-1,3,,,,,,,,,,,165,7,3.2.2021,164.9585212
266,"['high', 1]",1,white,45,left,up,high,white_high_45_up,black_high_135_up,10,right,1.291354,0,10,26,0,FALSE,9,1,1,1,TRUE,FALSE,high_1,0.75,-1,3,,,,,,,,,,,165,7,3.2.2021,164.9585212
267,"['low', 4]",4,black,45,right,up,low,black_low_45_up,white_low_135_up,1,right,0.2279369,1,1,28,1,FALSE,0,0,1,1,TRUE,FALSE,low_4,0.75,-1,3,,,,,,,,,,,165,7,3.2.2021,164.9585212
268,"['high', 1]",1,white,135,right,up,high,white_high_135_up,black_high_45_up,13,right,0.1251796,1,13,27,0,FALSE,9,1,1,1,TRUE,FALSE,high_1,0.75,-1,3,,,,,,,,,,,165,7,3.2.2021,164.9585212
269,"['low', 4]",4,white,135,right,up,low,white_low_135_up,black_low_45_up,1,right,0.0906578,1,1,29,1,FALSE,0,0,1,1,TRUE,FALSE,low_4,0.75,-1,3,,,,,,,,,,,165,7,3.2.2021,164.9585212
270,"['low', 2]",2,black,45,right,up,low,black_low_45_up,white_low_135_up,1,right,0.0957387,1,1,24,1,FALSE,4,0,1,1,TRUE,FALSE,low_2,0.75,-1,3,,,,,,,,,,,165,7,3.2.2021,164.9585212
271,"['high', 6]",6,white,45,left,up,high,white_high_45_up,black_high_135_up,2,left,0.7837006,1,2,30,1,FALSE,8,1,1,1,TRUE,FALSE,high_6,0.75,-1,3,,,,,,,,,,,165,7,3.2.2021,164.9585212
272,"['low', 1]",1,black,135,left,down,low,black_low_135_down,white_low_45_down,1,right,0.4847485,0,1,31,1,FALSE,6,1,1,1,TRUE,FALSE,low_1,0.75,-1,3,,,,,,,,,,,165,7,3.2.2021,164.9585212
273,"['low', 4]",4,white,135,right,down,low,white_low_135_down,black_low_45_down,1,right,0.0997019,1,1,30,1,FALSE,0,0,1,1,TRUE,FALSE,low_4,0.75,-1,3,,,,,,,,,,,165,7,3.2.2021,164.9585212
274,"['high', 4]",4,black,45,right,up,high,black_high_45_up,white_high_135_up,3,right,0.1257898,1,3,25,1,FALSE,6,1,1,1,TRUE,FALSE,high_4,0.75,-1,3,,,,,,,,,,,165,7,3.2.2021,164.9585212
275,"['high', 6]",6,white,45,left,up,high,white_high_45_up,black_high_135_up,1,left,1.1076317,1,1,31,1,FALSE,8,1,1,1,TRUE,FALSE,high_6,0.75,-1,3,,,,,,,,,,,165,7,3.2.2021,164.9585212
276,"['high', 1]",1,white,135,right,down,high,white_high_135_down,black_high_45_down,12,right,0.2179555,1,12,28,1,TRUE,10,1,1,1,TRUE,FALSE,high_1,0.75,-1,3,,,,,,,,,,,165,7,3.2.2021,164.9585212
277,"['low', 6]",6,white,135,right,down,low,white_low_135_down,black_low_45_down,1,right,0.0990764,1,1,26,1,FALSE,0,0,1,1,TRUE,FALSE,low_6,0.75,-1,3,,,,,,,,,,,165,7,3.2.2021,164.9585212
278,"['high', 4]",4,black,135,left,up,high,black_high_135_up,white_high_45_up,2,left,0.7598288,1,2,26,1,FALSE,6,1,1,1,TRUE,FALSE,high_4,0.75,-1,3,,,,,,,,,,,165,7,3.2.2021,164.9585212
279,"['high', 6]",6,white,135,right,up,high,white_high_135_up,black_high_45_up,1,left,1.1334331,0,1,32,1,FALSE,8,1,1,1,TRUE,FALSE,high_6,0.75,-1,3,,,,,,,,,,,165,7,3.2.2021,164.9585212
280,"['low', 6]",6,white,45,left,up,low,white_low_45_up,black_low_135_up,1,left,0.1146898,1,1,27,1,FALSE,0,0,1,1,TRUE,FALSE,low_6,0.75,-1,3,,,,,,,,,,,165,7,3.2.2021,164.9585212
281,"['high', 1]",1,white,135,right,down,high,white_high_135_down,black_high_45_down,11,right,0.4786572,1,11,29,1,FALSE,10,1,1,1,TRUE,FALSE,high_1,0.75,-1,3,,,,,,,,,,,165,7,3.2.2021,164.9585212
282,"['high', 4]",4,black,45,right,up,high,black_high_45_up,white_high_135_up,1,left,0.3163121,0,1,27,1,FALSE,6,1,1,1,TRUE,FALSE,high_4,0.75,-1,3,,,,,,,,,,,165,7,3.2.2021,164.9585212
283,"['low', 1]",1,black,135,left,down,low,black_low_135_down,white_low_45_down,4,right,0.9766761,0,4,32,0,TRUE,7,1,1,1,TRUE,FALSE,low_1,0.75,-1,3,,,,,,,,,,,165,7,3.2.2021,164.9585212
284,"['high', 1]",1,black,45,right,down,high,black_high_45_down,white_high_135_down,10,right,0.2779163,1,10,30,1,FALSE,10,1,1,1,TRUE,FALSE,high_1,0.75,-1,3,,,,,,,,,,,165,7,3.2.2021,164.9585212
285,"['low', 6]",6,white,135,right,down,low,white_low_135_down,black_low_45_down,1,right,0.4385603,1,1,28,1,FALSE,0,0,1,1,TRUE,FALSE,low_6,0.75,-1,3,,,,,,,,,,,165,7,3.2.2021,164.9585212
286,"['high', 6]",6,white,135,right,down,high,white_high_135_down,black_high_45_down,4,right,0.7081819,1,4,33,0,TRUE,9,1,1,1,TRUE,FALSE,high_6,0.75,-1,3,,,,,,,,,,,165,7,3.2.2021,164.9585212
287,"['high', 3]",3,black,135,left,up,high,black_high_135_up,white_high_45_up,6,left,0.4358448,1,6,27,1,FALSE,10,1,1,1,TRUE,FALSE,high_3,0.75,-1,3,,,,,,,,,,,165,7,3.2.2021,164.9585212
288,"['high', 4]",4,white,135,right,up,high,white_high_135_up,black_high_45_up,4,right,0.2222546,1,4,28,0,TRUE,7,1,1,1,TRUE,FALSE,high_4,0.75,-1,3,,,,,,,,,,,165,7,3.2.2021,164.9585212
289,"['high', 1]",1,black,45,right,up,high,black_high_45_up,white_high_135_up,9,left,1.2128195,0,9,31,1,FALSE,10,1,1,1,TRUE,FALSE,high_1,0.75,-1,3,,,,,,,,,,,165,7,3.2.2021,164.9585212
290,"['high', 4]",4,black,135,left,up,high,black_high_135_up,white_high_45_up,3,left,1.0548493,1,3,29,1,TRUE,8,1,1,1,TRUE,FALSE,high_4,0.75,-1,3,,,,,,,,,,,165,7,3.2.2021,164.9585212
291,"['low', 3]",3,black,45,right,down,low,black_low_45_down,white_low_135_down,1,right,0.2646361,1,1,25,1,FALSE,4,0,1,1,TRUE,FALSE,low_3,0.75,-1,3,,,,,,,,,,,165,7,3.2.2021,164.9585212
292,"['high', 3]",3,black,135,left,up,high,black_high_135_up,white_high_45_up,5,left,0.1087996,1,5,28,1,FALSE,10,1,1,1,TRUE,FALSE,high_3,0.75,-1,3,,,,,,,,,,,165,7,3.2.2021,164.9585212
293,"['high', 3]",3,white,135,right,down,high,white_high_135_down,black_high_45_down,4,right,0.0809151,1,4,29,1,FALSE,10,1,1,1,TRUE,FALSE,high_3,0.75,-1,3,,,,,,,,,,,165,7,3.2.2021,164.9585212
294,"['high', 2]",2,black,45,right,down,high,black_high_45_down,white_high_135_down,5,right,0.0542994,1,5,24,1,FALSE,10,1,1,1,TRUE,FALSE,high_2,0.75,-1,3,,,,,,,,,,,165,7,3.2.2021,164.9585212
295,"['high', 4]",4,white,135,right,down,high,white_high_135_down,black_high_45_down,2,right,0.1038945,1,2,30,1,FALSE,8,1,1,1,TRUE,FALSE,high_4,0.75,-1,3,,,,,,,,,,,165,7,3.2.2021,164.9585212
296,"['low', 3]",3,black,45,right,down,low,black_low_45_down,white_low_135_down,1,right,0.1503204,1,1,26,1,FALSE,4,0,1,1,TRUE,FALSE,low_3,0.75,-1,3,,,,,,,,,,,165,7,3.2.2021,164.9585212
297,"['low', 6]",6,white,135,right,up,low,white_low_135_up,black_low_45_up,1,right,0.1609172,1,1,29,1,FALSE,0,0,1,1,TRUE,FALSE,low_6,0.75,-1,3,,,,,,,,,,,165,7,3.2.2021,164.9585212
298,"['low', 4]",4,white,135,right,up,low,white_low_135_up,black_low_45_up,1,right,0.045716,1,1,31,1,FALSE,0,0,1,1,TRUE,FALSE,low_4,0.75,-1,3,,,,,,,,,,,165,7,3.2.2021,164.9585212
299,"['low', 4]",4,white,135,right,up,low,white_low_135_up,black_low_45_up,1,right,0.0483787,1,1,32,1,FALSE,0,0,1,1,TRUE,FALSE,low_4,0.75,-1,3,,,,,,,,,,,165,7,3.2.2021,164.9585212
300,"['high', 6]",6,black,135,left,up,high,black_high_135_up,white_high_45_up,3,left,0.3001609,1,3,34,1,TRUE,10,1,1,1,TRUE,FALSE,high_6,0.75,-1,3,,,,,,,,,,,165,7,3.2.2021,164.9585212
301,"['high', 2]",2,black,135,left,up,high,black_high_135_up,white_high_45_up,4,left,0.8373721,1,4,25,1,FALSE,10,1,1,1,TRUE,FALSE,high_2,0.75,-1,3,,,,,,,,,,,165,7,3.2.2021,164.9585212
302,"['low', 3]",3,white,135,right,up,low,white_low_135_up,black_low_45_up,1,right,0.1754531,1,1,27,1,FALSE,4,0,1,1,TRUE,FALSE,low_3,0.75,-1,3,,,,,,,,,,,165,7,3.2.2021,164.9585212
303,"['high', 6]",6,white,45,left,up,high,white_high_45_up,black_high_135_up,2,left,0.2272007,1,2,35,1,FALSE,10,1,1,1,TRUE,FALSE,high_6,0.75,-1,3,,,,,,,,,,,165,7,3.2.2021,164.9585212
304,"['low', 3]",3,black,135,left,down,low,black_low_135_down,white_low_45_down,1,left,1.6621782,1,1,28,1,FALSE,4,0,1,1,TRUE,FALSE,low_3,0.75,-1,3,,,,,,,,,,,165,7,3.2.2021,164.9585212
305,"['high', 4]",4,black,45,right,down,high,black_high_45_down,white_high_135_down,1,left,0.7964458,0,1,31,1,FALSE,8,1,1,1,TRUE,FALSE,high_4,0.75,-1,3,,,,,,,,,,,165,7,3.2.2021,164.9585212
306,"['low', 3]",3,black,45,right,up,low,black_low_45_up,white_low_135_up,1,right,0.3397136,1,1,29,1,FALSE,4,0,1,1,TRUE,FALSE,low_3,0.75,-1,3,,,,,,,,,,,165,7,3.2.2021,164.9585212
307,"['high', 2]",2,black,45,right,down,high,black_high_45_down,white_high_135_down,3,right,1.1067994,1,3,26,1,FALSE,10,1,1,1,TRUE,FALSE,high_2,0.75,-1,3,,,,,,,,,,,165,7,3.2.2021,164.9585212
308,"['low', 1]",1,white,135,right,up,low,white_low_135_up,black_low_45_up,7,right,0.1476191,1,7,33,0,FALSE,7,1,1,1,TRUE,FALSE,low_1,0.75,-1,3,,,,,,,,,,,165,7,3.2.2021,164.9585212
309,"['high', 3]",3,white,135,right,down,high,white_high_135_down,black_high_45_down,3,right,0.410842,1,3,30,1,FALSE,10,1,1,1,TRUE,FALSE,high_3,0.75,-1,3,,,,,,,,,,,165,7,3.2.2021,164.9585212
310,"['high', 1]",1,black,45,right,down,high,black_high_45_down,white_high_135_down,12,right,0.6031483,1,12,32,0,TRUE,11,1,1,1,TRUE,FALSE,high_1,0.75,-1,3,,,,,,,,,,,165,7,3.2.2021,164.9585212
311,"['low', 2]",2,white,45,left,down,low,white_low_45_down,black_low_135_down,1,right,1.5142831,0,1,25,1,FALSE,4,0,1,1,TRUE,FALSE,low_2,0.75,-1,3,,,,,,,,,,,165,7,3.2.2021,164.9585212
312,"['high', 6]",6,black,45,right,up,high,black_high_45_up,white_high_135_up,1,right,1.3116405,1,1,36,1,FALSE,10,1,1,1,TRUE,FALSE,high_6,0.75,-1,3,,,,,,,,,,,165,7,3.2.2021,164.9585212
313,"['high', 2]",2,white,45,left,down,high,white_high_45_down,black_high_135_down,2,left,0.5307253,1,2,27,1,FALSE,10,1,1,1,TRUE,FALSE,high_2,0.75,-1,3,,,,,,,,,,,165,7,3.2.2021,164.9585212
314,"['high', 3]",3,black,45,right,up,high,black_high_45_up,white_high_135_up,2,right,1.0736875,1,2,31,1,FALSE,10,1,1,1,TRUE,FALSE,high_3,0.75,-1,3,,,,,,,,,,,165,7,3.2.2021,164.9585212
315,"['high', 1]",1,white,45,left,up,high,white_high_45_up,black_high_135_up,11,left,0.1223674,1,11,33,1,TRUE,12,1,1,1,TRUE,FALSE,high_1,0.75,-1,3,,,,,,,,,,,165,7,3.2.2021,164.9585212
316,"['low', 1]",1,black,45,right,down,low,black_low_45_down,white_low_135_down,6,left,0.448455,0,6,34,1,TRUE,8,1,1,1,TRUE,FALSE,low_1,0.75,-1,3,,,,,,,,,,,165,7,3.2.2021,164.9585212
317,"['high', 6]",6,white,135,right,down,high,white_high_135_down,black_high_45_down,1,right,0.5204022,1,1,37,1,FALSE,10,1,1,1,TRUE,FALSE,high_6,0.75,-1,3,,,,,,,,,,,165,7,3.2.2021,164.9585212
318,"['low', 6]",6,black,135,left,up,low,black_low_135_up,white_low_45_up,1,left,0.5664297,1,1,30,1,FALSE,0,0,1,1,TRUE,FALSE,low_6,0.75,-1,3,,,,,,,,,,,165,7,3.2.2021,164.9585212
319,"['high', 6]",6,black,45,right,down,high,black_high_45_down,white_high_135_down,1,right,0.7220338,1,1,38,1,FALSE,10,1,1,1,TRUE,FALSE,high_6,0.75,-1,3,,,,,,,,,,,165,7,3.2.2021,164.9585212
320,"['low', 1]",1,white,45,left,up,low,white_low_45_up,black_low_135_up,9,left,0.3145368,1,9,35,0,TRUE,9,1,1,1,TRUE,FALSE,low_1,0.75,-1,3,,,,,,,,,,,165,7,3.2.2021,164.9585212
321,"['high', 6]",6,black,45,right,down,high,black_high_45_down,white_high_135_down,1,right,0.7526272,1,1,39,1,FALSE,10,1,1,1,TRUE,FALSE,high_6,0.75,-1,3,,,,,,,,,,,165,7,3.2.2021,164.9585212
322,"['low', 4]",4,white,135,right,down,low,white_low_135_down,black_low_45_down,1,right,0.2305033,1,1,33,1,FALSE,0,0,1,1,TRUE,FALSE,low_4,0.75,-1,3,,,,,,,,,,,165,7,3.2.2021,164.9585212
323,"['high', 2]",2,white,45,left,up,high,white_high_45_up,black_high_135_up,1,left,0.5127295,1,1,28,1,FALSE,10,1,1,1,TRUE,FALSE,high_2,0.75,-1,3,,,,,,,,,,,165,7,3.2.2021,164.9585212
324,"['low', 4]",4,black,45,right,down,low,black_low_45_down,white_low_135_down,1,right,0.4853574,1,1,34,1,FALSE,0,0,1,1,TRUE,FALSE,low_4,0.75,-1,3,,,,,,,,,,,165,7,3.2.2021,164.9585212
325,"['high', 4]",4,black,45,right,down,high,black_high_45_down,white_high_135_down,4,right,0.0316372,1,4,32,0,TRUE,9,1,1,1,TRUE,FALSE,high_4,0.75,-1,3,,,,,,,,,,,165,7,3.2.2021,164.9585212
326,"['low', 1]",1,black,45,right,up,low,black_low_45_up,white_low_135_up,8,right,0.2934587,1,8,36,1,TRUE,10,1,1,1,TRUE,FALSE,low_1,0.75,-1,3,,,,,,,,,,,165,7,3.2.2021,164.9585212
327,"['high', 4]",4,white,45,left,down,high,white_high_45_down,black_high_135_down,3,left,0.2283609,1,3,33,1,TRUE,10,1,1,1,TRUE,FALSE,high_4,0.75,-1,3,,,,,,,,,,,165,7,3.2.2021,164.9585212
328,"['high', 4]",4,black,45,right,down,high,black_high_45_down,white_high_135_down,2,right,0.1101396,1,2,34,1,FALSE,10,1,1,1,TRUE,FALSE,high_4,0.75,-1,3,,,,,,,,,,,165,7,3.2.2021,164.9585212
329,"['low', 4]",4,black,45,right,down,low,black_low_45_down,white_low_135_down,1,right,0.1828164,1,1,35,1,FALSE,0,0,1,1,TRUE,FALSE,low_4,0.75,-1,3,,,,,,,,,,,165,7,3.2.2021,164.9585212
330,"['low', 4]",4,white,45,left,up,low,white_low_45_up,black_low_135_up,1,left,0.5328254,1,1,36,1,FALSE,0,0,1,1,TRUE,FALSE,low_4,0.75,-1,3,,,,,,,,,,,165,7,3.2.2021,164.9585212
331,"['low', 1]",1,black,45,right,up,low,black_low_45_up,white_low_135_up,7,right,0.2114337,1,7,37,1,FALSE,10,1,1,1,TRUE,FALSE,low_1,0.75,-1,3,,,,,,,,,,,165,7,3.2.2021,164.9585212
332,"['high', 6]",6,white,135,right,up,high,white_high_135_up,black_high_45_up,1,right,0.4261436,1,1,40,1,FALSE,10,1,1,1,TRUE,FALSE,high_6,0.75,-1,3,,,,,,,,,,,165,7,3.2.2021,164.9585212
333,"['high', 6]",6,white,135,right,down,high,white_high_135_down,black_high_45_down,1,left,0.729257,0,1,41,1,FALSE,10,1,1,1,TRUE,FALSE,high_6,0.75,-1,3,,,,,,,,,,,165,7,3.2.2021,164.9585212
334,"['high', 2]",2,white,135,right,down,high,white_high_135_down,black_high_45_down,1,right,0.5082859,1,1,29,1,FALSE,10,1,1,1,TRUE,FALSE,high_2,0.75,-1,3,,,,,,,,,,,165,7,3.2.2021,164.9585212
335,"['low', 1]",1,black,45,right,up,low,black_low_45_up,white_low_135_up,6,right,0.6527547,1,6,38,1,FALSE,10,1,1,1,TRUE,FALSE,low_1,0.75,-1,3,,,,,,,,,,,165,7,3.2.2021,164.9585212
336,"['high', 1]",1,black,45,right,up,high,black_high_45_up,white_high_135_up,10,right,0.6817756,1,10,34,1,FALSE,12,1,1,1,TRUE,FALSE,high_1,0.75,-1,3,,,,,,,,,,,165,7,3.2.2021,164.9585212
337,"['low', 1]",1,black,135,left,down,low,black_low_135_down,white_low_45_down,5,right,0.4249856,0,5,39,1,FALSE,10,1,1,1,TRUE,FALSE,low_1,0.75,-1,3,,,,,,,,,,,165,7,3.2.2021,164.9585212
338,"['low', 6]",6,black,45,right,up,low,black_low_45_up,white_low_135_up,1,right,0.0261623,1,1,31,1,FALSE,0,0,1,1,TRUE,FALSE,low_6,0.75,-1,3,,,,,,,,,,,165,7,3.2.2021,164.9585212
339,"['low', 6]",6,black,135,left,up,low,black_low_135_up,white_low_45_up,1,left,0.3278308,1,1,32,1,FALSE,0,0,1,1,TRUE,FALSE,low_6,0.75,-1,3,,,,,,,,,,,165,7,3.2.2021,164.9585212
340,"['high', 3]",3,black,135,left,down,high,black_high_135_down,white_high_45_down,1,left,1.0283339,1,1,32,1,FALSE,10,1,1,1,TRUE,FALSE,high_3,0.75,-1,3,,,,,,,,,,,165,7,3.2.2021,164.9585212
341,"['low', 1]",1,white,135,right,up,low,white_low_135_up,black_low_45_up,8,right,0.0179638,1,8,40,0,TRUE,11,1,1,1,TRUE,FALSE,low_1,0.75,-1,3,,,,,,,,,,,165,7,3.2.2021,164.9585212
342,"['high', 1]",1,black,45,right,up,high,black_high_45_up,white_high_135_up,9,right,0.6099804,1,9,35,1,FALSE,12,1,1,1,TRUE,FALSE,high_1,0.75,-1,3,,,,,,,,,,,165,7,3.2.2021,164.9585212
343,"['high', 4]",4,white,45,left,up,high,white_high_45_up,black_high_135_up,1,left,0.6250071,1,1,35,1,FALSE,10,1,1,1,TRUE,FALSE,high_4,0.75,-1,3,,,,,,,,,,,165,7,3.2.2021,164.9585212
344,"['high', 2]",2,black,45,right,up,high,black_high_45_up,white_high_135_up,1,left,0.6921898,0,1,30,1,FALSE,10,1,1,1,TRUE,FALSE,high_2,0.75,-1,3,,,,,,,,,,,165,7,3.2.2021,164.9585212
345,"['high', 3]",3,black,45,right,down,high,black_high_45_down,white_high_135_down,1,left,0.8603766,0,1,33,1,FALSE,10,1,1,1,TRUE,FALSE,high_3,0.75,-1,3,,,,,,,,,,,165,7,3.2.2021,164.9585212
346,"['low', 3]",3,white,45,left,down,low,white_low_45_down,black_low_135_down,1,left,0.6449042,1,1,30,1,FALSE,4,0,1,1,TRUE,FALSE,low_3,0.75,-1,3,,,,,,,,,,,165,7,3.2.2021,164.9585212
347,"['low', 4]",4,black,45,right,up,low,black_low_45_up,white_low_135_up,1,right,0.0068746,1,1,37,1,FALSE,0,0,1,1,TRUE,FALSE,low_4,0.75,-1,3,,,,,,,,,,,165,7,3.2.2021,164.9585212
348,"['low', 6]",6,white,45,left,up,low,white_low_45_up,black_low_135_up,1,left,0.0256552,1,1,33,1,FALSE,0,0,1,1,TRUE,FALSE,low_6,0.75,-1,3,,,,,,,,,,,165,7,3.2.2021,164.9585212
349,"['low', 3]",3,white,135,right,up,low,white_low_135_up,black_low_45_up,1,right,0.1439746,1,1,31,1,FALSE,4,0,1,1,TRUE,FALSE,low_3,0.75,-1,3,,,,,,,,,,,165,7,3.2.2021,164.9585212
350,"['high', 3]",3,black,135,left,up,high,black_high_135_up,white_high_45_up,4,left,0.0662643,1,4,34,0,TRUE,11,1,1,1,TRUE,FALSE,high_3,0.75,-1,3,,,,,,,,,,,165,7,3.2.2021,164.9585212
351,"['high', 4]",4,white,45,left,up,high,white_high_45_up,black_high_135_up,1,left,0.6723946,1,1,36,1,FALSE,10,1,1,1,TRUE,FALSE,high_4,0.75,-1,3,,,,,,,,,,,165,7,3.2.2021,164.9585212
352,"['low', 2]",2,black,45,right,up,low,black_low_45_up,white_low_135_up,4,right,0.0122483,1,4,26,0,TRUE,5,1,1,1,TRUE,FALSE,low_2,0.75,-1,3,,,,,,,,,,,165,7,3.2.2021,164.9585212
353,"['low', 6]",6,white,135,right,down,low,white_low_135_down,black_low_45_down,1,right,0.1256268,1,1,34,1,FALSE,0,0,1,1,TRUE,FALSE,low_6,0.75,-1,3,,,,,,,,,,,165,7,3.2.2021,164.9585212
354,"['high', 4]",4,black,45,right,up,high,black_high_45_up,white_high_135_up,1,right,1.0653249,1,1,37,1,FALSE,10,1,1,1,TRUE,FALSE,high_4,0.75,-1,3,,,,,,,,,,,165,7,3.2.2021,164.9585212
355,"['high', 1]",1,white,45,left,up,high,white_high_45_up,black_high_135_up,8,left,0.763267,1,8,36,1,FALSE,12,1,1,1,TRUE,FALSE,high_1,0.75,-1,3,,,,,,,,,,,165,7,3.2.2021,164.9585212
356,"['high', 3]",3,white,45,left,down,high,white_high_45_down,black_high_135_down,3,right,2.1419703,0,3,35,1,TRUE,12,1,1,1,TRUE,FALSE,high_3,0.75,-1,3,,,,,,,,,,,165,7,3.2.2021,164.9585212
357,"['low', 1]",1,black,135,left,down,low,black_low_135_down,white_low_45_down,7,right,0.4490493,0,7,41,1,TRUE,12,1,1,1,TRUE,FALSE,low_1,0.75,-1,3,,,,,,,,,,,165,7,3.2.2021,164.9585212
358,"['low', 2]",2,black,135,left,up,low,black_low_135_up,white_low_45_up,3,left,0.2176632,1,3,27,1,TRUE,6,1,1,1,TRUE,FALSE,low_2,0.75,-1,3,,,,,,,,,,,165,7,3.2.2021,164.9585212
359,"['high', 6]",6,white,45,left,down,high,white_high_45_down,black_high_135_down,4,left,1.1498857,1,4,42,0,TRUE,11,1,1,1,TRUE,FALSE,high_6,0.75,-1,3,,,,,,,,,,,165,7,3.2.2021,164.9585212
360,"['low', 3]",3,white,45,left,down,low,white_low_45_down,black_low_135_down,1,left,0.2939061,1,1,32,1,FALSE,4,0,1,1,TRUE,FALSE,low_3,0.75,-1,3,,,,,,,,,,,165,7,3.2.2021,164.9585212
361,"['high', 2]",2,white,45,left,up,high,white_high_45_up,black_high_135_up,4,left,0.8414033,1,4,31,0,TRUE,11,1,1,1,TRUE,FALSE,high_2,0.75,-1,3,,,,,,,,,,,165,7,3.2.2021,164.9585212
362,"['high', 1]",1,black,135,left,up,high,black_high_135_up,white_high_45_up,7,left,0.3120106,1,7,37,1,FALSE,12,1,1,1,TRUE,FALSE,high_1,0.75,-1,3,,,,,,,,,,,165,7,3.2.2021,164.9585212
363,"['low', 6]",6,black,135,left,up,low,black_low_135_up,white_low_45_up,1,left,0.171334,1,1,35,1,FALSE,0,0,1,1,TRUE,FALSE,low_6,0.75,-1,3,,,,,,,,,,,165,7,3.2.2021,164.9585212
364,"['low', 3]",3,black,45,right,up,low,black_low_45_up,white_low_135_up,1,right,0.094516,1,1,33,1,FALSE,4,0,1,1,TRUE,FALSE,low_3,0.75,-1,3,,,,,,,,,,,165,7,3.2.2021,164.9585212
365,"['low', 4]",4,black,135,left,up,low,black_low_135_up,white_low_45_up,1,left,0.7552069,1,1,38,1,FALSE,0,0,1,1,TRUE,FALSE,low_4,0.75,-1,3,,,,,,,,,,,165,7,3.2.2021,164.9585212
366,"['high', 6]",6,white,45,left,up,high,white_high_45_up,black_high_135_up,3,left,0.2704815,1,3,43,1,TRUE,12,1,1,1,TRUE,FALSE,high_6,0.75,-1,3,,,,,,,,,,,165,7,3.2.2021,164.9585212
367,"['low', 4]",4,white,45,left,up,low,white_low_45_up,black_low_135_up,1,left,0.1634745,1,1,39,1,FALSE,0,0,1,1,TRUE,FALSE,low_4,0.75,-1,3,,,,,,,,,,,165,7,3.2.2021,164.9585212
368,"['low', 1]",1,white,45,left,up,low,white_low_45_up,black_low_135_up,10,left,0.6370991,1,10,42,0,TRUE,13,1,1,1,TRUE,FALSE,low_1,0.75,-1,3,,,,,,,,,,,165,7,3.2.2021,164.9585212
369,"['low', 2]",2,white,135,right,up,low,white_low_135_up,black_low_45_up,2,right,0.0198598,1,2,28,1,FALSE,6,1,1,1,TRUE,FALSE,low_2,0.75,-1,3,,,,,,,,,,,165,7,3.2.2021,164.9585212
370,"['high', 1]",1,white,135,right,down,high,white_high_135_down,black_high_45_down,6,right,4.5271052,1,6,38,1,FALSE,12,1,1,1,TRUE,FALSE,high_1,0.75,-1,3,,,,,,,,,,,165,7,3.2.2021,164.9585212
371,"['high', 6]",6,black,135,left,up,high,black_high_135_up,white_high_45_up,2,left,0.4205484,1,2,44,1,FALSE,12,1,1,1,TRUE,FALSE,high_6,0.75,-1,3,,,,,,,,,,,165,7,3.2.2021,164.9585212
372,"['high', 1]",1,white,135,right,up,high,white_high_135_up,black_high_45_up,5,right,0.2318504,1,5,39,1,FALSE,12,1,1,1,TRUE,FALSE,high_1,0.75,-1,3,,,,,,,,,,,165,7,3.2.2021,164.9585212
373,"['low', 1]",1,white,45,left,down,low,white_low_45_down,black_low_135_down,9,left,0.0730788,1,9,43,1,TRUE,14,1,1,1,TRUE,FALSE,low_1,0.75,-1,3,,,,,,,,,,,165,7,3.2.2021,164.9585212
374,"['low', 2]",2,white,135,right,down,low,white_low_135_down,black_low_45_down,1,right,0.1981852,1,1,29,1,FALSE,6,1,1,1,TRUE,FALSE,low_2,0.75,-1,3,,,,,,,,,,,165,7,3.2.2021,164.9585212
375,"['high', 2]",2,black,45,right,up,high,black_high_45_up,white_high_135_up,3,right,0.6523118,1,3,32,1,TRUE,12,1,1,1,TRUE,FALSE,high_2,0.75,-1,3,,,,,,,,,,,165,7,3.2.2021,164.9585212
376,"['high', 4]",4,black,45,right,down,high,black_high_45_down,white_high_135_down,1,left,0.703002,0,1,38,1,FALSE,10,1,1,1,TRUE,FALSE,high_4,0.75,-1,3,,,,,,,,,,,165,7,3.2.2021,164.9585212
377,"['low', 6]",6,black,45,right,up,low,black_low_45_up,white_low_135_up,1,right,0.1976126,1,1,36,1,FALSE,0,0,1,1,TRUE,FALSE,low_6,0.75,-1,3,,,,,,,,,,,165,7,3.2.2021,164.9585212
378,"['high', 1]",1,white,45,left,up,high,white_high_45_up,black_high_135_up,4,left,0.291715,1,4,40,1,FALSE,12,1,1,1,TRUE,FALSE,high_1,0.75,-1,3,,,,,,,,,,,165,7,3.2.2021,164.9585212
379,"['high', 3]",3,white,135,right,up,high,white_high_135_up,black_high_45_up,6,right,0.3684432,1,6,36,0,TRUE,13,1,1,1,TRUE,FALSE,high_3,0.75,-1,3,,,,,,,,,,,165,7,3.2.2021,164.9585212
380,"['high', 3]",3,white,45,left,down,high,white_high_45_down,black_high_135_down,5,left,0.2759233,1,5,37,1,TRUE,14,1,1,1,TRUE,FALSE,high_3,0.75,-1,3,,,,,,,,,,,165,7,3.2.2021,164.9585212
381,"['low', 2]",2,black,45,right,down,low,black_low_45_down,white_low_135_down,1,right,0.4139305,1,1,30,1,FALSE,6,1,1,1,TRUE,FALSE,low_2,0.75,-1,3,,,,,,,,,,,165,7,3.2.2021,164.9585212
382,"['high', 3]",3,white,45,left,up,high,white_high_45_up,black_high_135_up,4,left,0.3988737,1,4,38,1,FALSE,14,1,1,1,TRUE,FALSE,high_3,0.75,-1,3,,,,,,,,,,,165,7,3.2.2021,164.9585212
383,"['high', 3]",3,white,45,left,down,high,white_high_45_down,black_high_135_down,3,left,0.1193823,1,3,39,1,FALSE,14,1,1,1,TRUE,FALSE,high_3,0.75,-1,3,,,,,,,,,,,165,7,3.2.2021,164.9585212
384,"['low', 2]",2,black,135,left,down,low,black_low_135_down,white_low_45_down,1,left,0.1132466,1,1,31,1,FALSE,6,1,1,1,TRUE,FALSE,low_2,0.75,-1,3,,,,,,,,,,,165,7,3.2.2021,164.9585212
385,"['high', 1]",1,white,45,left,down,high,white_high_45_down,black_high_135_down,3,right,0.1704152,0,3,41,1,FALSE,12,1,1,1,TRUE,FALSE,high_1,0.75,-1,3,,,,,,,,,,,165,7,3.2.2021,164.9585212
386,"['high', 3]",3,black,45,right,down,high,black_high_45_down,white_high_135_down,2,right,0.8674579,1,2,40,1,FALSE,14,1,1,1,TRUE,FALSE,high_3,0.75,-1,3,,,,,,,,,,,165,7,3.2.2021,164.9585212
387,"['high', 4]",4,white,135,right,up,high,white_high_135_up,black_high_45_up,4,right,0.1838344,1,4,39,0,TRUE,11,1,1,1,TRUE,FALSE,high_4,0.75,-1,3,,,,,,,,,,,165,7,3.2.2021,164.9585212
388,"['low', 4]",4,black,135,left,down,low,black_low_135_down,white_low_45_down,1,left,0.1144717,1,1,40,1,FALSE,0,0,1,1,TRUE,FALSE,low_4,0.75,-1,3,,,,,,,,,,,165,7,3.2.2021,164.9585212
389,"['low', 4]",4,black,45,right,up,low,black_low_45_up,white_low_135_up,1,right,0.1865551,1,1,41,1,FALSE,0,0,1,1,TRUE,FALSE,low_4,0.75,-1,3,,,,,,,,,,,165,7,3.2.2021,164.9585212
390,"['low', 2]",2,white,135,right,up,low,white_low_135_up,black_low_45_up,1,right,0.3393975,1,1,32,1,FALSE,6,1,1,1,TRUE,FALSE,low_2,0.75,-1,3,,,,,,,,,,,165,7,3.2.2021,164.9585212
391,"['high', 3]",3,white,135,right,down,high,white_high_135_down,black_high_45_down,1,left,0.2384138,0,1,41,1,FALSE,14,1,1,1,TRUE,FALSE,high_3,0.75,-1,3,,,,,,,,,,,165,7,3.2.2021,164.9585212
392,"['high', 4]",4,black,135,left,down,high,black_high_135_down,white_high_45_down,3,left,0.079033,1,3,40,1,TRUE,12,1,1,1,TRUE,FALSE,high_4,0.75,-1,3,,,,,,,,,,,165,7,3.2.2021,164.9585212
393,"['low', 1]",1,white,45,left,down,low,white_low_45_down,black_low_135_down,8,left,0.1568283,1,8,44,1,FALSE,14,1,1,1,TRUE,FALSE,low_1,0.75,-1,3,,,,,,,,,,,165,7,3.2.2021,164.9585212
394,"['low', 3]",3,white,135,right,up,low,white_low_135_up,black_low_45_up,1,right,0.3334445,1,1,34,1,FALSE,4,0,1,1,TRUE,FALSE,low_3,0.75,-1,3,,,,,,,,,,,165,7,3.2.2021,164.9585212
395,"['low', 4]",4,black,45,right,up,low,black_low_45_up,white_low_135_up,1,right,0.2166459,1,1,42,1,FALSE,0,0,1,1,TRUE,FALSE,low_4,0.75,-1,3,,,,,,,,,,,165,7,3.2.2021,164.9585212
396,"['high', 3]",3,white,45,left,up,high,white_high_45_up,black_high_135_up,4,right,0.9739325,0,4,42,0,TRUE,15,1,1,1,TRUE,FALSE,high_3,0.75,-1,3,,,,,,,,,,,165,7,3.2.2021,164.9585212
397,"['high', 2]",2,black,135,left,up,high,black_high_135_up,white_high_45_up,2,left,0.1902351,1,2,33,1,FALSE,12,1,1,1,TRUE,FALSE,high_2,0.75,-1,3,,,,,,,,,,,165,7,3.2.2021,164.9585212
398,"['low', 4]",4,white,135,right,up,low,white_low_135_up,black_low_45_up,1,right,0.0423774,1,1,43,1,FALSE,0,0,1,1,TRUE,FALSE,low_4,0.75,-1,3,,,,,,,,,,,165,7,3.2.2021,164.9585212
399,"['high', 4]",4,black,45,right,up,high,black_high_45_up,white_high_135_up,2,left,0.8692541,0,2,41,1,FALSE,12,1,1,1,TRUE,FALSE,high_4,0.75,-1,3,,,,,,,,,,,165,7,3.2.2021,164.9585212
400,"['high', 6]",6,black,45,right,up,high,black_high_45_up,white_high_135_up,1,right,1.4920652,1,1,45,1,FALSE,12,1,1,1,TRUE,FALSE,high_6,0.75,-1,3,,,,,,,,,,,165,7,3.2.2021,164.9585212
401,"['high', 3]",3,white,45,left,down,high,white_high_45_down,black_high_135_down,7,left,0.331991,1,7,43,0,FALSE,15,1,1,1,TRUE,FALSE,high_3,0.75,-1,3,,,,,,,,,,,165,7,3.2.2021,164.9585212
402,"['low', 2]",2,white,45,left,up,low,white_low_45_up,black_low_135_up,1,right,0.388599,0,1,33,1,FALSE,6,1,1,1,TRUE,FALSE,low_2,0.75,-1,3,,,,,,,,,,,165,7,3.2.2021,164.9585212
403,"['high', 4]",4,white,135,right,down,high,white_high_135_down,black_high_45_down,5,right,0.2598287,1,5,42,0,TRUE,13,1,1,1,TRUE,FALSE,high_4,0.75,-1,3,,,,,,,,,,,165,7,3.2.2021,164.9585212
404,"['low', 6]",6,black,45,right,up,low,black_low_45_up,white_low_135_up,1,right,0.1179019,1,1,37,1,FALSE,0,0,1,1,TRUE,FALSE,low_6,0.75,-1,3,,,,,,,,,,,165,7,3.2.2021,164.9585212
405,"['high', 2]",2,white,45,left,down,high,white_high_45_down,black_high_135_down,1,left,0.4001091,1,1,34,1,FALSE,12,1,1,1,TRUE,FALSE,high_2,0.75,-1,3,,,,,,,,,,,165,7,3.2.2021,164.9585212
406,"['low', 2]",2,black,45,right,down,low,black_low_45_down,white_low_135_down,4,right,0.3070335,1,4,34,0,TRUE,7,1,1,1,TRUE,FALSE,low_2,0.75,-1,3,,,,,,,,,,,165,7,3.2.2021,164.9585212
407,"['low', 2]",2,white,135,right,down,low,white_low_135_down,black_low_45_down,3,right,0.8010416,1,3,35,1,TRUE,8,1,1,1,TRUE,FALSE,low_2,0.75,-1,3,,,,,,,,,,,165,7,3.2.2021,164.9585212
408,"['high', 6]",6,white,45,left,up,high,white_high_45_up,black_high_135_up,1,left,0.7574492,1,1,46,1,FALSE,12,1,1,1,TRUE,FALSE,high_6,0.75,-1,3,,,,,,,,,,,165,7,3.2.2021,164.9585212
409,"['high', 1]",1,white,135,right,down,high,white_high_135_down,black_high_45_down,6,right,0.1979223,1,6,42,0,TRUE,13,1,1,1,TRUE,FALSE,high_1,0.75,-1,3,,,,,,,,,,,165,7,3.2.2021,164.9585212
410,"['high', 2]",2,black,135,left,down,high,black_high_135_down,white_high_45_down,1,right,0.5296767,0,1,35,1,FALSE,12,1,1,1,TRUE,FALSE,high_2,0.75,-1,3,,,,,,,,,,,165,7,3.2.2021,164.9585212
411,"['low', 4]",4,black,45,right,down,low,black_low_45_down,white_low_135_down,1,right,0.0562036,1,1,44,1,FALSE,0,0,1,1,TRUE,FALSE,low_4,0.75,-1,3,,,,,,,,,,,165,7,3.2.2021,164.9585212
412,"['low', 4]",4,white,45,left,down,low,white_low_45_down,black_low_135_down,1,left,0.460545,1,1,45,1,FALSE,0,0,1,1,TRUE,FALSE,low_4,0.75,-1,3,,,,,,,,,,,165,7,3.2.2021,164.9585212
413,"['low', 1]",1,white,135,right,down,low,white_low_135_down,black_low_45_down,7,right,0.2437006,1,7,45,1,FALSE,14,1,1,1,TRUE,FALSE,low_1,0.75,-1,3,,,,,,,,,,,165,7,3.2.2021,164.9585212
414,"['high', 3]",3,black,135,left,down,high,black_high_135_down,white_high_45_down,6,left,0.0525696,1,6,44,1,TRUE,16,1,1,1,TRUE,FALSE,high_3,0.75,-1,3,,,,,,,,,,,165,7,3.2.2021,164.9585212
415,"['high', 3]",3,black,135,left,up,high,black_high_135_up,white_high_45_up,5,left,0.1556201,1,5,45,1,FALSE,16,1,1,1,TRUE,FALSE,high_3,0.75,-1,3,,,,,,,,,,,165,7,3.2.2021,164.9585212
416,"['high', 3]",3,black,45,right,down,high,black_high_45_down,white_high_135_down,4,right,0.0938995,1,4,46,1,FALSE,16,1,1,1,TRUE,FALSE,high_3,0.75,-1,3,,,,,,,,,,,165,7,3.2.2021,164.9585212
417,"['low', 2]",2,black,45,right,down,low,black_low_45_down,white_low_135_down,2,right,0.1721348,1,2,36,1,FALSE,8,1,1,1,TRUE,FALSE,low_2,0.75,-1,3,,,,,,,,,,,165,7,3.2.2021,164.9585212
418,"['high', 4]",4,black,45,right,down,high,black_high_45_down,white_high_135_down,4,right,0.4430423,1,4,43,1,TRUE,14,1,1,1,TRUE,FALSE,high_4,0.75,-1,3,,,,,,,,,,,165,7,3.2.2021,164.9585212
419,"['high', 2]",2,white,135,right,up,high,white_high_135_up,black_high_45_up,4,right,0.2313477,1,4,36,0,TRUE,13,1,1,1,TRUE,FALSE,high_2,0.75,-1,3,,,,,,,,,,,165,7,3.2.2021,164.9585212
420,"['low', 6]",6,white,45,left,down,low,white_low_45_down,black_low_135_down,1,left,0.9537791,1,1,38,1,FALSE,0,0,1,1,TRUE,FALSE,low_6,0.75,-1,3,,,,,,,,,,,165,7,3.2.2021,164.9585212
421,"['low', 3]",3,white,45,left,down,low,white_low_45_down,black_low_135_down,1,left,0.0134949,1,1,35,1,FALSE,4,0,1,1,TRUE,FALSE,low_3,0.75,-1,3,,,,,,,,,,,165,7,3.2.2021,164.9585212
422,"['high', 1]",1,white,45,left,down,high,white_high_45_down,black_high_135_down,5,left,0.162844,1,5,43,1,TRUE,14,1,1,1,TRUE,FALSE,high_1,0.75,-1,3,,,,,,,,,,,165,7,3.2.2021,164.9585212
423,"['low', 3]",3,white,135,right,up,low,white_low_135_up,black_low_45_up,1,right,0.3779764,1,1,36,1,FALSE,4,0,1,1,TRUE,FALSE,low_3,0.75,-1,3,,,,,,,,,,,165,7,3.2.2021,164.9585212
424,"['low', 2]",2,white,135,right,down,low,white_low_135_down,black_low_45_down,1,right,0.239087,1,1,37,1,FALSE,8,1,1,1,TRUE,FALSE,low_2,0.75,-1,3,,,,,,,,,,,165,7,3.2.2021,164.9585212
425,"['low', 3]",3,white,45,left,down,low,white_low_45_down,black_low_135_down,1,left,0.0348845,1,1,37,1,FALSE,4,0,1,1,TRUE,FALSE,low_3,0.75,-1,3,,,,,,,,,,,165,7,3.2.2021,164.9585212
426,"['low', 6]",6,black,45,right,down,low,black_low_45_down,white_low_135_down,1,right,0.0283308,1,1,39,1,FALSE,0,0,1,1,TRUE,FALSE,low_6,0.75,-1,3,,,,,,,,,,,165,7,3.2.2021,164.9585212
427,"['high', 6]",6,black,135,left,up,high,black_high_135_up,white_high_45_up,1,left,0.5500751,1,1,47,1,FALSE,12,1,1,1,TRUE,FALSE,high_6,0.75,-1,3,,,,,,,,,,,165,7,3.2.2021,164.9585212
428,"['high', 2]",2,black,135,left,down,high,black_high_135_down,white_high_45_down,3,left,0.4266073,1,3,37,1,TRUE,14,1,1,1,TRUE,FALSE,high_2,0.75,-1,3,,,,,,,,,,,165,7,3.2.2021,164.9585212
429,"['low', 3]",3,black,135,left,down,low,black_low_135_down,white_low_45_down,1,left,0.1679695,1,1,38,1,FALSE,4,0,1,1,TRUE,FALSE,low_3,0.75,-1,3,,,,,,,,,,,165,7,3.2.2021,164.9585212
430,"['high', 1]",1,white,135,right,up,high,white_high_135_up,black_high_45_up,4,right,0.5920649,1,4,44,1,FALSE,14,1,1,1,TRUE,FALSE,high_1,0.75,-1,3,,,,,,,,,,,165,7,3.2.2021,164.9585212
431,"['high', 3]",3,black,45,right,down,high,black_high_45_down,white_high_135_down,3,right,0.1525734,1,3,47,1,FALSE,16,1,1,1,TRUE,FALSE,high_3,0.75,-1,3,,,,,,,,,,,165,7,3.2.2021,164.9585212
432,"['high', 2]",2,black,45,right,up,high,black_high_45_up,white_high_135_up,2,left,0.4658727,0,2,38,1,FALSE,14,1,1,1,TRUE,FALSE,high_2,0.75,-1,3,,,,,,,,,,,165,7,3.2.2021,164.9585212
433,"['low', 2]",2,white,45,left,up,low,white_low_45_up,black_low_135_up,1,left,0.4562727,1,1,38,1,FALSE,8,1,1,1,TRUE,FALSE,low_2,0.75,-1,3,,,,,,,,,,,165,7,3.2.2021,164.9585212
434,"['low', 2]",2,black,135,left,up,low,black_low_135_up,white_low_45_up,1,left,0.5976354,1,1,39,1,FALSE,8,1,1,1,TRUE,FALSE,low_2,0.75,-1,3,,,,,,,,,,,165,7,3.2.2021,164.9585212
435,"['high', 2]",2,white,45,left,up,high,white_high_45_up,black_high_135_up,5,left,0.2344574,1,5,39,0,TRUE,15,1,1,1,TRUE,FALSE,high_2,0.75,-1,3,,,,,,,,,,,165,7,3.2.2021,164.9585212
436,"['low', 6]",6,white,45,left,down,low,white_low_45_down,black_low_135_down,1,left,1.1233812,1,1,40,1,FALSE,0,0,1,1,TRUE,FALSE,low_6,0.75,-1,3,,,,,,,,,,,165,7,3.2.2021,164.9585212
437,"['low', 3]",3,black,135,left,down,low,black_low_135_down,white_low_45_down,1,left,0.5368771,1,1,39,1,FALSE,4,0,1,1,TRUE,FALSE,low_3,0.75,-1,3,,,,,,,,,,,165,7,3.2.2021,164.9585212
438,"['low', 6]",6,black,45,right,up,low,black_low_45_up,white_low_135_up,1,right,0.7445076,1,1,41,1,FALSE,0,0,1,1,TRUE,FALSE,low_6,0.75,-1,3,,,,,,,,,,,165,7,3.2.2021,164.9585212
439,"['high', 6]",6,white,135,right,up,high,white_high_135_up,black_high_45_up,1,right,1.1566863,1,1,48,1,FALSE,12,1,1,1,TRUE,FALSE,high_6,0.75,-1,3,,,,,,,,,,,165,7,3.2.2021,164.9585212
440,"['high', 4]",4,black,45,right,up,high,black_high_45_up,white_high_135_up,3,left,0.3607111,0,3,44,1,FALSE,14,1,1,1,TRUE,FALSE,high_4,0.75,-1,3,,,,,,,,,,,165,7,3.2.2021,164.9585212
441,"['high', 3]",3,white,135,right,up,high,white_high_135_up,black_high_45_up,2,left,0.6122047,0,2,48,1,FALSE,16,1,1,1,TRUE,FALSE,high_3,0.75,-1,3,,,,,,,,,,,165,7,3.2.2021,164.9585212
442,"['high', 3]",3,white,135,right,down,high,white_high_135_down,black_high_45_down,5,right,0.2228044,1,5,49,0,TRUE,17,1,1,1,TRUE,FALSE,high_3,0.75,-1,3,,,,,,,,,,,165,7,3.2.2021,164.9585212
443,"['high', 2]",2,white,45,left,down,high,white_high_45_down,black_high_135_down,4,left,0.3752431,1,4,40,1,TRUE,16,1,1,1,TRUE,FALSE,high_2,0.75,-1,3,,,,,,,,,,,165,7,3.2.2021,164.9585212
444,"['high', 3]",3,black,135,left,up,high,black_high_135_up,white_high_45_up,4,left,0.3073321,1,4,50,1,TRUE,18,1,1,1,TRUE,FALSE,high_3,0.75,-1,3,,,,,,,,,,,165,7,3.2.2021,164.9585212
445,"['high', 2]",2,white,135,right,down,high,white_high_135_down,black_high_45_down,3,left,0.970194,0,3,41,1,FALSE,16,1,1,1,TRUE,FALSE,high_2,0.75,-1,3,,,,,,,,,,,165,7,3.2.2021,164.9585212
446,"['high', 6]",6,white,45,left,up,high,white_high_45_up,black_high_135_up,1,left,0.4119244,1,1,49,1,FALSE,12,1,1,1,TRUE,FALSE,high_6,0.75,-1,3,,,,,,,,,,,165,7,3.2.2021,164.9585212
447,"['low', 3]",3,black,135,left,up,low,black_low_135_up,white_low_45_up,1,left,0.5707536,1,1,40,1,FALSE,4,0,1,1,TRUE,FALSE,low_3,0.75,-1,3,,,,,,,,,,,165,7,3.2.2021,164.9585212
448,"['low', 4]",4,black,45,right,up,low,black_low_45_up,white_low_135_up,1,right,0.6952147,1,1,46,1,FALSE,0,0,1,1,TRUE,FALSE,low_4,0.75,-1,3,,,,,,,,,,,165,7,3.2.2021,164.9585212
449,"['low', 6]",6,black,135,left,up,low,black_low_135_up,white_low_45_up,1,left,0.1997641,1,1,42,1,FALSE,0,0,1,1,TRUE,FALSE,low_6,0.75,-1,3,,,,,,,,,,,165,7,3.2.2021,164.9585212
450,"['low', 1]",1,white,135,right,down,low,white_low_135_down,black_low_45_down,6,right,0.1344631,1,6,46,1,FALSE,14,1,1,1,TRUE,FALSE,low_1,0.75,-1,3,,,,,,,,,,,165,7,3.2.2021,164.9585212
451,"['high', 1]",1,black,135,left,up,high,black_high_135_up,white_high_45_up,3,right,0.8148347,0,3,45,1,FALSE,14,1,1,1,TRUE,FALSE,high_1,0.75,-1,3,,,,,,,,,,,165,7,3.2.2021,164.9585212
452,"['high', 1]",1,black,135,left,down,high,black_high_135_down,white_high_45_down,6,left,0.4242908,1,6,46,0,TRUE,15,1,1,1,TRUE,FALSE,high_1,0.75,-1,3,,,,,,,,,,,165,7,3.2.2021,164.9585212
453,"['low', 2]",2,white,45,left,down,low,white_low_45_down,black_low_135_down,1,right,0.6424513,0,1,40,1,FALSE,8,1,1,1,TRUE,FALSE,low_2,0.75,-1,3,,,,,,,,,,,165,7,3.2.2021,164.9585212
454,"['low', 3]",3,black,135,left,up,low,black_low_135_up,white_low_45_up,1,left,0.299298,1,1,41,1,FALSE,4,0,1,1,TRUE,FALSE,low_3,0.75,-1,3,,,,,,,,,,,165,7,3.2.2021,164.9585212
455,"['low', 6]",6,black,45,right,down,low,black_low_45_down,white_low_135_down,1,right,0.6507027,1,1,43,1,FALSE,0,0,1,1,TRUE,FALSE,low_6,0.75,-1,3,,,,,,,,,,,165,7,3.2.2021,164.9585212
456,"['high', 3]",3,white,45,left,down,high,white_high_45_down,black_high_135_down,3,left,0.2645666,1,3,51,1,FALSE,18,1,1,1,TRUE,FALSE,high_3,0.75,-1,3,,,,,,,,,,,165,7,3.2.2021,164.9585212
457,"['high', 6]",6,white,135,right,up,high,white_high_135_up,black_high_45_up,1,left,3.2067315,0,1,50,1,FALSE,12,1,1,1,TRUE,FALSE,high_6,0.75,-1,3,,,,,,,,,,,165,7,3.2.2021,164.9585212
458,"['high', 3]",3,black,135,left,down,high,black_high_135_down,white_high_45_down,2,left,0.7200613,1,2,52,1,FALSE,18,1,1,1,TRUE,FALSE,high_3,0.75,-1,3,,,,,,,,,,,165,7,3.2.2021,164.9585212
459,"['high', 4]",4,white,45,left,up,high,white_high_45_up,black_high_135_up,6,left,0.3361351,1,6,45,0,TRUE,15,1,1,1,TRUE,FALSE,high_4,0.75,-1,3,,,,,,,,,,,165,7,3.2.2021,164.9585212
460,"['high', 2]",2,black,45,right,up,high,black_high_45_up,white_high_135_up,6,right,0.4187612,1,6,42,0,TRUE,17,1,1,1,TRUE,FALSE,high_2,0.75,-1,3,,,,,,,,,,,165,7,3.2.2021,164.9585212
461,"['low', 3]",3,white,135,right,up,low,white_low_135_up,black_low_45_up,1,right,0.753072,1,1,42,1,FALSE,4,0,1,1,TRUE,FALSE,low_3,0.75,-1,3,,,,,,,,,,,165,7,3.2.2021,164.9585212
462,"['low', 6]",6,black,45,right,up,low,black_low_45_up,white_low_135_up,1,right,0.3894597,1,1,44,1,FALSE,0,0,1,1,TRUE,FALSE,low_6,0.75,-1,3,,,,,,,,,,,165,7,3.2.2021,164.9585212
463,"['low', 2]",2,white,135,right,up,low,white_low_135_up,black_low_45_up,4,right,0.2951196,1,4,41,0,TRUE,9,1,1,1,TRUE,FALSE,low_2,0.75,-1,3,,,,,,,,,,,165,7,3.2.2021,164.9585212
464,"['high', 4]",4,white,45,left,down,high,white_high_45_down,black_high_135_down,5,left,0.0251885,1,5,46,1,TRUE,16,1,1,1,TRUE,FALSE,high_4,0.75,-1,3,,,,,,,,,,,165,7,3.2.2021,164.9585212
465,"['low', 1]",1,black,135,left,down,low,black_low_135_down,white_low_45_down,5,left,0.4993222,1,5,47,1,FALSE,14,1,1,1,TRUE,FALSE,low_1,0.75,-1,3,,,,,,,,,,,165,7,3.2.2021,164.9585212
466,"['low', 1]",1,black,45,right,down,low,black_low_45_down,white_low_135_down,4,right,0.9033247,1,4,48,1,FALSE,14,1,1,1,TRUE,FALSE,low_1,0.75,-1,3,,,,,,,,,,,165,7,3.2.2021,164.9585212
467,"['high', 2]",2,white,45,left,down,high,white_high_45_down,black_high_135_down,5,left,0.3585665,1,5,43,1,TRUE,18,1,1,1,TRUE,FALSE,high_2,0.75,-1,3,,,,,,,,,,,165,7,3.2.2021,164.9585212
468,"['low', 3]",3,black,135,left,up,low,black_low_135_up,white_low_45_up,1,left,0.2608457,1,1,43,1,FALSE,4,0,1,1,TRUE,FALSE,low_3,0.75,-1,3,,,,,,,,,,,165,7,3.2.2021,164.9585212
469,"['high', 6]",6,white,45,left,down,high,white_high_45_down,black_high_135_down,4,left,0.3133426,1,4,51,0,TRUE,13,1,1,1,TRUE,FALSE,high_6,0.75,-1,3,,,,,,,,,,,165,7,3.2.2021,164.9585212
470,"['high', 3]",3,white,135,right,up,high,white_high_135_up,black_high_45_up,1,left,1.2172984,0,1,53,1,FALSE,18,1,1,1,TRUE,FALSE,high_3,0.75,-1,3,,,,,,,,,,,165,7,3.2.2021,164.9585212
471,"['high', 6]",6,black,45,right,down,high,black_high_45_down,white_high_135_down,3,right,0.2929249,1,3,52,1,TRUE,14,1,1,1,TRUE,FALSE,high_6,0.75,-1,3,,,,,,,,,,,165,7,3.2.2021,164.9585212
472,"['low', 1]",1,black,45,right,up,low,black_low_45_up,white_low_135_up,3,right,0.7226821,1,3,49,1,FALSE,14,1,1,1,TRUE,FALSE,low_1,0.75,-1,3,,,,,,,,,,,165,7,3.2.2021,164.9585212
473,"['low', 4]",4,black,135,left,down,low,black_low_135_down,white_low_45_down,1,left,0.2854559,1,1,47,1,FALSE,0,0,1,1,TRUE,FALSE,low_4,0.75,-1,3,,,,,,,,,,,165,7,3.2.2021,164.9585212
474,"['high', 2]",2,white,45,left,down,high,white_high_45_down,black_high_135_down,4,left,0.0229247,1,4,44,1,FALSE,18,1,1,1,TRUE,FALSE,high_2,0.75,-1,3,,,,,,,,,,,165,7,3.2.2021,164.9585212
475,"['low', 3]",3,black,135,left,up,low,black_low_135_up,white_low_45_up,1,left,0.3346783,1,1,44,1,FALSE,4,0,1,1,TRUE,FALSE,low_3,0.75,-1,3,,,,,,,,,,,165,7,3.2.2021,164.9585212
476,"['high', 6]",6,black,135,left,up,high,black_high_135_up,white_high_45_up,2,left,0.2758966,1,2,53,1,FALSE,14,1,1,1,TRUE,FALSE,high_6,0.75,-1,3,,,,,,,,,,,165,7,3.2.2021,164.9585212
477,"['low', 4]",4,black,45,right,up,low,black_low_45_up,white_low_135_up,1,right,0.439517,1,1,48,1,FALSE,0,0,1,1,TRUE,FALSE,low_4,0.75,-1,3,,,,,,,,,,,165,7,3.2.2021,164.9585212
478,"['low', 4]",4,black,135,left,down,low,black_low_135_down,white_low_45_down,1,left,0.5611437,1,1,49,1,FALSE,0,0,1,1,TRUE,FALSE,low_4,0.75,-1,3,,,,,,,,,,,165,7,3.2.2021,164.9585212
479,"['high', 1]",1,white,135,right,up,high,white_high_135_up,black_high_45_up,5,right,0.4607072,1,5,47,1,TRUE,16,1,1,1,TRUE,FALSE,high_1,0.75,-1,3,,,,,,,,,,,165,7,3.2.2021,164.9585212
480,"['low', 6]",6,white,135,right,up,low,white_low_135_up,black_low_45_up,1,right,0.5364491,1,1,45,1,FALSE,0,0,1,1,TRUE,FALSE,low_6,0.75,-1,3,,,,,,,,,,,165,7,3.2.2021,164.9585212
481,"['low', 1]",1,white,45,left,down,low,white_low_45_down,black_low_135_down,2,left,0.1231717,1,2,50,1,FALSE,14,1,1,1,TRUE,FALSE,low_1,0.75,-1,3,,,,,,,,,,,165,7,3.2.2021,164.9585212
482,"['high', 2]",2,black,135,left,down,high,black_high_135_down,white_high_45_down,3,left,1.4629717,1,3,45,1,FALSE,18,1,1,1,TRUE,FALSE,high_2,0.75,-1,3,,,,,,,,,,,165,7,3.2.2021,164.9585212
483,"['low', 6]",6,white,135,right,up,low,white_low_135_up,black_low_45_up,1,right,0.2131034,1,1,46,1,FALSE,0,0,1,1,TRUE,FALSE,low_6,0.75,-1,3,,,,,,,,,,,165,7,3.2.2021,164.9585212
484,"['high', 6]",6,white,45,left,down,high,white_high_45_down,black_high_135_down,1,left,0.7762479,1,1,54,1,FALSE,14,1,1,1,TRUE,FALSE,high_6,0.75,-1,3,,,,,,,,,,,165,7,3.2.2021,164.9585212
485,"['high', 6]",6,black,45,right,down,high,black_high_45_down,white_high_135_down,1,right,0.8421902,1,1,55,1,FALSE,14,1,1,1,TRUE,FALSE,high_6,0.75,-1,3,,,,,,,,,,,165,7,3.2.2021,164.9585212
486,"['high', 3]",3,white,45,left,up,high,white_high_45_up,black_high_135_up,4,right,0.8801492,0,4,54,0,TRUE,19,1,1,1,TRUE,FALSE,high_3,0.75,-1,3,,,,,,,,,,,165,7,3.2.2021,164.9585212
487,"['low', 4]",4,black,135,left,up,low,black_low_135_up,white_low_45_up,1,left,0.267066,1,1,50,1,FALSE,0,0,1,1,TRUE,FALSE,low_4,0.75,-1,3,,,,,,,,,,,165,7,3.2.2021,164.9585212
488,"['low', 3]",3,black,135,left,down,low,black_low_135_down,white_low_45_down,1,left,0.3111585,1,1,45,1,FALSE,4,0,1,1,TRUE,FALSE,low_3,0.75,-1,3,,,,,,,,,,,165,7,3.2.2021,164.9585212
489,"['low', 6]",6,black,45,right,down,low,black_low_45_down,white_low_135_down,1,right,0.3503052,1,1,47,1,FALSE,0,0,1,1,TRUE,FALSE,low_6,0.75,-1,3,,,,,,,,,,,165,7,3.2.2021,164.9585212
490,"['high', 2]",2,white,45,left,up,high,white_high_45_up,black_high_135_up,2,left,0.6638187,1,2,46,1,FALSE,18,1,1,1,TRUE,FALSE,high_2,0.75,-1,3,,,,,,,,,,,165,7,3.2.2021,164.9585212
491,"['high', 2]",2,black,45,right,down,high,black_high_45_down,white_high_135_down,1,right,1.4668295,1,1,47,1,FALSE,18,1,1,1,TRUE,FALSE,high_2,0.75,-1,3,,,,,,,,,,,165,7,3.2.2021,164.9585212
492,"['high', 1]",1,black,45,right,up,high,black_high_45_up,white_high_135_up,4,left,0.449185,0,4,48,1,FALSE,16,1,1,1,TRUE,FALSE,high_1,0.75,-1,3,,,,,,,,,,,165,7,3.2.2021,164.9585212
493,"['high', 1]",1,black,135,left,down,high,black_high_135_down,white_high_45_down,7,left,0.4410584,1,7,49,0,TRUE,17,1,1,1,TRUE,FALSE,high_1,0.75,-1,3,,,,,,,,,,,165,7,3.2.2021,164.9585212
494,"['high', 6]",6,white,45,left,up,high,white_high_45_up,black_high_135_up,1,left,0.9608633,1,1,56,1,FALSE,14,1,1,1,TRUE,FALSE,high_6,0.75,-1,3,,,,,,,,,,,165,7,3.2.2021,164.9585212
495,"['high', 3]",3,black,135,left,up,high,black_high_135_up,white_high_45_up,7,left,0.1780908,1,7,55,0,FALSE,19,1,1,1,TRUE,FALSE,high_3,0.75,-1,3,,,,,,,,,,,165,7,3.2.2021,164.9585212
496,"['low', 1]",1,white,45,left,up,low,white_low_45_up,black_low_135_up,1,left,0.7695862,1,1,51,1,FALSE,14,1,1,1,TRUE,FALSE,low_1,0.75,-1,3,,,,,,,,,,,165,7,3.2.2021,164.9585212
497,"['low', 6]",6,white,135,right,up,low,white_low_135_up,black_low_45_up,1,right,0.3137993,1,1,48,1,FALSE,0,0,1,1,TRUE,FALSE,low_6,0.75,-1,3,,,,,,,,,,,165,7,3.2.2021,164.9585212
498,"['low', 1]",1,black,45,right,down,low,black_low_45_down,white_low_135_down,1,right,0.5485307,1,1,52,1,FALSE,14,1,1,1,TRUE,FALSE,low_1,0.75,-1,3,,,,,,,,,,,165,7,3.2.2021,164.9585212
499,"['high', 3]",3,white,135,right,up,high,white_high_135_up,black_high_45_up,6,right,0.1964473,1,6,56,1,TRUE,20,1,1,1,TRUE,FALSE,high_3,0.75,-1,3,,,,,,,,,,,165,7,3.2.2021,164.9585212
500,"['low', 3]",3,black,45,right,down,low,black_low_45_down,white_low_135_down,1,right,0.378818,1,1,46,1,FALSE,4,0,1,1,TRUE,FALSE,low_3,0.75,-1,3,,,,,,,,,,,165,7,3.2.2021,164.9585212
501,"['low', 2]",2,white,45,left,down,low,white_low_45_down,black_low_135_down,3,left,0.1834308,1,3,42,1,TRUE,10,1,1,1,TRUE,FALSE,low_2,0.75,-1,3,,,,,,,,,,,165,7,3.2.2021,164.9585212
502,"['high', 1]",1,black,45,right,down,high,black_high_45_down,white_high_135_down,6,right,0.39229,1,6,50,1,TRUE,18,1,1,1,TRUE,FALSE,high_1,0.75,-1,3,,,,,,,,,,,165,7,3.2.2021,164.9585212
503,"['low', 4]",4,black,135,left,down,low,black_low_135_down,white_low_45_down,1,left,0.1441954,1,1,51,1,FALSE,0,0,1,1,TRUE,FALSE,low_4,0.75,-1,3,,,,,,,,,,,165,7,3.2.2021,164.9585212
504,"['high', 2]",2,black,135,left,up,high,black_high_135_up,white_high_45_up,1,left,2.6679323,1,1,48,1,FALSE,18,1,1,1,TRUE,FALSE,high_2,0.75,-1,3,,,,,,,,,,,165,7,3.2.2021,164.9585212
505,"['high', 6]",6,white,45,left,up,high,white_high_45_up,black_high_135_up,1,left,0.5920204,1,1,57,1,FALSE,14,1,1,1,TRUE,FALSE,high_6,0.75,-1,3,,,,,,,,,,,165,7,3.2.2021,164.9585212
506,"['low', 4]",4,black,135,left,down,low,black_low_135_down,white_low_45_down,1,right,0.5083838,0,1,52,1,FALSE,0,0,1,1,TRUE,FALSE,low_4,0.75,-1,3,,,,,,,,,,,165,7,3.2.2021,164.9585212
507,"['low', 1]",1,white,45,left,down,low,white_low_45_down,black_low_135_down,1,left,0.5415383,1,1,53,1,FALSE,14,1,1,1,TRUE,FALSE,low_1,0.75,-1,3,,,,,,,,,,,165,7,3.2.2021,164.9585212
508,"['low', 6]",6,black,45,right,up,low,black_low_45_up,white_low_135_up,1,right,0.3239536,1,1,49,1,FALSE,0,0,1,1,TRUE,FALSE,low_6,0.75,-1,3,,,,,,,,,,,165,7,3.2.2021,164.9585212
509,"['low', 3]",3,white,135,right,up,low,white_low_135_up,black_low_45_up,1,right,0.3294815,1,1,47,1,FALSE,4,0,1,1,TRUE,FALSE,low_3,0.75,-1,3,,,,,,,,,,,165,7,3.2.2021,164.9585212
510,"['low', 2]",2,white,45,left,down,low,white_low_45_down,black_low_135_down,2,right,0.8856084,0,2,43,1,FALSE,10,1,1,1,TRUE,FALSE,low_2,0.75,-1,3,,,,,,,,,,,165,7,3.2.2021,164.9585212
511,"['low', 2]",2,black,45,right,up,low,black_low_45_up,white_low_135_up,5,right,0.1431616,1,5,44,0,TRUE,11,1,1,1,TRUE,FALSE,low_2,0.75,-1,3,,,,,,,,,,,165,7,3.2.2021,164.9585212
512,"['low', 4]",4,white,135,right,up,low,white_low_135_up,black_low_45_up,4,right,0.0529294,1,4,53,0,TRUE,1,0,1,1,TRUE,FALSE,low_4,0.75,-1,3,,,,,,,,,,,165,7,3.2.2021,164.9585212
513,"['low', 4]",4,black,45,right,down,low,black_low_45_down,white_low_135_down,3,right,0.0476842,1,3,54,1,TRUE,2,0,1,1,TRUE,FALSE,low_4,0.75,-1,3,,,,,,,,,,,165,7,3.2.2021,164.9585212
514,"['low', 4]",4,black,135,left,up,low,black_low_135_up,white_low_45_up,2,left,0.1287151,1,2,55,1,FALSE,2,0,1,1,TRUE,FALSE,low_4,0.75,-1,3,,,,,,,,,,,165,7,3.2.2021,164.9585212
515,"['high', 4]",4,white,135,right,up,high,white_high_135_up,black_high_45_up,4,right,0.0165491,1,4,47,1,FALSE,16,1,1,1,TRUE,FALSE,high_4,0.75,-1,3,,,,,,,,,,,165,7,3.2.2021,164.9585212
516,"['high', 2]",2,black,45,right,up,high,black_high_45_up,white_high_135_up,1,left,0.4946194,0,1,49,1,FALSE,18,1,1,1,TRUE,FALSE,high_2,0.75,-1,3,,,,,,,,,,,165,7,3.2.2021,164.9585212
517,"['high', 1]",1,white,135,right,up,high,white_high_135_up,black_high_45_up,5,right,0.3841826,1,5,51,1,FALSE,18,1,1,1,TRUE,FALSE,high_1,0.75,-1,3,,,,,,,,,,,165,7,3.2.2021,164.9585212
518,"['low', 1]",1,black,45,right,down,low,black_low_45_down,white_low_135_down,1,right,0.8629609,1,1,54,1,FALSE,14,1,1,1,TRUE,FALSE,low_1,0.75,-1,3,,,,,,,,,,,165,7,3.2.2021,164.9585212
519,"['high', 6]",6,white,135,right,up,high,white_high_135_up,black_high_45_up,1,right,0.5491011,1,1,58,1,FALSE,14,1,1,1,TRUE,FALSE,high_6,0.75,-1,3,,,,,,,,,,,165,7,3.2.2021,164.9585212
520,"['high', 1]",1,black,45,right,up,high,black_high_45_up,white_high_135_up,4,right,0.3317063,1,4,52,1,FALSE,18,1,1,1,TRUE,FALSE,high_1,0.75,-1,3,,,,,,,,,,,165,7,3.2.2021,164.9585212
521,"['high', 4]",4,black,45,right,down,high,black_high_45_down,white_high_135_down,3,right,1.193455,1,3,48,1,FALSE,16,1,1,1,TRUE,FALSE,high_4,0.75,-1,3,,,,,,,,,,,165,7,3.2.2021,164.9585212
522,"['high', 4]",4,white,45,left,down,high,white_high_45_down,black_high_135_down,2,right,0.7068403,0,2,49,1,FALSE,16,1,1,1,TRUE,FALSE,high_4,0.75,-1,3,,,,,,,,,,,165,7,3.2.2021,164.9585212
523,"['low', 3]",3,black,135,left,down,low,black_low_135_down,white_low_45_down,1,left,0.0934111,1,1,48,1,FALSE,4,0,1,1,TRUE,FALSE,low_3,0.75,-1,3,,,,,,,,,,,165,7,3.2.2021,164.9585212
524,"['low', 4]",4,white,45,left,down,low,white_low_45_down,black_low_135_down,1,left,0.3879693,1,1,56,1,FALSE,2,0,1,1,TRUE,FALSE,low_4,0.75,-1,3,,,,,,,,,,,165,7,3.2.2021,164.9585212
525,"['high', 3]",3,white,45,left,up,high,white_high_45_up,black_high_135_up,5,left,0.2187316,1,5,57,1,FALSE,20,1,1,1,TRUE,FALSE,high_3,0.75,-1,3,,,,,,,,,,,165,7,3.2.2021,164.9585212
526,"['low', 3]",3,white,45,left,down,low,white_low_45_down,black_low_135_down,1,left,0.0967189,1,1,49,1,FALSE,4,0,1,1,TRUE,FALSE,low_3,0.75,-1,3,,,,,,,,,,,165,7,3.2.2021,164.9585212
527,"['low', 2]",2,white,135,right,up,low,white_low_135_up,black_low_45_up,4,right,0.1902346,1,4,45,1,TRUE,12,1,1,1,TRUE,FALSE,low_2,0.75,-1,3,,,,,,,,,,,165,7,3.2.2021,164.9585212
528,"['high', 6]",6,black,135,left,down,high,black_high_135_down,white_high_45_down,1,left,0.539578,1,1,59,1,FALSE,14,1,1,1,TRUE,FALSE,high_6,0.75,-1,3,,,,,,,,,,,165,7,3.2.2021,164.9585212
529,"['high', 2]",2,white,135,right,down,high,white_high_135_down,black_high_45_down,4,right,0.2305073,1,4,50,0,TRUE,19,1,1,1,TRUE,FALSE,high_2,0.75,-1,3,,,,,,,,,,,165,7,3.2.2021,164.9585212
530,"['high', 3]",3,black,45,right,up,high,black_high_45_up,white_high_135_up,4,right,0.2677424,1,4,58,1,FALSE,20,1,1,1,TRUE,FALSE,high_3,0.75,-1,3,,,,,,,,,,,165,7,3.2.2021,164.9585212
531,"['low', 6]",6,black,45,right,down,low,black_low_45_down,white_low_135_down,1,right,0.777393,1,1,50,1,FALSE,0,0,1,1,TRUE,FALSE,low_6,0.75,-1,3,,,,,,,,,,,165,7,3.2.2021,164.9585212
532,"['high', 1]",1,black,135,left,up,high,black_high_135_up,white_high_45_up,3,right,0.9673481,0,3,53,1,FALSE,18,1,1,1,TRUE,FALSE,high_1,0.75,-1,3,,,,,,,,,,,165,7,3.2.2021,164.9585212
533,"['high', 4]",4,white,135,right,up,high,white_high_135_up,black_high_45_up,5,right,0.0443325,1,5,50,0,TRUE,17,1,1,1,TRUE,FALSE,high_4,0.75,-1,3,,,,,,,,,,,165,7,3.2.2021,164.9585212
534,"['high', 6]",6,black,45,right,up,high,black_high_45_up,white_high_135_up,1,right,0.5423538,1,1,60,1,FALSE,14,1,1,1,TRUE,FALSE,high_6,0.75,-1,3,,,,,,,,,,,165,7,3.2.2021,164.9585212
535,"['low', 3]",3,white,45,left,up,low,white_low_45_up,black_low_135_up,1,right,0.4004524,0,1,50,1,FALSE,4,0,1,1,TRUE,FALSE,low_3,0.75,-1,3,,,,,,,,,,,165,7,3.2.2021,164.9585212
536,"['low', 1]",1,black,45,right,up,low,black_low_45_up,white_low_135_up,1,right,0.5413377,1,1,55,1,FALSE,14,1,1,1,TRUE,FALSE,low_1,0.75,-1,3,,,,,,,,,,,165,7,3.2.2021,164.9585212
