trial_number,trial_type,cycle_number,first_color,first_orientation,correct_response,visual_field,spatial_frequency,first_stim,second_stim,stimulus_frame_duration,answer,rt,accuracy,staircase_dv,staircase_trial_num,staircase_previous_correct,staircase_reversal,staircase_reversal_num,staircase_phase,staircase_step_size,staircase_powers_law,staircase_siam,staircase_over,staircase_name,staircase_conv_p,staircase_step_hit,staircase_step_miss,threshold_low1,threshold_low2,threshold_low3,threshold_low4,threshold_low6,threshold_high1,threshold_high2,threshold_high3,threshold_high4,threshold_high6,frame_rate,participant,psychopyVersion,frame_rate_detected
0,"['high', 2]",2,black,45,right,up,high,black_high_45_up,white_high_135_up,8,left,0.2872009,0,8,0,None,FALSE,0,0,1,1,TRUE,FALSE,high_2,0.75,-1,3,,,,,,,,,,,165,9,3.2.2021,164.9596096
1,"['high', 6]",6,black,135,left,up,high,black_high_135_up,white_high_45_up,8,left,0.3309248,1,8,0,None,FALSE,0,0,1,1,TRUE,FALSE,high_6,0.75,-1,3,,,,,,,,,,,165,9,3.2.2021,164.9596096
2,"['low', 6]",6,black,135,left,up,low,black_low_135_up,white_low_45_up,4,left,0.0303517,1,4,0,None,FALSE,0,0,1,1,TRUE,FALSE,low_6,0.75,-1,3,,,,,,,,,,,165,9,3.2.2021,164.9596096
3,"['high', 2]",2,black,135,left,up,high,black_high_135_up,white_high_45_up,11,right,0.0567872,0,11,1,0,FALSE,0,0,1,1,TRUE,FALSE,high_2,0.75,-1,3,,,,,,,,,,,165,9,3.2.2021,164.9596096
4,"['high', 1]",1,black,135,left,up,high,black_high_135_up,white_high_45_up,12,right,0.3094714,0,12,0,None,FALSE,0,0,1,1,TRUE,FALSE,high_1,0.75,-1,3,,,,,,,,,,,165,9,3.2.2021,164.9596096
5,"['high', 6]",6,black,45,right,up,high,black_high_45_up,white_high_135_up,7,left,0.9054846,0,7,1,1,FALSE,0,0,1,1,TRUE,FALSE,high_6,0.75,-1,3,,,,,,,,,,,165,9,3.2.2021,164.9596096
6,"['low', 2]",2,black,135,left,up,low,black_low_135_up,white_low_45_up,4,right,0.0292304,0,4,0,None,FALSE,0,0,1,1,TRUE,FALSE,low_2,0.75,-1,3,,,,,,,,,,,165,9,3.2.2021,164.9596096
7,"['high', 4]",4,white,135,right,down,high,white_high_135_down,black_high_45_down,8,left,0.4092738,0,8,0,None,FALSE,0,0,1,1,TRUE,FALSE,high_4,0.75,-1,3,,,,,,,,,,,165,9,3.2.2021,164.9596096
8,"['low', 4]",4,black,135,left,up,low,black_low_135_up,white_low_45_up,4,left,0.3431565,1,4,0,None,FALSE,0,0,1,1,TRUE,FALSE,low_4,0.75,-1,3,,,,,,,,,,,165,9,3.2.2021,164.9596096
9,"['low', 4]",4,black,45,right,up,low,black_low_45_up,white_low_135_up,3,left,0.1658411,0,3,1,1,FALSE,0,0,1,1,TRUE,FALSE,low_4,0.75,-1,3,,,,,,,,,,,165,9,3.2.2021,164.9596096
10,"['low', 6]",6,black,45,right,down,low,black_low_45_down,white_low_135_down,3,right,0.2546781,1,3,1,1,FALSE,0,0,1,1,TRUE,FALSE,low_6,0.75,-1,3,,,,,,,,,,,165,9,3.2.2021,164.9596096
11,"['high', 2]",2,white,45,left,down,high,white_high_45_down,black_high_135_down,14,left,0.315067,1,14,2,0,FALSE,0,0,1,1,TRUE,FALSE,high_2,0.75,-1,3,,,,,,,,,,,165,9,3.2.2021,164.9596096
12,"['low', 2]",2,black,45,right,down,low,black_low_45_down,white_low_135_down,7,left,0.3930942,0,7,1,0,FALSE,0,0,1,1,TRUE,FALSE,low_2,0.75,-1,3,,,,,,,,,,,165,9,3.2.2021,164.9596096
13,"['high', 6]",6,black,135,left,up,high,black_high_135_up,white_high_45_up,10,left,0.3453949,1,10,2,0,TRUE,1,0,1,1,TRUE,FALSE,high_6,0.75,-1,3,,,,,,,,,,,165,9,3.2.2021,164.9596096
14,"['low', 1]",1,white,45,left,up,low,white_low_45_up,black_low_135_up,8,left,0.0254596,1,8,0,None,FALSE,0,0,1,1,TRUE,FALSE,low_1,0.75,-1,3,,,,,,,,,,,165,9,3.2.2021,164.9596096
15,"['low', 6]",6,black,45,right,up,low,black_low_45_up,white_low_135_up,2,right,0.0427194,1,2,2,1,FALSE,0,0,1,1,TRUE,FALSE,low_6,0.75,-1,3,,,,,,,,,,,165,9,3.2.2021,164.9596096
16,"['high', 4]",4,white,45,left,up,high,white_high_45_up,black_high_135_up,11,left,1.0939855,1,11,1,0,FALSE,0,0,1,1,TRUE,FALSE,high_4,0.75,-1,3,,,,,,,,,,,165,9,3.2.2021,164.9596096
17,"['high', 2]",2,white,45,left,down,high,white_high_45_down,black_high_135_down,13,left,0.3994324,1,13,3,1,TRUE,1,0,1,1,TRUE,FALSE,high_2,0.75,-1,3,,,,,,,,,,,165,9,3.2.2021,164.9596096
18,"['high', 2]",2,white,45,left,down,high,white_high_45_down,black_high_135_down,12,left,0.3694005,1,12,4,1,FALSE,1,0,1,1,TRUE,FALSE,high_2,0.75,-1,3,,,,,,,,,,,165,9,3.2.2021,164.9596096
19,"['high', 2]",2,white,135,right,down,high,white_high_135_down,black_high_45_down,11,right,0.0777402,1,11,5,1,FALSE,1,0,1,1,TRUE,FALSE,high_2,0.75,-1,3,,,,,,,,,,,165,9,3.2.2021,164.9596096
20,"['low', 4]",4,black,45,right,up,low,black_low_45_up,white_low_135_up,6,left,0.1136511,0,6,2,0,TRUE,1,0,1,1,TRUE,FALSE,low_4,0.75,-1,3,,,,,,,,,,,165,9,3.2.2021,164.9596096
21,"['high', 6]",6,white,45,left,up,high,white_high_45_up,black_high_135_up,9,left,1.0189466,1,9,3,1,TRUE,2,0,1,1,TRUE,FALSE,high_6,0.75,-1,3,,,,,,,,,,,165,9,3.2.2021,164.9596096
22,"['high', 1]",1,white,135,right,down,high,white_high_135_down,black_high_45_down,15,right,0.4404892,1,15,1,0,FALSE,0,0,1,1,TRUE,FALSE,high_1,0.75,-1,3,,,,,,,,,,,165,9,3.2.2021,164.9596096
23,"['low', 4]",4,white,45,left,up,low,white_low_45_up,black_low_135_up,9,left,0.7729781,1,9,3,0,FALSE,1,0,1,1,TRUE,FALSE,low_4,0.75,-1,3,,,,,,,,,,,165,9,3.2.2021,164.9596096
24,"['high', 2]",2,black,135,left,down,high,black_high_135_down,white_high_45_down,10,left,0.4666775,1,10,6,1,FALSE,1,0,1,1,TRUE,FALSE,high_2,0.75,-1,3,,,,,,,,,,,165,9,3.2.2021,164.9596096
25,"['high', 4]",4,white,135,right,up,high,white_high_135_up,black_high_45_up,10,left,0.4498251,0,10,2,1,TRUE,1,0,1,1,TRUE,FALSE,high_4,0.75,-1,3,,,,,,,,,,,165,9,3.2.2021,164.9596096
26,"['high', 2]",2,white,135,right,down,high,white_high_135_down,black_high_45_down,9,right,0.2727833,1,9,7,1,FALSE,1,0,1,1,TRUE,FALSE,high_2,0.75,-1,3,,,,,,,,,,,165,9,3.2.2021,164.9596096
27,"['low', 1]",1,black,45,right,down,low,black_low_45_down,white_low_135_down,7,left,0.2453377,0,7,1,1,FALSE,0,0,1,1,TRUE,FALSE,low_1,0.75,-1,3,,,,,,,,,,,165,9,3.2.2021,164.9596096
28,"['low', 1]",1,white,135,right,up,low,white_low_135_up,black_low_45_up,10,right,0.3438935,1,10,2,0,TRUE,1,0,1,1,TRUE,FALSE,low_1,0.75,-1,3,,,,,,,,,,,165,9,3.2.2021,164.9596096
29,"['low', 2]",2,black,45,right,up,low,black_low_45_up,white_low_135_up,10,left,0.765857,0,10,2,0,FALSE,0,0,1,1,TRUE,FALSE,low_2,0.75,-1,3,,,,,,,,,,,165,9,3.2.2021,164.9596096
30,"['low', 6]",6,white,135,right,up,low,white_low_135_up,black_low_45_up,1,right,0.358656,1,1,3,1,FALSE,0,0,1,1,TRUE,FALSE,low_6,0.75,-1,3,,,,,,,,,,,165,9,3.2.2021,164.9596096
31,"['low', 6]",6,black,135,left,down,low,black_low_135_down,white_low_45_down,1,left,0.1523258,1,1,4,1,FALSE,0,0,1,1,TRUE,FALSE,low_6,0.75,-1,3,,,,,,,,,,,165,9,3.2.2021,164.9596096
32,"['high', 3]",3,black,45,right,down,high,black_high_45_down,white_high_135_down,8,left,0.0504015,0,8,0,None,FALSE,0,0,1,1,TRUE,FALSE,high_3,0.75,-1,3,,,,,,,,,,,165,9,3.2.2021,164.9596096
33,"['low', 3]",3,black,135,left,down,low,black_low_135_down,white_low_45_down,4,left,0.464318,1,4,0,None,FALSE,0,0,1,1,TRUE,FALSE,low_3,0.75,-1,3,,,,,,,,,,,165,9,3.2.2021,164.9596096
34,"['high', 6]",6,white,45,left,down,high,white_high_45_down,black_high_135_down,8,left,0.1045645,1,8,4,1,FALSE,2,0,1,1,TRUE,FALSE,high_6,0.75,-1,3,,,,,,,,,,,165,9,3.2.2021,164.9596096
35,"['high', 1]",1,black,45,right,up,high,black_high_45_up,white_high_135_up,14,left,0.3589402,0,14,2,1,TRUE,1,0,1,1,TRUE,FALSE,high_1,0.75,-1,3,,,,,,,,,,,165,9,3.2.2021,164.9596096
36,"['low', 3]",3,black,45,right,up,low,black_low_45_up,white_low_135_up,3,left,0.4508803,0,3,1,1,FALSE,0,0,1,1,TRUE,FALSE,low_3,0.75,-1,3,,,,,,,,,,,165,9,3.2.2021,164.9596096
37,"['low', 6]",6,black,135,left,down,low,black_low_135_down,white_low_45_down,1,left,0.178176,1,1,5,1,FALSE,0,0,1,1,TRUE,FALSE,low_6,0.75,-1,3,,,,,,,,,,,165,9,3.2.2021,164.9596096
38,"['low', 6]",6,white,135,right,up,low,white_low_135_up,black_low_45_up,1,right,0.4313882,1,1,6,1,FALSE,0,0,1,1,TRUE,FALSE,low_6,0.75,-1,3,,,,,,,,,,,165,9,3.2.2021,164.9596096
39,"['high', 2]",2,white,45,left,down,high,white_high_45_down,black_high_135_down,8,left,0.7989214,1,8,8,1,FALSE,1,0,1,1,TRUE,FALSE,high_2,0.75,-1,3,,,,,,,,,,,165,9,3.2.2021,164.9596096
40,"['high', 2]",2,white,135,right,down,high,white_high_135_down,black_high_45_down,7,left,0.1305918,0,7,9,1,FALSE,1,0,1,1,TRUE,FALSE,high_2,0.75,-1,3,,,,,,,,,,,165,9,3.2.2021,164.9596096
41,"['low', 4]",4,white,45,left,down,low,white_low_45_down,black_low_135_down,8,left,0.6106158,1,8,4,1,TRUE,2,0,1,1,TRUE,FALSE,low_4,0.75,-1,3,,,,,,,,,,,165,9,3.2.2021,164.9596096
42,"['low', 1]",1,black,135,left,down,low,black_low_135_down,white_low_45_down,9,left,0.078767,1,9,3,1,TRUE,2,0,1,1,TRUE,FALSE,low_1,0.75,-1,3,,,,,,,,,,,165,9,3.2.2021,164.9596096
43,"['high', 1]",1,black,135,left,up,high,black_high_135_up,white_high_45_up,17,right,0.9284788,0,17,3,0,TRUE,2,0,1,1,TRUE,FALSE,high_1,0.75,-1,3,,,,,,,,,,,165,9,3.2.2021,164.9596096
44,"['low', 1]",1,black,135,left,up,low,black_low_135_up,white_low_45_up,8,right,0.1065969,0,8,4,1,FALSE,2,0,1,1,TRUE,FALSE,low_1,0.75,-1,3,,,,,,,,,,,165,9,3.2.2021,164.9596096
45,"['low', 2]",2,white,135,right,down,low,white_low_135_down,black_low_45_down,13,right,0.3142647,1,13,3,0,FALSE,0,0,1,1,TRUE,FALSE,low_2,0.75,-1,3,,,,,,,,,,,165,9,3.2.2021,164.9596096
46,"['low', 6]",6,white,45,left,down,low,white_low_45_down,black_low_135_down,1,left,0.2137406,1,1,7,1,FALSE,0,0,1,1,TRUE,FALSE,low_6,0.75,-1,3,,,,,,,,,,,165,9,3.2.2021,164.9596096
47,"['low', 6]",6,black,135,left,up,low,black_low_135_up,white_low_45_up,1,left,0.0405395,1,1,8,1,FALSE,0,0,1,1,TRUE,FALSE,low_6,0.75,-1,3,,,,,,,,,,,165,9,3.2.2021,164.9596096
48,"['low', 4]",4,white,45,left,up,low,white_low_45_up,black_low_135_up,7,left,0.7916317,1,7,5,1,FALSE,2,0,1,1,TRUE,FALSE,low_4,0.75,-1,3,,,,,,,,,,,165,9,3.2.2021,164.9596096
49,"['low', 3]",3,black,45,right,down,low,black_low_45_down,white_low_135_down,6,left,0.0212738,0,6,2,0,TRUE,1,0,1,1,TRUE,FALSE,low_3,0.75,-1,3,,,,,,,,,,,165,9,3.2.2021,164.9596096
50,"['low', 2]",2,white,45,left,up,low,white_low_45_up,black_low_135_up,12,left,0.7163387,1,12,4,1,TRUE,1,0,1,1,TRUE,FALSE,low_2,0.75,-1,3,,,,,,,,,,,165,9,3.2.2021,164.9596096
51,"['high', 1]",1,black,135,left,up,high,black_high_135_up,white_high_45_up,20,left,0.1010622,1,20,4,0,FALSE,2,0,1,1,TRUE,FALSE,high_1,0.75,-1,3,,,,,,,,,,,165,9,3.2.2021,164.9596096
52,"['high', 1]",1,white,135,right,down,high,white_high_135_down,black_high_45_down,19,right,0.0995501,1,19,5,1,TRUE,3,0,1,1,TRUE,FALSE,high_1,0.75,-1,3,,,,,,,,,,,165,9,3.2.2021,164.9596096
53,"['low', 1]",1,white,45,left,up,low,white_low_45_up,black_low_135_up,11,left,0.7247404,1,11,5,0,TRUE,3,0,1,1,TRUE,FALSE,low_1,0.75,-1,3,,,,,,,,,,,165,9,3.2.2021,164.9596096
54,"['low', 1]",1,white,45,left,up,low,white_low_45_up,black_low_135_up,10,left,0.6126088,1,10,6,1,TRUE,4,0,1,1,TRUE,FALSE,low_1,0.75,-1,3,,,,,,,,,,,165,9,3.2.2021,164.9596096
55,"['low', 1]",1,white,45,left,down,low,white_low_45_down,black_low_135_down,9,left,0.0657971,1,9,7,1,FALSE,4,0,1,1,TRUE,FALSE,low_1,0.75,-1,3,,,,,,,,,,,165,9,3.2.2021,164.9596096
56,"['high', 2]",2,black,135,left,down,high,black_high_135_down,white_high_45_down,10,left,0.6503118,1,10,10,0,TRUE,2,0,1,1,TRUE,FALSE,high_2,0.75,-1,3,,,,,,,,,,,165,9,3.2.2021,164.9596096
57,"['high', 6]",6,black,45,right,down,high,black_high_45_down,white_high_135_down,7,right,0.3664687,1,7,5,1,FALSE,2,0,1,1,TRUE,FALSE,high_6,0.75,-1,3,,,,,,,,,,,165,9,3.2.2021,164.9596096
58,"['low', 1]",1,white,45,left,up,low,white_low_45_up,black_low_135_up,8,left,0.099428,1,8,8,1,FALSE,4,0,1,1,TRUE,FALSE,low_1,0.75,-1,3,,,,,,,,,,,165,9,3.2.2021,164.9596096
59,"['high', 6]",6,white,45,left,down,high,white_high_45_down,black_high_135_down,6,left,0.0152768,1,6,6,1,FALSE,2,0,1,1,TRUE,FALSE,high_6,0.75,-1,3,,,,,,,,,,,165,9,3.2.2021,164.9596096
60,"['high', 3]",3,white,135,right,down,high,white_high_135_down,black_high_45_down,11,right,0.3557282,1,11,1,0,FALSE,0,0,1,1,TRUE,FALSE,high_3,0.75,-1,3,,,,,,,,,,,165,9,3.2.2021,164.9596096
61,"['low', 6]",6,black,135,left,down,low,black_low_135_down,white_low_45_down,1,right,0.6537369,0,1,9,1,FALSE,0,0,1,1,TRUE,FALSE,low_6,0.75,-1,3,,,,,,,,,,,165,9,3.2.2021,164.9596096
62,"['low', 2]",2,black,135,left,up,low,black_low_135_up,white_low_45_up,11,right,0.3247535,0,11,5,1,FALSE,1,0,1,1,TRUE,FALSE,low_2,0.75,-1,3,,,,,,,,,,,165,9,3.2.2021,164.9596096
63,"['high', 4]",4,white,135,right,down,high,white_high_135_down,black_high_45_down,13,right,0.0640972,1,13,3,0,TRUE,2,0,1,1,TRUE,FALSE,high_4,0.75,-1,3,,,,,,,,,,,165,9,3.2.2021,164.9596096
64,"['low', 6]",6,white,45,left,down,low,white_low_45_down,black_low_135_down,4,right,0.2341756,0,4,10,0,TRUE,1,0,1,1,TRUE,FALSE,low_6,0.75,-1,3,,,,,,,,,,,165,9,3.2.2021,164.9596096
65,"['high', 1]",1,white,135,right,down,high,white_high_135_down,black_high_45_down,18,right,0.1342847,1,18,6,1,FALSE,3,0,1,1,TRUE,FALSE,high_1,0.75,-1,3,,,,,,,,,,,165,9,3.2.2021,164.9596096
66,"['high', 2]",2,black,135,left,down,high,black_high_135_down,white_high_45_down,9,left,0.5127341,1,9,11,1,TRUE,3,0,1,1,TRUE,FALSE,high_2,0.75,-1,3,,,,,,,,,,,165,9,3.2.2021,164.9596096
67,"['low', 3]",3,white,135,right,up,low,white_low_135_up,black_low_45_up,9,right,0.022355,1,9,3,0,FALSE,1,0,1,1,TRUE,FALSE,low_3,0.75,-1,3,,,,,,,,,,,165,9,3.2.2021,164.9596096
68,"['high', 6]",6,black,45,right,up,high,black_high_45_up,white_high_135_up,5,left,0.4025072,0,5,7,1,FALSE,2,0,1,1,TRUE,FALSE,high_6,0.75,-1,3,,,,,,,,,,,165,9,3.2.2021,164.9596096
69,"['low', 3]",3,white,135,right,down,low,white_low_135_down,black_low_45_down,8,right,0.4473809,1,8,4,1,TRUE,2,0,1,1,TRUE,FALSE,low_3,0.75,-1,3,,,,,,,,,,,165,9,3.2.2021,164.9596096
70,"['low', 2]",2,black,45,right,up,low,black_low_45_up,white_low_135_up,14,left,0.4033205,0,14,6,0,TRUE,2,0,1,1,TRUE,FALSE,low_2,0.75,-1,3,,,,,,,,,,,165,9,3.2.2021,164.9596096
71,"['high', 1]",1,white,45,left,down,high,white_high_45_down,black_high_135_down,17,left,0.1064933,1,17,7,1,FALSE,3,0,1,1,TRUE,FALSE,high_1,0.75,-1,3,,,,,,,,,,,165,9,3.2.2021,164.9596096
72,"['high', 1]",1,white,135,right,up,high,white_high_135_up,black_high_45_up,16,right,0.3645204,1,16,8,1,FALSE,3,0,1,1,TRUE,FALSE,high_1,0.75,-1,3,,,,,,,,,,,165,9,3.2.2021,164.9596096
73,"['high', 3]",3,black,135,left,down,high,black_high_135_down,white_high_45_down,10,left,0.0952234,1,10,2,1,TRUE,1,0,1,1,TRUE,FALSE,high_3,0.75,-1,3,,,,,,,,,,,165,9,3.2.2021,164.9596096
74,"['high', 1]",1,white,135,right,up,high,white_high_135_up,black_high_45_up,15,right,0.2054345,1,15,9,1,FALSE,3,0,1,1,TRUE,FALSE,high_1,0.75,-1,3,,,,,,,,,,,165,9,3.2.2021,164.9596096
75,"['low', 2]",2,black,45,right,down,low,black_low_45_down,white_low_135_down,17,right,0.6519966,1,17,7,0,FALSE,2,0,1,1,TRUE,FALSE,low_2,0.75,-1,3,,,,,,,,,,,165,9,3.2.2021,164.9596096
76,"['high', 2]",2,white,45,left,up,high,white_high_45_up,black_high_135_up,8,right,0.1789928,0,8,12,1,FALSE,3,0,1,1,TRUE,FALSE,high_2,0.75,-1,3,,,,,,,,,,,165,9,3.2.2021,164.9596096
77,"['high', 1]",1,white,45,left,down,high,white_high_45_down,black_high_135_down,14,right,0.7888455,0,14,10,1,FALSE,3,0,1,1,TRUE,FALSE,high_1,0.75,-1,3,,,,,,,,,,,165,9,3.2.2021,164.9596096
78,"['low', 4]",4,black,45,right,up,low,black_low_45_up,white_low_135_up,6,right,0.0755606,1,6,6,1,FALSE,2,0,1,1,TRUE,FALSE,low_4,0.75,-1,3,,,,,,,,,,,165,9,3.2.2021,164.9596096
79,"['high', 4]",4,white,45,left,up,high,white_high_45_up,black_high_135_up,12,left,0.4047718,1,12,4,1,TRUE,3,0,1,1,TRUE,FALSE,high_4,0.75,-1,3,,,,,,,,,,,165,9,3.2.2021,164.9596096
80,"['low', 2]",2,black,45,right,up,low,black_low_45_up,white_low_135_up,16,right,0.0511254,1,16,8,1,TRUE,3,0,1,1,TRUE,FALSE,low_2,0.75,-1,3,,,,,,,,,,,165,9,3.2.2021,164.9596096
81,"['high', 3]",3,white,45,left,up,high,white_high_45_up,black_high_135_up,9,right,0.3070347,0,9,3,1,FALSE,1,0,1,1,TRUE,FALSE,high_3,0.75,-1,3,,,,,,,,,,,165,9,3.2.2021,164.9596096
82,"['low', 2]",2,white,135,right,up,low,white_low_135_up,black_low_45_up,15,right,0.3378501,1,15,9,1,FALSE,3,0,1,1,TRUE,FALSE,low_2,0.75,-1,3,,,,,,,,,,,165,9,3.2.2021,164.9596096
83,"['high', 4]",4,white,45,left,down,high,white_high_45_down,black_high_135_down,11,right,0.4064812,0,11,5,1,FALSE,3,0,1,1,TRUE,FALSE,high_4,0.75,-1,3,,,,,,,,,,,165,9,3.2.2021,164.9596096
84,"['high', 4]",4,white,45,left,up,high,white_high_45_up,black_high_135_up,14,left,0.0303998,1,14,6,0,TRUE,4,0,1,1,TRUE,FALSE,high_4,0.75,-1,3,,,,,,,,,,,165,9,3.2.2021,164.9596096
85,"['high', 4]",4,white,45,left,down,high,white_high_45_down,black_high_135_down,13,right,0.5304851,0,13,7,1,TRUE,5,1,1,1,TRUE,FALSE,high_4,0.75,-1,3,,,,,,,,,,,165,9,3.2.2021,164.9596096
86,"['low', 1]",1,white,135,right,up,low,white_low_135_up,black_low_45_up,7,right,0.2449504,1,7,9,1,FALSE,4,0,1,1,TRUE,FALSE,low_1,0.75,-1,3,,,,,,,,,,,165,9,3.2.2021,164.9596096
87,"['low', 4]",4,black,135,left,down,low,black_low_135_down,white_low_45_down,5,right,0.1997688,0,5,7,1,FALSE,2,0,1,1,TRUE,FALSE,low_4,0.75,-1,3,,,,,,,,,,,165,9,3.2.2021,164.9596096
88,"['low', 6]",6,black,135,left,up,low,black_low_135_up,white_low_45_up,7,left,0.6152425,1,7,11,0,FALSE,1,0,1,1,TRUE,FALSE,low_6,0.75,-1,3,,,,,,,,,,,165,9,3.2.2021,164.9596096
89,"['low', 1]",1,black,45,right,up,low,black_low_45_up,white_low_135_up,6,left,0.2905081,0,6,10,1,FALSE,4,0,1,1,TRUE,FALSE,low_1,0.75,-1,3,,,,,,,,,,,165,9,3.2.2021,164.9596096
90,"['low', 2]",2,black,45,right,up,low,black_low_45_up,white_low_135_up,14,right,0.1311774,1,14,10,1,FALSE,3,0,1,1,TRUE,FALSE,low_2,0.75,-1,3,,,,,,,,,,,165,9,3.2.2021,164.9596096
91,"['low', 6]",6,black,135,left,down,low,black_low_135_down,white_low_45_down,6,right,0.1646155,0,6,12,1,TRUE,2,0,1,1,TRUE,FALSE,low_6,0.75,-1,3,,,,,,,,,,,165,9,3.2.2021,164.9596096
92,"['low', 1]",1,white,45,left,up,low,white_low_45_up,black_low_135_up,9,right,0.3541255,0,9,11,0,TRUE,5,1,1,1,TRUE,FALSE,low_1,0.75,-1,3,,,,,,,,,,,165,9,3.2.2021,164.9596096
93,"['low', 4]",4,black,45,right,down,low,black_low_45_down,white_low_135_down,8,right,0.2049557,1,8,8,0,TRUE,3,0,1,1,TRUE,FALSE,low_4,0.75,-1,3,,,,,,,,,,,165,9,3.2.2021,164.9596096
94,"['high', 2]",2,white,45,left,up,high,white_high_45_up,black_high_135_up,11,right,0.1197082,0,11,13,0,TRUE,4,0,1,1,TRUE,FALSE,high_2,0.75,-1,3,,,,,,,,,,,165,9,3.2.2021,164.9596096
95,"['high', 3]",3,white,135,right,down,high,white_high_135_down,black_high_45_down,12,right,0.515331,1,12,4,0,TRUE,2,0,1,1,TRUE,FALSE,high_3,0.75,-1,3,,,,,,,,,,,165,9,3.2.2021,164.9596096
96,"['low', 4]",4,white,135,right,up,low,white_low_135_up,black_low_45_up,7,right,0.2644147,1,7,9,1,TRUE,4,0,1,1,TRUE,FALSE,low_4,0.75,-1,3,,,,,,,,,,,165,9,3.2.2021,164.9596096
97,"['low', 1]",1,white,45,left,down,low,white_low_45_down,black_low_135_down,12,left,0.0813425,1,12,12,0,FALSE,5,1,1,1,TRUE,FALSE,low_1,0.75,-1,3,,,,,,,,,,,165,9,3.2.2021,164.9596096
98,"['high', 2]",2,black,135,left,down,high,black_high_135_down,white_high_45_down,14,right,0.2266033,0,14,14,0,FALSE,4,0,1,1,TRUE,FALSE,high_2,0.75,-1,3,,,,,,,,,,,165,9,3.2.2021,164.9596096
99,"['high', 4]",4,white,135,right,up,high,white_high_135_up,black_high_45_up,16,right,0.588891,1,16,8,0,TRUE,6,1,1,1,TRUE,FALSE,high_4,0.75,-1,3,,,,,,,,,,,165,9,3.2.2021,164.9596096
100,"['low', 4]",4,white,135,right,up,low,white_low_135_up,black_low_45_up,6,right,0.1525709,1,6,10,1,FALSE,4,0,1,1,TRUE,FALSE,low_4,0.75,-1,3,,,,,,,,,,,165,9,3.2.2021,164.9596096
101,"['high', 6]",6,black,45,right,down,high,black_high_45_down,white_high_135_down,8,right,0.7358165,1,8,8,0,TRUE,3,0,1,1,TRUE,FALSE,high_6,0.75,-1,3,,,,,,,,,,,165,9,3.2.2021,164.9596096
102,"['high', 1]",1,white,135,right,up,high,white_high_135_up,black_high_45_up,17,right,0.4063595,1,17,11,0,TRUE,4,0,1,1,TRUE,FALSE,high_1,0.75,-1,3,,,,,,,,,,,165,9,3.2.2021,164.9596096
103,"['low', 2]",2,black,45,right,down,low,black_low_45_down,white_low_135_down,13,right,0.3647051,1,13,11,1,FALSE,3,0,1,1,TRUE,FALSE,low_2,0.75,-1,3,,,,,,,,,,,165,9,3.2.2021,164.9596096
104,"['high', 3]",3,black,45,right,down,high,black_high_45_down,white_high_135_down,11,right,0.191366,1,11,5,1,TRUE,3,0,1,1,TRUE,FALSE,high_3,0.75,-1,3,,,,,,,,,,,165,9,3.2.2021,164.9596096
105,"['low', 6]",6,white,135,right,up,low,white_low_135_up,black_low_45_up,9,right,0.3012529,1,9,13,0,TRUE,3,0,1,1,TRUE,FALSE,low_6,0.75,-1,3,,,,,,,,,,,165,9,3.2.2021,164.9596096
106,"['high', 3]",3,white,135,right,up,high,white_high_135_up,black_high_45_up,10,right,0.3664697,1,10,6,1,FALSE,3,0,1,1,TRUE,FALSE,high_3,0.75,-1,3,,,,,,,,,,,165,9,3.2.2021,164.9596096
107,"['high', 1]",1,black,135,left,up,high,black_high_135_up,white_high_45_up,16,left,0.2896191,1,16,12,1,TRUE,5,1,1,1,TRUE,FALSE,high_1,0.75,-1,3,,,,,,,,,,,165,9,3.2.2021,164.9596096
108,"['low', 6]",6,black,45,right,up,low,black_low_45_up,white_low_135_up,8,right,0.1723061,1,8,14,1,TRUE,4,0,1,1,TRUE,FALSE,low_6,0.75,-1,3,,,,,,,,,,,165,9,3.2.2021,164.9596096
109,"['low', 4]",4,white,45,left,up,low,white_low_45_up,black_low_135_up,5,left,0.2416663,1,5,11,1,FALSE,4,0,1,1,TRUE,FALSE,low_4,0.75,-1,3,,,,,,,,,,,165,9,3.2.2021,164.9596096
110,"['low', 1]",1,black,45,right,down,low,black_low_45_down,white_low_135_down,11,right,0.2392474,1,11,13,1,TRUE,6,1,1,1,TRUE,FALSE,low_1,0.75,-1,3,,,,,,,,,,,165,9,3.2.2021,164.9596096
111,"['low', 3]",3,white,45,left,down,low,white_low_45_down,black_low_135_down,7,left,0.2094931,1,7,5,1,FALSE,2,0,1,1,TRUE,FALSE,low_3,0.75,-1,3,,,,,,,,,,,165,9,3.2.2021,164.9596096
112,"['low', 2]",2,white,45,left,up,low,white_low_45_up,black_low_135_up,12,left,0.3021855,1,12,12,1,FALSE,3,0,1,1,TRUE,FALSE,low_2,0.75,-1,3,,,,,,,,,,,165,9,3.2.2021,164.9596096
113,"['low', 1]",1,white,135,right,up,low,white_low_135_up,black_low_45_up,10,right,0.0997461,1,10,14,1,FALSE,6,1,1,1,TRUE,FALSE,low_1,0.75,-1,3,,,,,,,,,,,165,9,3.2.2021,164.9596096
114,"['low', 1]",1,white,45,left,down,low,white_low_45_down,black_low_135_down,9,left,0.0554199,1,9,15,1,FALSE,6,1,1,1,TRUE,FALSE,low_1,0.75,-1,3,,,,,,,,,,,165,9,3.2.2021,164.9596096
115,"['low', 6]",6,white,135,right,down,low,white_low_135_down,black_low_45_down,7,right,0.6273556,1,7,15,1,FALSE,4,0,1,1,TRUE,FALSE,low_6,0.75,-1,3,,,,,,,,,,,165,9,3.2.2021,164.9596096
116,"['high', 1]",1,black,45,right,down,high,black_high_45_down,white_high_135_down,15,right,1.084445,1,15,13,1,FALSE,5,1,1,1,TRUE,FALSE,high_1,0.75,-1,3,,,,,,,,,,,165,9,3.2.2021,164.9596096
117,"['high', 2]",2,white,135,right,down,high,white_high_135_down,black_high_45_down,17,right,0.2473349,1,17,15,0,FALSE,4,0,1,1,TRUE,FALSE,high_2,0.75,-1,3,,,,,,,,,,,165,9,3.2.2021,164.9596096
118,"['low', 3]",3,white,45,left,down,low,white_low_45_down,black_low_135_down,6,left,0.2639921,1,6,6,1,FALSE,2,0,1,1,TRUE,FALSE,low_3,0.75,-1,3,,,,,,,,,,,165,9,3.2.2021,164.9596096
119,"['low', 6]",6,black,45,right,down,low,black_low_45_down,white_low_135_down,6,right,0.4884639,1,6,16,1,FALSE,4,0,1,1,TRUE,FALSE,low_6,0.75,-1,3,,,,,,,,,,,165,9,3.2.2021,164.9596096
120,"['low', 4]",4,black,135,left,up,low,black_low_135_up,white_low_45_up,4,left,0.1816018,1,4,12,1,FALSE,4,0,1,1,TRUE,FALSE,low_4,0.75,-1,3,,,,,,,,,,,165,9,3.2.2021,164.9596096
121,"['high', 3]",3,black,45,right,down,high,black_high_45_down,white_high_135_down,9,right,0.1979097,1,9,7,1,FALSE,3,0,1,1,TRUE,FALSE,high_3,0.75,-1,3,,,,,,,,,,,165,9,3.2.2021,164.9596096
122,"['high', 6]",6,black,45,right,down,high,black_high_45_down,white_high_135_down,7,right,0.1193179,1,7,9,1,TRUE,4,0,1,1,TRUE,FALSE,high_6,0.75,-1,3,,,,,,,,,,,165,9,3.2.2021,164.9596096
123,"['high', 3]",3,white,135,right,down,high,white_high_135_down,black_high_45_down,8,right,0.3728073,1,8,8,1,FALSE,3,0,1,1,TRUE,FALSE,high_3,0.75,-1,3,,,,,,,,,,,165,9,3.2.2021,164.9596096
124,"['low', 6]",6,black,135,left,up,low,black_low_135_up,white_low_45_up,5,left,0.1663771,1,5,17,1,FALSE,4,0,1,1,TRUE,FALSE,low_6,0.75,-1,3,,,,,,,,,,,165,9,3.2.2021,164.9596096
125,"['low', 4]",4,black,135,left,down,low,black_low_135_down,white_low_45_down,3,left,0.1896264,1,3,13,1,FALSE,4,0,1,1,TRUE,FALSE,low_4,0.75,-1,3,,,,,,,,,,,165,9,3.2.2021,164.9596096
126,"['high', 4]",4,black,135,left,up,high,black_high_135_up,white_high_45_up,15,left,0.0729622,1,15,9,1,TRUE,7,1,1,1,TRUE,FALSE,high_4,0.75,-1,3,,,,,,,,,,,165,9,3.2.2021,164.9596096
127,"['low', 2]",2,white,45,left,down,low,white_low_45_down,black_low_135_down,11,left,0.1590562,1,11,13,1,FALSE,3,0,1,1,TRUE,FALSE,low_2,0.75,-1,3,,,,,,,,,,,165,9,3.2.2021,164.9596096
128,"['low', 3]",3,white,135,right,up,low,white_low_135_up,black_low_45_up,5,right,0.2062017,1,5,7,1,FALSE,2,0,1,1,TRUE,FALSE,low_3,0.75,-1,3,,,,,,,,,,,165,9,3.2.2021,164.9596096
129,"['low', 4]",4,black,45,right,down,low,black_low_45_down,white_low_135_down,2,right,0.1622112,1,2,14,1,FALSE,4,0,1,1,TRUE,FALSE,low_4,0.75,-1,3,,,,,,,,,,,165,9,3.2.2021,164.9596096
130,"['high', 4]",4,black,135,left,down,high,black_high_135_down,white_high_45_down,14,left,0.1537177,1,14,10,1,FALSE,7,1,1,1,TRUE,FALSE,high_4,0.75,-1,3,,,,,,,,,,,165,9,3.2.2021,164.9596096
131,"['high', 4]",4,black,135,left,down,high,black_high_135_down,white_high_45_down,13,left,0.5335708,1,13,11,1,FALSE,7,1,1,1,TRUE,FALSE,high_4,0.75,-1,3,,,,,,,,,,,165,9,3.2.2021,164.9596096
132,"['low', 3]",3,black,45,right,up,low,black_low_45_up,white_low_135_up,4,right,0.2620988,1,4,8,1,FALSE,2,0,1,1,TRUE,FALSE,low_3,0.75,-1,3,,,,,,,,,,,165,9,3.2.2021,164.9596096
133,"['high', 4]",4,white,135,right,down,high,white_high_135_down,black_high_45_down,12,right,0.308495,1,12,12,1,FALSE,7,1,1,1,TRUE,FALSE,high_4,0.75,-1,3,,,,,,,,,,,165,9,3.2.2021,164.9596096
134,"['low', 4]",4,black,45,right,down,low,black_low_45_down,white_low_135_down,1,right,0.4791114,1,1,15,1,FALSE,4,0,1,1,TRUE,FALSE,low_4,0.75,-1,3,,,,,,,,,,,165,9,3.2.2021,164.9596096
135,"['low', 3]",3,black,45,right,up,low,black_low_45_up,white_low_135_up,3,left,0.4337696,0,3,9,1,FALSE,2,0,1,1,TRUE,FALSE,low_3,0.75,-1,3,,,,,,,,,,,165,9,3.2.2021,164.9596096
136,"['low', 1]",1,black,135,left,up,low,black_low_135_up,white_low_45_up,8,right,0.2797327,0,8,16,1,FALSE,6,1,1,1,TRUE,FALSE,low_1,0.75,-1,3,,,,,,,,,,,165,9,3.2.2021,164.9596096
137,"['low', 2]",2,black,45,right,up,low,black_low_45_up,white_low_135_up,10,right,0.2116695,1,10,14,1,FALSE,3,0,1,1,TRUE,FALSE,low_2,0.75,-1,3,,,,,,,,,,,165,9,3.2.2021,164.9596096
138,"['high', 3]",3,white,45,left,up,high,white_high_45_up,black_high_135_up,7,left,0.4355785,1,7,9,1,FALSE,3,0,1,1,TRUE,FALSE,high_3,0.75,-1,3,,,,,,,,,,,165,9,3.2.2021,164.9596096
139,"['low', 4]",4,black,45,right,down,low,black_low_45_down,white_low_135_down,1,right,0.239204,1,1,16,1,FALSE,4,0,1,1,TRUE,FALSE,low_4,0.75,-1,3,,,,,,,,,,,165,9,3.2.2021,164.9596096
140,"['high', 2]",2,white,45,left,down,high,white_high_45_down,black_high_135_down,16,right,0.2380781,0,16,16,1,TRUE,5,1,1,1,TRUE,FALSE,high_2,0.75,-1,3,,,,,,,,,,,165,9,3.2.2021,164.9596096
141,"['high', 6]",6,white,135,right,down,high,white_high_135_down,black_high_45_down,6,right,0.1700847,1,6,10,1,FALSE,4,0,1,1,TRUE,FALSE,high_6,0.75,-1,3,,,,,,,,,,,165,9,3.2.2021,164.9596096
142,"['high', 1]",1,black,45,right,down,high,black_high_45_down,white_high_135_down,14,left,0.255807,0,14,14,1,FALSE,5,1,1,1,TRUE,FALSE,high_1,0.75,-1,3,,,,,,,,,,,165,9,3.2.2021,164.9596096
143,"['low', 6]",6,white,45,left,down,low,white_low_45_down,black_low_135_down,4,right,0.3099277,0,4,18,1,FALSE,4,0,1,1,TRUE,FALSE,low_6,0.75,-1,3,,,,,,,,,,,165,9,3.2.2021,164.9596096
144,"['high', 3]",3,white,45,left,up,high,white_high_45_up,black_high_135_up,6,left,0.2217438,1,6,10,1,FALSE,3,0,1,1,TRUE,FALSE,high_3,0.75,-1,3,,,,,,,,,,,165,9,3.2.2021,164.9596096
145,"['high', 4]",4,black,45,right,down,high,black_high_45_down,white_high_135_down,11,right,0.143453,1,11,13,1,FALSE,7,1,1,1,TRUE,FALSE,high_4,0.75,-1,3,,,,,,,,,,,165,9,3.2.2021,164.9596096
146,"['high', 6]",6,white,135,right,down,high,white_high_135_down,black_high_45_down,5,right,0.1080927,1,5,11,1,FALSE,4,0,1,1,TRUE,FALSE,high_6,0.75,-1,3,,,,,,,,,,,165,9,3.2.2021,164.9596096
147,"['high', 6]",6,white,45,left,down,high,white_high_45_down,black_high_135_down,4,left,0.1808625,1,4,12,1,FALSE,4,0,1,1,TRUE,FALSE,high_6,0.75,-1,3,,,,,,,,,,,165,9,3.2.2021,164.9596096
148,"['high', 1]",1,black,135,left,down,high,black_high_135_down,white_high_45_down,17,right,0.2340419,0,17,15,0,TRUE,6,1,1,1,TRUE,FALSE,high_1,0.75,-1,3,,,,,,,,,,,165,9,3.2.2021,164.9596096
149,"['low', 1]",1,black,45,right,down,low,black_low_45_down,white_low_135_down,11,left,0.2814254,0,11,17,0,TRUE,7,1,1,1,TRUE,FALSE,low_1,0.75,-1,3,,,,,,,,,,,165,9,3.2.2021,164.9596096
150,"['high', 2]",2,black,45,right,down,high,black_high_45_down,white_high_135_down,19,right,0.0672562,1,19,17,0,TRUE,6,1,1,1,TRUE,FALSE,high_2,0.75,-1,3,,,,,,,,,,,165,9,3.2.2021,164.9596096
151,"['high', 6]",6,black,135,left,down,high,black_high_135_down,white_high_45_down,3,left,0.116276,1,3,13,1,FALSE,4,0,1,1,TRUE,FALSE,high_6,0.75,-1,3,,,,,,,,,,,165,9,3.2.2021,164.9596096
152,"['low', 1]",1,black,135,left,up,low,black_low_135_up,white_low_45_up,14,right,0.1469758,0,14,18,0,FALSE,7,1,1,1,TRUE,FALSE,low_1,0.75,-1,3,,,,,,,,,,,165,9,3.2.2021,164.9596096
153,"['low', 3]",3,white,45,left,down,low,white_low_45_down,black_low_135_down,6,left,0.0838263,1,6,10,0,TRUE,3,0,1,1,TRUE,FALSE,low_3,0.75,-1,3,,,,,,,,,,,165,9,3.2.2021,164.9596096
154,"['low', 1]",1,white,45,left,down,low,white_low_45_down,black_low_135_down,17,left,0.226105,1,17,19,0,FALSE,7,1,1,1,TRUE,FALSE,low_1,0.75,-1,3,,,,,,,,,,,165,9,3.2.2021,164.9596096
155,"['low', 3]",3,white,45,left,up,low,white_low_45_up,black_low_135_up,5,left,0.2313714,1,5,11,1,TRUE,4,0,1,1,TRUE,FALSE,low_3,0.75,-1,3,,,,,,,,,,,165,9,3.2.2021,164.9596096
156,"['high', 4]",4,white,135,right,down,high,white_high_135_down,black_high_45_down,10,right,0.1669974,1,10,14,1,FALSE,7,1,1,1,TRUE,FALSE,high_4,0.75,-1,3,,,,,,,,,,,165,9,3.2.2021,164.9596096
157,"['low', 3]",3,black,135,left,down,low,black_low_135_down,white_low_45_down,4,right,0.311074,0,4,12,1,FALSE,4,0,1,1,TRUE,FALSE,low_3,0.75,-1,3,,,,,,,,,,,165,9,3.2.2021,164.9596096
158,"['high', 4]",4,black,135,left,up,high,black_high_135_up,white_high_45_up,9,left,0.3865761,1,9,15,1,FALSE,7,1,1,1,TRUE,FALSE,high_4,0.75,-1,3,,,,,,,,,,,165,9,3.2.2021,164.9596096
159,"['low', 1]",1,white,135,right,up,low,white_low_135_up,black_low_45_up,16,right,0.2364452,1,16,20,1,TRUE,8,1,1,1,TRUE,FALSE,low_1,0.75,-1,3,,,,,,,,,,,165,9,3.2.2021,164.9596096
160,"['low', 3]",3,black,45,right,up,low,black_low_45_up,white_low_135_up,7,right,0.1704701,1,7,13,0,TRUE,5,1,1,1,TRUE,FALSE,low_3,0.75,-1,3,,,,,,,,,,,165,9,3.2.2021,164.9596096
161,"['low', 6]",6,white,45,left,down,low,white_low_45_down,black_low_135_down,7,left,0.6811871,1,7,19,0,TRUE,5,1,1,1,TRUE,FALSE,low_6,0.75,-1,3,,,,,,,,,,,165,9,3.2.2021,164.9596096
162,"['low', 4]",4,black,135,left,down,low,black_low_135_down,white_low_45_down,1,left,0.095527,1,1,17,1,FALSE,4,0,1,1,TRUE,FALSE,low_4,0.75,-1,3,,,,,,,,,,,165,9,3.2.2021,164.9596096
163,"['low', 4]",4,white,45,left,down,low,white_low_45_down,black_low_135_down,1,left,0.0688424,1,1,18,1,FALSE,4,0,1,1,TRUE,FALSE,low_4,0.75,-1,3,,,,,,,,,,,165,9,3.2.2021,164.9596096
164,"['low', 4]",4,black,135,left,up,low,black_low_135_up,white_low_45_up,1,left,0.0734453,1,1,19,1,FALSE,4,0,1,1,TRUE,FALSE,low_4,0.75,-1,3,,,,,,,,,,,165,9,3.2.2021,164.9596096
165,"['high', 3]",3,black,45,right,up,high,black_high_45_up,white_high_135_up,5,right,1.6259864,1,5,11,1,FALSE,3,0,1,1,TRUE,FALSE,high_3,0.75,-1,3,,,,,,,,,,,165,9,3.2.2021,164.9596096
166,"['high', 4]",4,black,135,left,down,high,black_high_135_down,white_high_45_down,8,left,0.2346948,1,8,16,1,FALSE,7,1,1,1,TRUE,FALSE,high_4,0.75,-1,3,,,,,,,,,,,165,9,3.2.2021,164.9596096
167,"['high', 2]",2,white,135,right,down,high,white_high_135_down,black_high_45_down,18,right,0.2210855,1,18,18,1,TRUE,7,1,1,1,TRUE,FALSE,high_2,0.75,-1,3,,,,,,,,,,,165,9,3.2.2021,164.9596096
168,"['low', 2]",2,black,45,right,up,low,black_low_45_up,white_low_135_up,9,right,0.1245434,1,9,15,1,FALSE,3,0,1,1,TRUE,FALSE,low_2,0.75,-1,3,,,,,,,,,,,165,9,3.2.2021,164.9596096
169,"['low', 2]",2,black,135,left,up,low,black_low_135_up,white_low_45_up,8,left,0.2322967,1,8,16,1,FALSE,3,0,1,1,TRUE,FALSE,low_2,0.75,-1,3,,,,,,,,,,,165,9,3.2.2021,164.9596096
170,"['high', 1]",1,white,135,right,down,high,white_high_135_down,black_high_45_down,20,right,0.3191715,1,20,16,0,FALSE,6,1,1,1,TRUE,FALSE,high_1,0.75,-1,3,,,,,,,,,,,165,9,3.2.2021,164.9596096
171,"['low', 1]",1,black,135,left,up,low,black_low_135_up,white_low_45_up,15,left,0.1230836,1,15,21,1,FALSE,8,1,1,1,TRUE,FALSE,low_1,0.75,-1,3,,,,,,,,,,,165,9,3.2.2021,164.9596096
172,"['low', 1]",1,black,45,right,down,low,black_low_45_down,white_low_135_down,14,right,0.2402623,1,14,22,1,FALSE,8,1,1,1,TRUE,FALSE,low_1,0.75,-1,3,,,,,,,,,,,165,9,3.2.2021,164.9596096
173,"['high', 3]",3,black,45,right,up,high,black_high_45_up,white_high_135_up,4,left,0.6174349,0,4,12,1,FALSE,3,0,1,1,TRUE,FALSE,high_3,0.75,-1,3,,,,,,,,,,,165,9,3.2.2021,164.9596096
174,"['low', 6]",6,black,45,right,up,low,black_low_45_up,white_low_135_up,6,right,0.2747621,1,6,20,1,TRUE,6,1,1,1,TRUE,FALSE,low_6,0.75,-1,3,,,,,,,,,,,165,9,3.2.2021,164.9596096
175,"['low', 4]",4,black,135,left,down,low,black_low_135_down,white_low_45_down,1,left,0.0288278,1,1,20,1,FALSE,4,0,1,1,TRUE,FALSE,low_4,0.75,-1,3,,,,,,,,,,,165,9,3.2.2021,164.9596096
176,"['high', 4]",4,white,45,left,down,high,white_high_45_down,black_high_135_down,7,left,0.4780172,1,7,17,1,FALSE,7,1,1,1,TRUE,FALSE,high_4,0.75,-1,3,,,,,,,,,,,165,9,3.2.2021,164.9596096
177,"['low', 2]",2,black,45,right,down,low,black_low_45_down,white_low_135_down,7,left,0.5673803,0,7,17,1,FALSE,3,0,1,1,TRUE,FALSE,low_2,0.75,-1,3,,,,,,,,,,,165,9,3.2.2021,164.9596096
178,"['low', 1]",1,white,135,right,up,low,white_low_135_up,black_low_45_up,13,right,1.3674444,1,13,23,1,FALSE,8,1,1,1,TRUE,FALSE,low_1,0.75,-1,3,,,,,,,,,,,165,9,3.2.2021,164.9596096
179,"['high', 2]",2,black,135,left,up,high,black_high_135_up,white_high_45_up,17,left,0.4559812,1,17,19,1,FALSE,7,1,1,1,TRUE,FALSE,high_2,0.75,-1,3,,,,,,,,,,,165,9,3.2.2021,164.9596096
180,"['high', 3]",3,white,135,right,up,high,white_high_135_up,black_high_45_up,7,left,0.0113777,0,7,13,0,TRUE,4,0,1,1,TRUE,FALSE,high_3,0.75,-1,3,,,,,,,,,,,165,9,3.2.2021,164.9596096
181,"['high', 2]",2,black,135,left,down,high,black_high_135_down,white_high_45_down,16,right,0.2229616,0,16,20,1,FALSE,7,1,1,1,TRUE,FALSE,high_2,0.75,-1,3,,,,,,,,,,,165,9,3.2.2021,164.9596096
182,"['high', 3]",3,white,135,right,up,high,white_high_135_up,black_high_45_up,10,right,0.1708462,1,10,14,0,FALSE,4,0,1,1,TRUE,FALSE,high_3,0.75,-1,3,,,,,,,,,,,165,9,3.2.2021,164.9596096
183,"['low', 4]",4,black,135,left,up,low,black_low_135_up,white_low_45_up,1,right,0.1121562,0,1,21,1,FALSE,4,0,1,1,TRUE,FALSE,low_4,0.75,-1,3,,,,,,,,,,,165,9,3.2.2021,164.9596096
184,"['high', 6]",6,black,45,right,down,high,black_high_45_down,white_high_135_down,2,left,0.3946026,0,2,14,1,FALSE,4,0,1,1,TRUE,FALSE,high_6,0.75,-1,3,,,,,,,,,,,165,9,3.2.2021,164.9596096
185,"['low', 3]",3,white,135,right,down,low,white_low_135_down,black_low_45_down,6,left,0.352378,0,6,14,1,TRUE,6,1,1,1,TRUE,FALSE,low_3,0.75,-1,3,,,,,,,,,,,165,9,3.2.2021,164.9596096
186,"['low', 1]",1,black,45,right,down,low,black_low_45_down,white_low_135_down,12,left,0.3478828,0,12,24,1,FALSE,8,1,1,1,TRUE,FALSE,low_1,0.75,-1,3,,,,,,,,,,,165,9,3.2.2021,164.9596096
187,"['low', 4]",4,white,45,left,up,low,white_low_45_up,black_low_135_up,4,left,0.053378,1,4,22,0,TRUE,5,1,1,1,TRUE,FALSE,low_4,0.75,-1,3,,,,,,,,,,,165,9,3.2.2021,164.9596096
188,"['low', 4]",4,black,135,left,down,low,black_low_135_down,white_low_45_down,3,left,0.3421332,1,3,23,1,TRUE,6,1,1,1,TRUE,FALSE,low_4,0.75,-1,3,,,,,,,,,,,165,9,3.2.2021,164.9596096
189,"['low', 4]",4,black,135,left,down,low,black_low_135_down,white_low_45_down,2,left,0.2185865,1,2,24,1,FALSE,6,1,1,1,TRUE,FALSE,low_4,0.75,-1,3,,,,,,,,,,,165,9,3.2.2021,164.9596096
190,"['low', 4]",4,black,135,left,up,low,black_low_135_up,white_low_45_up,1,left,0.0292153,1,1,25,1,FALSE,6,1,1,1,TRUE,FALSE,low_4,0.75,-1,3,,,,,,,,,,,165,9,3.2.2021,164.9596096
191,"['high', 1]",1,black,45,right,down,high,black_high_45_down,white_high_135_down,19,left,0.3368633,0,19,17,1,TRUE,7,1,1,1,TRUE,FALSE,high_1,0.75,-1,3,,,,,,,,,,,165,9,3.2.2021,164.9596096
192,"['high', 3]",3,white,45,left,up,high,white_high_45_up,black_high_135_up,9,left,0.378236,1,9,15,1,TRUE,5,1,1,1,TRUE,FALSE,high_3,0.75,-1,3,,,,,,,,,,,165,9,3.2.2021,164.9596096
193,"['low', 1]",1,black,45,right,down,low,black_low_45_down,white_low_135_down,15,left,0.274749,0,15,25,0,TRUE,9,1,1,1,TRUE,FALSE,low_1,0.75,-1,3,,,,,,,,,,,165,9,3.2.2021,164.9596096
194,"['high', 3]",3,white,135,right,down,high,white_high_135_down,black_high_45_down,8,left,0.2048336,0,8,16,1,FALSE,5,1,1,1,TRUE,FALSE,high_3,0.75,-1,3,,,,,,,,,,,165,9,3.2.2021,164.9596096
195,"['high', 6]",6,black,45,right,down,high,black_high_45_down,white_high_135_down,5,right,0.0783669,1,5,15,0,TRUE,5,1,1,1,TRUE,FALSE,high_6,0.75,-1,3,,,,,,,,,,,165,9,3.2.2021,164.9596096
196,"['low', 6]",6,white,45,left,up,low,white_low_45_up,black_low_135_up,5,left,0.512626,1,5,21,1,FALSE,6,1,1,1,TRUE,FALSE,low_6,0.75,-1,3,,,,,,,,,,,165,9,3.2.2021,164.9596096
197,"['high', 1]",1,white,45,left,up,high,white_high_45_up,black_high_135_up,22,left,0.3556913,1,22,18,0,TRUE,8,1,1,1,TRUE,FALSE,high_1,0.75,-1,3,,,,,,,,,,,165,9,3.2.2021,164.9596096
198,"['low', 2]",2,white,45,left,down,low,white_low_45_down,black_low_135_down,10,left,0.2423133,1,10,18,0,TRUE,4,0,1,1,TRUE,FALSE,low_2,0.75,-1,3,,,,,,,,,,,165,9,3.2.2021,164.9596096
199,"['high', 6]",6,white,135,right,up,high,white_high_135_up,black_high_45_up,4,right,0.2121852,1,4,16,1,TRUE,6,1,1,1,TRUE,FALSE,high_6,0.75,-1,3,,,,,,,,,,,165,9,3.2.2021,164.9596096
200,"['high', 3]",3,white,45,left,down,high,white_high_45_down,black_high_135_down,11,left,0.1080927,1,11,17,0,TRUE,6,1,1,1,TRUE,FALSE,high_3,0.75,-1,3,,,,,,,,,,,165,9,3.2.2021,164.9596096
201,"['high', 3]",3,white,45,left,up,high,white_high_45_up,black_high_135_up,10,left,0.2792448,1,10,18,1,TRUE,7,1,1,1,TRUE,FALSE,high_3,0.75,-1,3,,,,,,,,,,,165,9,3.2.2021,164.9596096
202,"['low', 2]",2,black,45,right,down,low,black_low_45_down,white_low_135_down,9,left,0.2512142,0,9,19,1,TRUE,5,1,1,1,TRUE,FALSE,low_2,0.75,-1,3,,,,,,,,,,,165,9,3.2.2021,164.9596096
203,"['high', 2]",2,black,45,right,down,high,black_high_45_down,white_high_135_down,19,left,0.4443489,0,19,21,0,TRUE,8,1,1,1,TRUE,FALSE,high_2,0.75,-1,3,,,,,,,,,,,165,9,3.2.2021,164.9596096
204,"['high', 3]",3,white,135,right,down,high,white_high_135_down,black_high_45_down,9,right,0.154398,1,9,19,1,FALSE,7,1,1,1,TRUE,FALSE,high_3,0.75,-1,3,,,,,,,,,,,165,9,3.2.2021,164.9596096
205,"['high', 2]",2,white,45,left,up,high,white_high_45_up,black_high_135_up,22,left,0.1726998,1,22,22,0,FALSE,8,1,1,1,TRUE,FALSE,high_2,0.75,-1,3,,,,,,,,,,,165,9,3.2.2021,164.9596096
206,"['low', 6]",6,white,135,right,up,low,white_low_135_up,black_low_45_up,4,right,0.1360751,1,4,22,1,FALSE,6,1,1,1,TRUE,FALSE,low_6,0.75,-1,3,,,,,,,,,,,165,9,3.2.2021,164.9596096
207,"['low', 6]",6,white,135,right,up,low,white_low_135_up,black_low_45_up,3,right,0.3138961,1,3,23,1,FALSE,6,1,1,1,TRUE,FALSE,low_6,0.75,-1,3,,,,,,,,,,,165,9,3.2.2021,164.9596096
208,"['low', 6]",6,black,45,right,down,low,black_low_45_down,white_low_135_down,2,left,0.0573642,0,2,24,1,FALSE,6,1,1,1,TRUE,FALSE,low_6,0.75,-1,3,,,,,,,,,,,165,9,3.2.2021,164.9596096
209,"['high', 3]",3,white,135,right,up,high,white_high_135_up,black_high_45_up,8,right,0.0899228,1,8,20,1,FALSE,7,1,1,1,TRUE,FALSE,high_3,0.75,-1,3,,,,,,,,,,,165,9,3.2.2021,164.9596096
210,"['high', 4]",4,black,45,right,down,high,black_high_45_down,white_high_135_down,6,right,0.0845027,1,6,18,1,FALSE,7,1,1,1,TRUE,FALSE,high_4,0.75,-1,3,,,,,,,,,,,165,9,3.2.2021,164.9596096
211,"['low', 2]",2,black,135,left,up,low,black_low_135_up,white_low_45_up,12,right,0.1803633,0,12,20,0,TRUE,6,1,1,1,TRUE,FALSE,low_2,0.75,-1,3,,,,,,,,,,,165,9,3.2.2021,164.9596096
212,"['high', 4]",4,white,135,right,down,high,white_high_135_down,black_high_45_down,5,right,0.0342201,1,5,19,1,FALSE,7,1,1,1,TRUE,FALSE,high_4,0.75,-1,3,,,,,,,,,,,165,9,3.2.2021,164.9596096
213,"['low', 2]",2,black,135,left,up,low,black_low_135_up,white_low_45_up,15,left,0.9610714,1,15,21,0,FALSE,6,1,1,1,TRUE,FALSE,low_2,0.75,-1,3,,,,,,,,,,,165,9,3.2.2021,164.9596096
214,"['high', 4]",4,white,45,left,up,high,white_high_45_up,black_high_135_up,4,right,0.410151,0,4,20,1,FALSE,7,1,1,1,TRUE,FALSE,high_4,0.75,-1,3,,,,,,,,,,,165,9,3.2.2021,164.9596096
215,"['high', 4]",4,white,45,left,down,high,white_high_45_down,black_high_135_down,7,right,0.0144351,0,7,21,0,TRUE,8,1,1,1,TRUE,FALSE,high_4,0.75,-1,3,,,,,,,,,,,165,9,3.2.2021,164.9596096
216,"['high', 2]",2,black,135,left,up,high,black_high_135_up,white_high_45_up,21,left,0.0818125,1,21,23,1,TRUE,9,1,1,1,TRUE,FALSE,high_2,0.75,-1,3,,,,,,,,,,,165,9,3.2.2021,164.9596096
217,"['low', 2]",2,black,135,left,up,low,black_low_135_up,white_low_45_up,14,right,0.1287766,0,14,22,1,TRUE,7,1,1,1,TRUE,FALSE,low_2,0.75,-1,3,,,,,,,,,,,165,9,3.2.2021,164.9596096
218,"['high', 4]",4,black,45,right,down,high,black_high_45_down,white_high_135_down,10,right,0.3524799,1,10,22,0,FALSE,8,1,1,1,TRUE,FALSE,high_4,0.75,-1,3,,,,,,,,,,,165,9,3.2.2021,164.9596096
219,"['low', 1]",1,white,135,right,down,low,white_low_135_down,black_low_45_down,18,right,0.4302015,1,18,26,0,FALSE,9,1,1,1,TRUE,FALSE,low_1,0.75,-1,3,,,,,,,,,,,165,9,3.2.2021,164.9596096
220,"['low', 4]",4,white,135,right,up,low,white_low_135_up,black_low_45_up,1,right,0.1877347,1,1,26,1,FALSE,6,1,1,1,TRUE,FALSE,low_4,0.75,-1,3,,,,,,,,,,,165,9,3.2.2021,164.9596096
221,"['low', 1]",1,white,135,right,up,low,white_low_135_up,black_low_45_up,17,right,0.3917588,1,17,27,1,TRUE,10,1,1,1,TRUE,FALSE,low_1,0.75,-1,3,,,,,,,,,,,165,9,3.2.2021,164.9596096
222,"['high', 1]",1,black,135,left,down,high,black_high_135_down,white_high_45_down,21,left,0.2320497,1,21,19,1,TRUE,9,1,1,1,TRUE,FALSE,high_1,0.75,-1,3,,,,,,,,,,,165,9,3.2.2021,164.9596096
223,"['low', 3]",3,white,45,left,up,low,white_low_45_up,black_low_135_up,9,left,0.3836246,1,9,15,0,TRUE,7,1,1,1,TRUE,FALSE,low_3,0.75,-1,3,,,,,,,,,,,165,9,3.2.2021,164.9596096
224,"['low', 3]",3,white,45,left,up,low,white_low_45_up,black_low_135_up,8,left,0.0817891,1,8,16,1,TRUE,8,1,1,1,TRUE,FALSE,low_3,0.75,-1,3,,,,,,,,,,,165,9,3.2.2021,164.9596096
225,"['low', 1]",1,white,45,left,up,low,white_low_45_up,black_low_135_up,16,left,0.1097075,1,16,28,1,FALSE,10,1,1,1,TRUE,FALSE,low_1,0.75,-1,3,,,,,,,,,,,165,9,3.2.2021,164.9596096
226,"['low', 3]",3,black,135,left,down,low,black_low_135_down,white_low_45_down,7,left,0.6676958,1,7,17,1,FALSE,8,1,1,1,TRUE,FALSE,low_3,0.75,-1,3,,,,,,,,,,,165,9,3.2.2021,164.9596096
227,"['high', 3]",3,black,45,right,down,high,black_high_45_down,white_high_135_down,7,right,0.1346287,1,7,21,1,FALSE,7,1,1,1,TRUE,FALSE,high_3,0.75,-1,3,,,,,,,,,,,165,9,3.2.2021,164.9596096
228,"['low', 6]",6,white,45,left,down,low,white_low_45_down,black_low_135_down,5,left,0.4032197,1,5,25,0,TRUE,7,1,1,1,TRUE,FALSE,low_6,0.75,-1,3,,,,,,,,,,,165,9,3.2.2021,164.9596096
229,"['high', 4]",4,white,45,left,up,high,white_high_45_up,black_high_135_up,9,left,0.1772002,1,9,23,1,TRUE,9,1,1,1,TRUE,FALSE,high_4,0.75,-1,3,,,,,,,,,,,165,9,3.2.2021,164.9596096
230,"['high', 6]",6,white,45,left,up,high,white_high_45_up,black_high_135_up,3,left,0.1180796,1,3,17,1,FALSE,6,1,1,1,TRUE,FALSE,high_6,0.75,-1,3,,,,,,,,,,,165,9,3.2.2021,164.9596096
231,"['low', 3]",3,black,45,right,down,low,black_low_45_down,white_low_135_down,6,left,0.3682694,0,6,18,1,FALSE,8,1,1,1,TRUE,FALSE,low_3,0.75,-1,3,,,,,,,,,,,165,9,3.2.2021,164.9596096
232,"['high', 4]",4,black,45,right,down,high,black_high_45_down,white_high_135_down,8,left,0.2535162,0,8,24,1,FALSE,9,1,1,1,TRUE,FALSE,high_4,0.75,-1,3,,,,,,,,,,,165,9,3.2.2021,164.9596096
233,"['low', 1]",1,black,45,right,down,low,black_low_45_down,white_low_135_down,15,left,0.0279659,0,15,29,1,FALSE,10,1,1,1,TRUE,FALSE,low_1,0.75,-1,3,,,,,,,,,,,165,9,3.2.2021,164.9596096
234,"['high', 2]",2,black,135,left,down,high,black_high_135_down,white_high_45_down,20,left,0.0155341,1,20,24,1,FALSE,9,1,1,1,TRUE,FALSE,high_2,0.75,-1,3,,,,,,,,,,,165,9,3.2.2021,164.9596096
235,"['low', 3]",3,white,135,right,down,low,white_low_135_down,black_low_45_down,9,right,0.0202849,1,9,19,0,TRUE,9,1,1,1,TRUE,FALSE,low_3,0.75,-1,3,,,,,,,,,,,165,9,3.2.2021,164.9596096
236,"['high', 6]",6,black,135,left,up,high,black_high_135_up,white_high_45_up,2,left,0.1773048,1,2,18,1,FALSE,6,1,1,1,TRUE,FALSE,high_6,0.75,-1,3,,,,,,,,,,,165,9,3.2.2021,164.9596096
237,"['high', 4]",4,black,45,right,down,high,black_high_45_down,white_high_135_down,11,right,0.0160275,1,11,25,0,TRUE,10,1,1,1,TRUE,FALSE,high_4,0.75,-1,3,,,,,,,,,,,165,9,3.2.2021,164.9596096
238,"['high', 6]",6,black,135,left,up,high,black_high_135_up,white_high_45_up,1,left,1.2725942,1,1,19,1,FALSE,6,1,1,1,TRUE,FALSE,high_6,0.75,-1,3,,,,,,,,,,,165,9,3.2.2021,164.9596096
239,"['high', 4]",4,black,45,right,down,high,black_high_45_down,white_high_135_down,10,right,0.381216,1,10,26,1,TRUE,11,1,1,1,TRUE,FALSE,high_4,0.75,-1,3,,,,,,,,,,,165,9,3.2.2021,164.9596096
240,"['high', 3]",3,white,135,right,down,high,white_high_135_down,black_high_45_down,6,right,0.1368129,1,6,22,1,FALSE,7,1,1,1,TRUE,FALSE,high_3,0.75,-1,3,,,,,,,,,,,165,9,3.2.2021,164.9596096
241,"['low', 6]",6,black,135,left,down,low,black_low_135_down,white_low_45_down,4,right,0.3303273,0,4,26,1,TRUE,8,1,1,1,TRUE,FALSE,low_6,0.75,-1,3,,,,,,,,,,,165,9,3.2.2021,164.9596096
242,"['low', 4]",4,black,135,left,down,low,black_low_135_down,white_low_45_down,1,left,0.103886,1,1,27,1,FALSE,6,1,1,1,TRUE,FALSE,low_4,0.75,-1,3,,,,,,,,,,,165,9,3.2.2021,164.9596096
243,"['low', 1]",1,white,45,left,up,low,white_low_45_up,black_low_135_up,18,left,0.196514,1,18,30,0,TRUE,11,1,1,1,TRUE,FALSE,low_1,0.75,-1,3,,,,,,,,,,,165,9,3.2.2021,164.9596096
244,"['high', 6]",6,black,135,left,up,high,black_high_135_up,white_high_45_up,1,right,1.3421487,0,1,20,1,FALSE,6,1,1,1,TRUE,FALSE,high_6,0.75,-1,3,,,,,,,,,,,165,9,3.2.2021,164.9596096
245,"['high', 3]",3,white,135,right,up,high,white_high_135_up,black_high_45_up,5,right,0.2080275,1,5,23,1,FALSE,7,1,1,1,TRUE,FALSE,high_3,0.75,-1,3,,,,,,,,,,,165,9,3.2.2021,164.9596096
246,"['high', 2]",2,white,135,right,up,high,white_high_135_up,black_high_45_up,19,right,0.1013258,1,19,25,1,FALSE,9,1,1,1,TRUE,FALSE,high_2,0.75,-1,3,,,,,,,,,,,165,9,3.2.2021,164.9596096
247,"['low', 2]",2,white,135,right,up,low,white_low_135_up,black_low_45_up,17,right,0.3493267,1,17,23,0,TRUE,8,1,1,1,TRUE,FALSE,low_2,0.75,-1,3,,,,,,,,,,,165,9,3.2.2021,164.9596096
248,"['high', 1]",1,white,45,left,down,high,white_high_45_down,black_high_135_down,20,left,0.1491198,1,20,20,1,FALSE,9,1,1,1,TRUE,FALSE,high_1,0.75,-1,3,,,,,,,,,,,165,9,3.2.2021,164.9596096
249,"['low', 4]",4,white,135,right,down,low,white_low_135_down,black_low_45_down,1,right,0.147808,1,1,28,1,FALSE,6,1,1,1,TRUE,FALSE,low_4,0.75,-1,3,,,,,,,,,,,165,9,3.2.2021,164.9596096
250,"['high', 1]",1,white,45,left,up,high,white_high_45_up,black_high_135_up,19,left,0.0849823,1,19,21,1,FALSE,9,1,1,1,TRUE,FALSE,high_1,0.75,-1,3,,,,,,,,,,,165,9,3.2.2021,164.9596096
251,"['high', 6]",6,white,135,right,up,high,white_high_135_up,black_high_45_up,4,right,0.2680827,1,4,21,0,TRUE,7,1,1,1,TRUE,FALSE,high_6,0.75,-1,3,,,,,,,,,,,165,9,3.2.2021,164.9596096
252,"['low', 3]",3,black,45,right,up,low,black_low_45_up,white_low_135_up,8,right,0.2768122,1,8,20,1,TRUE,10,1,1,1,TRUE,FALSE,low_3,0.75,-1,3,,,,,,,,,,,165,9,3.2.2021,164.9596096
253,"['high', 2]",2,black,45,right,down,high,black_high_45_down,white_high_135_down,18,left,0.421543,0,18,26,1,FALSE,9,1,1,1,TRUE,FALSE,high_2,0.75,-1,3,,,,,,,,,,,165,9,3.2.2021,164.9596096
254,"['high', 4]",4,white,135,right,up,high,white_high_135_up,black_high_45_up,9,right,0.0099728,1,9,27,1,FALSE,11,1,1,1,TRUE,FALSE,high_4,0.75,-1,3,,,,,,,,,,,165,9,3.2.2021,164.9596096
255,"['high', 2]",2,black,45,right,up,high,black_high_45_up,white_high_135_up,21,right,0.3276043,1,21,27,0,TRUE,10,1,1,1,TRUE,FALSE,high_2,0.75,-1,3,,,,,,,,,,,165,9,3.2.2021,164.9596096
256,"['high', 1]",1,black,135,left,down,high,black_high_135_down,white_high_45_down,18,right,0.0437727,0,18,22,1,FALSE,9,1,1,1,TRUE,FALSE,high_1,0.75,-1,3,,,,,,,,,,,165,9,3.2.2021,164.9596096
257,"['high', 6]",6,black,135,left,down,high,black_high_135_down,white_high_45_down,3,right,0.006035,0,3,22,1,TRUE,8,1,1,1,TRUE,FALSE,high_6,0.75,-1,3,,,,,,,,,,,165,9,3.2.2021,164.9596096
258,"['high', 6]",6,black,45,right,down,high,black_high_45_down,white_high_135_down,6,right,0.1562138,1,6,23,0,TRUE,9,1,1,1,TRUE,FALSE,high_6,0.75,-1,3,,,,,,,,,,,165,9,3.2.2021,164.9596096
259,"['high', 3]",3,white,135,right,up,high,white_high_135_up,black_high_45_up,4,right,0.2987255,1,4,24,1,FALSE,7,1,1,1,TRUE,FALSE,high_3,0.75,-1,3,,,,,,,,,,,165,9,3.2.2021,164.9596096
260,"['low', 2]",2,black,135,left,down,low,black_low_135_down,white_low_45_down,16,right,0.2724495,0,16,24,1,TRUE,9,1,1,1,TRUE,FALSE,low_2,0.75,-1,3,,,,,,,,,,,165,9,3.2.2021,164.9596096
261,"['low', 2]",2,black,135,left,up,low,black_low_135_up,white_low_45_up,19,right,0.2139743,0,19,25,0,TRUE,10,1,1,1,TRUE,FALSE,low_2,0.75,-1,3,,,,,,,,,,,165,9,3.2.2021,164.9596096
262,"['low', 1]",1,white,45,left,up,low,white_low_45_up,black_low_135_up,17,left,0.0595744,1,17,31,1,TRUE,12,1,1,1,TRUE,FALSE,low_1,0.75,-1,3,,,,,,,,,,,165,9,3.2.2021,164.9596096
263,"['high', 4]",4,black,135,left,down,high,black_high_135_down,white_high_45_down,8,right,0.3850003,0,8,28,1,FALSE,11,1,1,1,TRUE,FALSE,high_4,0.75,-1,3,,,,,,,,,,,165,9,3.2.2021,164.9596096
264,"['high', 4]",4,black,135,left,down,high,black_high_135_down,white_high_45_down,11,left,0.3978929,1,11,29,0,TRUE,12,1,1,1,TRUE,FALSE,high_4,0.75,-1,3,,,,,,,,,,,165,9,3.2.2021,164.9596096
265,"['low', 2]",2,black,135,left,up,low,black_low_135_up,white_low_45_up,22,left,0.101168,1,22,26,0,FALSE,10,1,1,1,TRUE,FALSE,low_2,0.75,-1,3,,,,,,,,,,,165,9,3.2.2021,164.9596096
266,"['low', 2]",2,white,45,left,down,low,white_low_45_down,black_low_135_down,21,left,0.1060551,1,21,27,1,TRUE,11,1,1,1,TRUE,FALSE,low_2,0.75,-1,3,,,,,,,,,,,165,9,3.2.2021,164.9596096
267,"['low', 2]",2,white,45,left,down,low,white_low_45_down,black_low_135_down,20,left,0.1639551,1,20,28,1,FALSE,11,1,1,1,TRUE,FALSE,low_2,0.75,-1,3,,,,,,,,,,,165,9,3.2.2021,164.9596096
268,"['low', 6]",6,white,45,left,down,low,white_low_45_down,black_low_135_down,7,left,0.0733731,1,7,27,0,TRUE,9,1,1,1,TRUE,FALSE,low_6,0.75,-1,3,,,,,,,,,,,165,9,3.2.2021,164.9596096
269,"['high', 6]",6,white,45,left,down,high,white_high_45_down,black_high_135_down,5,left,0.0776889,1,5,24,1,TRUE,10,1,1,1,TRUE,FALSE,high_6,0.75,-1,3,,,,,,,,,,,165,9,3.2.2021,164.9596096
270,"['high', 2]",2,white,135,right,down,high,white_high_135_down,black_high_45_down,20,right,0.2254786,1,20,28,1,TRUE,11,1,1,1,TRUE,FALSE,high_2,0.75,-1,3,,,,,,,,,,,165,9,3.2.2021,164.9596096
271,"['high', 1]",1,black,45,right,up,high,black_high_45_up,white_high_135_up,21,right,0.3721732,1,21,23,0,TRUE,10,1,1,1,TRUE,FALSE,high_1,0.75,-1,3,,,,,,,,,,,165,9,3.2.2021,164.9596096
272,"['low', 2]",2,black,135,left,up,low,black_low_135_up,white_low_45_up,19,left,0.2723303,1,19,29,1,FALSE,11,1,1,1,TRUE,FALSE,low_2,0.75,-1,3,,,,,,,,,,,165,9,3.2.2021,164.9596096
273,"['low', 3]",3,black,135,left,up,low,black_low_135_up,white_low_45_up,7,left,0.1111252,1,7,21,1,FALSE,10,1,1,1,TRUE,FALSE,low_3,0.75,-1,3,,,,,,,,,,,165,9,3.2.2021,164.9596096
274,"['low', 6]",6,black,45,right,up,low,black_low_45_up,white_low_135_up,6,right,0.6624094,1,6,28,1,TRUE,10,1,1,1,TRUE,FALSE,low_6,0.75,-1,3,,,,,,,,,,,165,9,3.2.2021,164.9596096
275,"['low', 3]",3,black,45,right,up,low,black_low_45_up,white_low_135_up,6,right,0.1053253,1,6,22,1,FALSE,10,1,1,1,TRUE,FALSE,low_3,0.75,-1,3,,,,,,,,,,,165,9,3.2.2021,164.9596096
276,"['high', 2]",2,black,45,right,up,high,black_high_45_up,white_high_135_up,19,right,1.1533589,1,19,29,1,FALSE,11,1,1,1,TRUE,FALSE,high_2,0.75,-1,3,,,,,,,,,,,165,9,3.2.2021,164.9596096
277,"['low', 2]",2,white,135,right,up,low,white_low_135_up,black_low_45_up,18,right,0.3087191,1,18,30,1,FALSE,11,1,1,1,TRUE,FALSE,low_2,0.75,-1,3,,,,,,,,,,,165,9,3.2.2021,164.9596096
278,"['low', 2]",2,white,135,right,up,low,white_low_135_up,black_low_45_up,17,right,0.1602445,1,17,31,1,FALSE,11,1,1,1,TRUE,FALSE,low_2,0.75,-1,3,,,,,,,,,,,165,9,3.2.2021,164.9596096
279,"['high', 1]",1,black,45,right,up,high,black_high_45_up,white_high_135_up,20,right,0.2448936,1,20,24,1,TRUE,11,1,1,1,TRUE,FALSE,high_1,0.75,-1,3,,,,,,,,,,,165,9,3.2.2021,164.9596096
280,"['low', 1]",1,white,135,right,up,low,white_low_135_up,black_low_45_up,16,right,0.2223541,1,16,32,1,FALSE,12,1,1,1,TRUE,FALSE,low_1,0.75,-1,3,,,,,,,,,,,165,9,3.2.2021,164.9596096
281,"['low', 1]",1,black,45,right,up,low,black_low_45_up,white_low_135_up,15,right,0.2909261,1,15,33,1,FALSE,12,1,1,1,TRUE,FALSE,low_1,0.75,-1,3,,,,,,,,,,,165,9,3.2.2021,164.9596096
282,"['low', 6]",6,white,135,right,down,low,white_low_135_down,black_low_45_down,5,right,0.2131486,1,5,29,1,FALSE,10,1,1,1,TRUE,FALSE,low_6,0.75,-1,3,,,,,,,,,,,165,9,3.2.2021,164.9596096
283,"['high', 4]",4,black,135,left,down,high,black_high_135_down,white_high_45_down,10,right,0.6590199,0,10,30,1,TRUE,13,1,1,1,TRUE,FALSE,high_4,0.75,-1,3,,,,,,,,,,,165,9,3.2.2021,164.9596096
284,"['high', 6]",6,black,45,right,up,high,black_high_45_up,white_high_135_up,4,right,0.2646143,1,4,25,1,FALSE,10,1,1,1,TRUE,FALSE,high_6,0.75,-1,3,,,,,,,,,,,165,9,3.2.2021,164.9596096
285,"['low', 1]",1,white,45,left,down,low,white_low_45_down,black_low_135_down,14,left,0.3618857,1,14,34,1,FALSE,12,1,1,1,TRUE,FALSE,low_1,0.75,-1,3,,,,,,,,,,,165,9,3.2.2021,164.9596096
286,"['low', 6]",6,white,135,right,down,low,white_low_135_down,black_low_45_down,4,right,0.1450278,1,4,30,1,FALSE,10,1,1,1,TRUE,FALSE,low_6,0.75,-1,3,,,,,,,,,,,165,9,3.2.2021,164.9596096
287,"['low', 1]",1,white,45,left,down,low,white_low_45_down,black_low_135_down,13,left,0.2327038,1,13,35,1,FALSE,12,1,1,1,TRUE,FALSE,low_1,0.75,-1,3,,,,,,,,,,,165,9,3.2.2021,164.9596096
288,"['high', 6]",6,black,45,right,up,high,black_high_45_up,white_high_135_up,3,right,0.0167186,1,3,26,1,FALSE,10,1,1,1,TRUE,FALSE,high_6,0.75,-1,3,,,,,,,,,,,165,9,3.2.2021,164.9596096
289,"['low', 2]",2,white,135,right,down,low,white_low_135_down,black_low_45_down,16,right,0.3601709,1,16,32,1,FALSE,11,1,1,1,TRUE,FALSE,low_2,0.75,-1,3,,,,,,,,,,,165,9,3.2.2021,164.9596096
290,"['low', 6]",6,white,45,left,down,low,white_low_45_down,black_low_135_down,3,left,0.443959,1,3,31,1,FALSE,10,1,1,1,TRUE,FALSE,low_6,0.75,-1,3,,,,,,,,,,,165,9,3.2.2021,164.9596096
291,"['low', 6]",6,black,135,left,down,low,black_low_135_down,white_low_45_down,2,left,0.0848384,1,2,32,1,FALSE,10,1,1,1,TRUE,FALSE,low_6,0.75,-1,3,,,,,,,,,,,165,9,3.2.2021,164.9596096
292,"['low', 6]",6,black,45,right,up,low,black_low_45_up,white_low_135_up,1,right,0.1947275,1,1,33,1,FALSE,10,1,1,1,TRUE,FALSE,low_6,0.75,-1,3,,,,,,,,,,,165,9,3.2.2021,164.9596096
293,"['low', 2]",2,white,45,left,down,low,white_low_45_down,black_low_135_down,15,left,0.0152329,1,15,33,1,FALSE,11,1,1,1,TRUE,FALSE,low_2,0.75,-1,3,,,,,,,,,,,165,9,3.2.2021,164.9596096
294,"['low', 3]",3,black,135,left,down,low,black_low_135_down,white_low_45_down,5,left,0.0628107,1,5,23,1,FALSE,10,1,1,1,TRUE,FALSE,low_3,0.75,-1,3,,,,,,,,,,,165,9,3.2.2021,164.9596096
295,"['low', 3]",3,white,135,right,down,low,white_low_135_down,black_low_45_down,4,right,0.4376596,1,4,24,1,FALSE,10,1,1,1,TRUE,FALSE,low_3,0.75,-1,3,,,,,,,,,,,165,9,3.2.2021,164.9596096
296,"['low', 4]",4,white,135,right,down,low,white_low_135_down,black_low_45_down,1,right,0.1136889,1,1,29,1,FALSE,6,1,1,1,TRUE,FALSE,low_4,0.75,-1,3,,,,,,,,,,,165,9,3.2.2021,164.9596096
297,"['high', 1]",1,white,135,right,up,high,white_high_135_up,black_high_45_up,19,right,0.1483941,1,19,25,1,FALSE,11,1,1,1,TRUE,FALSE,high_1,0.75,-1,3,,,,,,,,,,,165,9,3.2.2021,164.9596096
298,"['high', 1]",1,white,135,right,up,high,white_high_135_up,black_high_45_up,18,right,0.2686608,1,18,26,1,FALSE,11,1,1,1,TRUE,FALSE,high_1,0.75,-1,3,,,,,,,,,,,165,9,3.2.2021,164.9596096
299,"['low', 1]",1,black,45,right,up,low,black_low_45_up,white_low_135_up,12,left,0.4122941,0,12,36,1,FALSE,12,1,1,1,TRUE,FALSE,low_1,0.75,-1,3,,,,,,,,,,,165,9,3.2.2021,164.9596096
300,"['high', 6]",6,black,135,left,up,high,black_high_135_up,white_high_45_up,2,left,0.0420888,1,2,27,1,FALSE,10,1,1,1,TRUE,FALSE,high_6,0.75,-1,3,,,,,,,,,,,165,9,3.2.2021,164.9596096
301,"['low', 6]",6,black,135,left,up,low,black_low_135_up,white_low_45_up,1,left,0.2382926,1,1,34,1,FALSE,10,1,1,1,TRUE,FALSE,low_6,0.75,-1,3,,,,,,,,,,,165,9,3.2.2021,164.9596096
302,"['low', 4]",4,black,45,right,down,low,black_low_45_down,white_low_135_down,1,right,0.0269797,1,1,30,1,FALSE,6,1,1,1,TRUE,FALSE,low_4,0.75,-1,3,,,,,,,,,,,165,9,3.2.2021,164.9596096
303,"['low', 2]",2,white,45,left,down,low,white_low_45_down,black_low_135_down,14,left,0.2555093,1,14,34,1,FALSE,11,1,1,1,TRUE,FALSE,low_2,0.75,-1,3,,,,,,,,,,,165,9,3.2.2021,164.9596096
304,"['low', 4]",4,white,45,left,up,low,white_low_45_up,black_low_135_up,1,left,0.195665,1,1,31,1,FALSE,6,1,1,1,TRUE,FALSE,low_4,0.75,-1,3,,,,,,,,,,,165,9,3.2.2021,164.9596096
305,"['high', 4]",4,white,135,right,down,high,white_high_135_down,black_high_45_down,13,right,0.6223163,1,13,31,0,TRUE,14,1,1,1,TRUE,FALSE,high_4,0.75,-1,3,,,,,,,,,,,165,9,3.2.2021,164.9596096
306,"['high', 6]",6,black,45,right,down,high,black_high_45_down,white_high_135_down,1,right,2.3641554,1,1,28,1,FALSE,10,1,1,1,TRUE,FALSE,high_6,0.75,-1,3,,,,,,,,,,,165,9,3.2.2021,164.9596096
307,"['high', 3]",3,black,45,right,up,high,black_high_45_up,white_high_135_up,3,left,0.4872155,0,3,25,1,FALSE,7,1,1,1,TRUE,FALSE,high_3,0.75,-1,3,,,,,,,,,,,165,9,3.2.2021,164.9596096
308,"['low', 3]",3,black,135,left,up,low,black_low_135_up,white_low_45_up,3,left,1.8214463,1,3,25,1,FALSE,10,1,1,1,TRUE,FALSE,low_3,0.75,-1,3,,,,,,,,,,,165,9,3.2.2021,164.9596096
309,"['high', 4]",4,white,45,left,up,high,white_high_45_up,black_high_135_up,12,left,1.3266586,1,12,32,1,TRUE,15,1,1,1,TRUE,FALSE,high_4,0.75,-1,3,,,,,,,,,,,165,9,3.2.2021,164.9596096
310,"['low', 4]",4,white,135,right,up,low,white_low_135_up,black_low_45_up,1,right,1.601798,1,1,32,1,FALSE,6,1,1,1,TRUE,FALSE,low_4,0.75,-1,3,,,,,,,,,,,165,9,3.2.2021,164.9596096
311,"['low', 2]",2,white,135,right,down,low,white_low_135_down,black_low_45_down,13,right,0.7025917,1,13,35,1,FALSE,11,1,1,1,TRUE,FALSE,low_2,0.75,-1,3,,,,,,,,,,,165,9,3.2.2021,164.9596096
312,"['low', 6]",6,white,45,left,up,low,white_low_45_up,black_low_135_up,1,left,0.0757352,1,1,35,1,FALSE,10,1,1,1,TRUE,FALSE,low_6,0.75,-1,3,,,,,,,,,,,165,9,3.2.2021,164.9596096
313,"['high', 4]",4,black,45,right,up,high,black_high_45_up,white_high_135_up,11,left,0.4742776,0,11,33,1,FALSE,15,1,1,1,TRUE,FALSE,high_4,0.75,-1,3,,,,,,,,,,,165,9,3.2.2021,164.9596096
314,"['high', 3]",3,black,135,left,down,high,black_high_135_down,white_high_45_down,6,left,0.1545961,1,6,26,0,TRUE,8,1,1,1,TRUE,FALSE,high_3,0.75,-1,3,,,,,,,,,,,165,9,3.2.2021,164.9596096
315,"['low', 4]",4,black,45,right,up,low,black_low_45_up,white_low_135_up,1,right,0.9070707,1,1,33,1,FALSE,6,1,1,1,TRUE,FALSE,low_4,0.75,-1,3,,,,,,,,,,,165,9,3.2.2021,164.9596096
316,"['low', 4]",4,black,45,right,up,low,black_low_45_up,white_low_135_up,1,right,0.0126111,1,1,34,1,FALSE,6,1,1,1,TRUE,FALSE,low_4,0.75,-1,3,,,,,,,,,,,165,9,3.2.2021,164.9596096
317,"['low', 1]",1,black,45,right,up,low,black_low_45_up,white_low_135_up,15,right,1.6182784,1,15,37,0,TRUE,13,1,1,1,TRUE,FALSE,low_1,0.75,-1,3,,,,,,,,,,,165,9,3.2.2021,164.9596096
318,"['low', 2]",2,white,45,left,up,low,white_low_45_up,black_low_135_up,12,left,0.1760813,1,12,36,1,FALSE,11,1,1,1,TRUE,FALSE,low_2,0.75,-1,3,,,,,,,,,,,165,9,3.2.2021,164.9596096
319,"['low', 1]",1,black,135,left,up,low,black_low_135_up,white_low_45_up,14,left,0.6133695,1,14,38,1,TRUE,14,1,1,1,TRUE,FALSE,low_1,0.75,-1,3,,,,,,,,,,,165,9,3.2.2021,164.9596096
320,"['high', 3]",3,black,135,left,up,high,black_high_135_up,white_high_45_up,5,left,0.3243875,1,5,27,1,TRUE,9,1,1,1,TRUE,FALSE,high_3,0.75,-1,3,,,,,,,,,,,165,9,3.2.2021,164.9596096
321,"['low', 2]",2,black,45,right,down,low,black_low_45_down,white_low_135_down,11,right,0.3419212,1,11,37,1,FALSE,11,1,1,1,TRUE,FALSE,low_2,0.75,-1,3,,,,,,,,,,,165,9,3.2.2021,164.9596096
322,"['high', 3]",3,white,45,left,up,high,white_high_45_up,black_high_135_up,4,left,0.0372619,1,4,28,1,FALSE,9,1,1,1,TRUE,FALSE,high_3,0.75,-1,3,,,,,,,,,,,165,9,3.2.2021,164.9596096
323,"['high', 4]",4,black,135,left,down,high,black_high_135_down,white_high_45_down,14,left,0.3092549,1,14,34,0,TRUE,16,1,1,1,TRUE,FALSE,high_4,0.75,-1,3,,,,,,,,,,,165,9,3.2.2021,164.9596096
324,"['low', 6]",6,white,135,right,up,low,white_low_135_up,black_low_45_up,1,right,0.0579143,1,1,36,1,FALSE,10,1,1,1,TRUE,FALSE,low_6,0.75,-1,3,,,,,,,,,,,165,9,3.2.2021,164.9596096
325,"['low', 4]",4,black,45,right,down,low,black_low_45_down,white_low_135_down,1,left,0.0520927,0,1,35,1,FALSE,6,1,1,1,TRUE,FALSE,low_4,0.75,-1,3,,,,,,,,,,,165,9,3.2.2021,164.9596096
326,"['low', 1]",1,white,45,left,down,low,white_low_45_down,black_low_135_down,13,left,0.0600525,1,13,39,1,FALSE,14,1,1,1,TRUE,FALSE,low_1,0.75,-1,3,,,,,,,,,,,165,9,3.2.2021,164.9596096
327,"['low', 3]",3,white,135,right,up,low,white_low_135_up,black_low_45_up,2,right,0.4342772,1,2,26,1,FALSE,10,1,1,1,TRUE,FALSE,low_3,0.75,-1,3,,,,,,,,,,,165,9,3.2.2021,164.9596096
328,"['low', 6]",6,black,45,right,down,low,black_low_45_down,white_low_135_down,1,right,0.1348649,1,1,37,1,FALSE,10,1,1,1,TRUE,FALSE,low_6,0.75,-1,3,,,,,,,,,,,165,9,3.2.2021,164.9596096
329,"['high', 3]",3,black,45,right,up,high,black_high_45_up,white_high_135_up,3,left,0.0339504,0,3,29,1,FALSE,9,1,1,1,TRUE,FALSE,high_3,0.75,-1,3,,,,,,,,,,,165,9,3.2.2021,164.9596096
330,"['low', 4]",4,white,135,right,down,low,white_low_135_down,black_low_45_down,4,right,0.2719874,1,4,36,0,TRUE,7,1,1,1,TRUE,FALSE,low_4,0.75,-1,3,,,,,,,,,,,165,9,3.2.2021,164.9596096
331,"['high', 3]",3,black,135,left,up,high,black_high_135_up,white_high_45_up,6,right,0.2854258,0,6,30,0,TRUE,10,1,1,1,TRUE,FALSE,high_3,0.75,-1,3,,,,,,,,,,,165,9,3.2.2021,164.9596096
332,"['low', 4]",4,white,135,right,down,low,white_low_135_down,black_low_45_down,3,right,0.1299509,1,3,37,1,TRUE,8,1,1,1,TRUE,FALSE,low_4,0.75,-1,3,,,,,,,,,,,165,9,3.2.2021,164.9596096
333,"['low', 3]",3,white,45,left,up,low,white_low_45_up,black_low_135_up,1,right,0.0782587,0,1,27,1,FALSE,10,1,1,1,TRUE,FALSE,low_3,0.75,-1,3,,,,,,,,,,,165,9,3.2.2021,164.9596096
334,"['low', 2]",2,black,45,right,down,low,black_low_45_down,white_low_135_down,10,right,0.3013999,1,10,38,1,FALSE,11,1,1,1,TRUE,FALSE,low_2,0.75,-1,3,,,,,,,,,,,165,9,3.2.2021,164.9596096
335,"['low', 1]",1,white,135,right,down,low,white_low_135_down,black_low_45_down,12,right,0.3584245,1,12,40,1,FALSE,14,1,1,1,TRUE,FALSE,low_1,0.75,-1,3,,,,,,,,,,,165,9,3.2.2021,164.9596096
336,"['high', 2]",2,white,135,right,down,high,white_high_135_down,black_high_45_down,18,right,0.0163382,1,18,30,1,FALSE,11,1,1,1,TRUE,FALSE,high_2,0.75,-1,3,,,,,,,,,,,165,9,3.2.2021,164.9596096
337,"['high', 3]",3,white,135,right,up,high,white_high_135_up,black_high_45_up,9,right,0.25687,1,9,31,0,FALSE,10,1,1,1,TRUE,FALSE,high_3,0.75,-1,3,,,,,,,,,,,165,9,3.2.2021,164.9596096
338,"['low', 6]",6,white,135,right,up,low,white_low_135_up,black_low_45_up,1,right,0.013631,1,1,38,1,FALSE,10,1,1,1,TRUE,FALSE,low_6,0.75,-1,3,,,,,,,,,,,165,9,3.2.2021,164.9596096
339,"['low', 3]",3,black,135,left,down,low,black_low_135_down,white_low_45_down,4,right,0.2497511,0,4,28,0,TRUE,11,1,1,1,TRUE,FALSE,low_3,0.75,-1,3,,,,,,,,,,,165,9,3.2.2021,164.9596096
340,"['high', 2]",2,black,135,left,down,high,black_high_135_down,white_high_45_down,17,right,0.2531989,0,17,31,1,FALSE,11,1,1,1,TRUE,FALSE,high_2,0.75,-1,3,,,,,,,,,,,165,9,3.2.2021,164.9596096
341,"['high', 4]",4,black,45,right,down,high,black_high_45_down,white_high_135_down,13,right,0.1640316,1,13,35,1,TRUE,17,1,1,1,TRUE,FALSE,high_4,0.75,-1,3,,,,,,,,,,,165,9,3.2.2021,164.9596096
342,"['high', 2]",2,white,135,right,up,high,white_high_135_up,black_high_45_up,20,left,0.1375683,0,20,32,0,TRUE,12,1,1,1,TRUE,FALSE,high_2,0.75,-1,3,,,,,,,,,,,165,9,3.2.2021,164.9596096
343,"['low', 4]",4,white,45,left,down,low,white_low_45_down,black_low_135_down,2,right,0.5409478,0,2,38,1,FALSE,8,1,1,1,TRUE,FALSE,low_4,0.75,-1,3,,,,,,,,,,,165,9,3.2.2021,164.9596096
344,"['low', 1]",1,white,135,right,up,low,white_low_135_up,black_low_45_up,11,right,0.2122202,1,11,41,1,FALSE,14,1,1,1,TRUE,FALSE,low_1,0.75,-1,3,,,,,,,,,,,165,9,3.2.2021,164.9596096
345,"['high', 2]",2,white,45,left,up,high,white_high_45_up,black_high_135_up,23,left,0.027157,1,23,33,0,FALSE,12,1,1,1,TRUE,FALSE,high_2,0.75,-1,3,,,,,,,,,,,165,9,3.2.2021,164.9596096
346,"['low', 3]",3,black,135,left,up,low,black_low_135_up,white_low_45_up,7,right,0.5999725,0,7,29,0,FALSE,11,1,1,1,TRUE,FALSE,low_3,0.75,-1,3,,,,,,,,,,,165,9,3.2.2021,164.9596096
347,"['low', 3]",3,black,45,right,up,low,black_low_45_up,white_low_135_up,10,right,0.1110729,1,10,30,0,FALSE,11,1,1,1,TRUE,FALSE,low_3,0.75,-1,3,,,,,,,,,,,165,9,3.2.2021,164.9596096
348,"['low', 1]",1,white,45,left,up,low,white_low_45_up,black_low_135_up,10,left,0.1817958,1,10,42,1,FALSE,14,1,1,1,TRUE,FALSE,low_1,0.75,-1,3,,,,,,,,,,,165,9,3.2.2021,164.9596096
349,"['high', 1]",1,white,135,right,down,high,white_high_135_down,black_high_45_down,17,right,0.1016878,1,17,27,1,FALSE,11,1,1,1,TRUE,FALSE,high_1,0.75,-1,3,,,,,,,,,,,165,9,3.2.2021,164.9596096
350,"['high', 6]",6,black,135,left,up,high,black_high_135_up,white_high_45_up,1,left,0.1440088,1,1,29,1,FALSE,10,1,1,1,TRUE,FALSE,high_6,0.75,-1,3,,,,,,,,,,,165,9,3.2.2021,164.9596096
351,"['low', 2]",2,black,45,right,up,low,black_low_45_up,white_low_135_up,9,left,0.0240087,0,9,39,1,FALSE,11,1,1,1,TRUE,FALSE,low_2,0.75,-1,3,,,,,,,,,,,165,9,3.2.2021,164.9596096
352,"['low', 1]",1,white,45,left,down,low,white_low_45_down,black_low_135_down,9,left,0.6145316,1,9,43,1,FALSE,14,1,1,1,TRUE,FALSE,low_1,0.75,-1,3,,,,,,,,,,,165,9,3.2.2021,164.9596096
353,"['low', 6]",6,white,135,right,up,low,white_low_135_up,black_low_45_up,1,right,0.475231,1,1,39,1,FALSE,10,1,1,1,TRUE,FALSE,low_6,0.75,-1,3,,,,,,,,,,,165,9,3.2.2021,164.9596096
354,"['low', 3]",3,black,45,right,up,low,black_low_45_up,white_low_135_up,9,left,1.1197992,0,9,31,1,TRUE,12,1,1,1,TRUE,FALSE,low_3,0.75,-1,3,,,,,,,,,,,165,9,3.2.2021,164.9596096
355,"['low', 6]",6,white,45,left,up,low,white_low_45_up,black_low_135_up,1,left,0.1068599,1,1,40,1,FALSE,10,1,1,1,TRUE,FALSE,low_6,0.75,-1,3,,,,,,,,,,,165,9,3.2.2021,164.9596096
356,"['high', 1]",1,black,135,left,down,high,black_high_135_down,white_high_45_down,16,right,0.0549677,0,16,28,1,FALSE,11,1,1,1,TRUE,FALSE,high_1,0.75,-1,3,,,,,,,,,,,165,9,3.2.2021,164.9596096
357,"['high', 2]",2,white,45,left,down,high,white_high_45_down,black_high_135_down,22,left,0.2978296,1,22,34,1,TRUE,13,1,1,1,TRUE,FALSE,high_2,0.75,-1,3,,,,,,,,,,,165,9,3.2.2021,164.9596096
358,"['low', 6]",6,white,45,left,up,low,white_low_45_up,black_low_135_up,1,left,0.1153412,1,1,41,1,FALSE,10,1,1,1,TRUE,FALSE,low_6,0.75,-1,3,,,,,,,,,,,165,9,3.2.2021,164.9596096
359,"['high', 1]",1,white,135,right,down,high,white_high_135_down,black_high_45_down,19,right,0.0167612,1,19,29,0,TRUE,12,1,1,1,TRUE,FALSE,high_1,0.75,-1,3,,,,,,,,,,,165,9,3.2.2021,164.9596096
360,"['low', 1]",1,black,45,right,down,low,black_low_45_down,white_low_135_down,8,left,0.0594294,0,8,44,1,FALSE,14,1,1,1,TRUE,FALSE,low_1,0.75,-1,3,,,,,,,,,,,165,9,3.2.2021,164.9596096
361,"['high', 1]",1,black,45,right,up,high,black_high_45_up,white_high_135_up,18,left,0.0630619,0,18,30,1,TRUE,13,1,1,1,TRUE,FALSE,high_1,0.75,-1,3,,,,,,,,,,,165,9,3.2.2021,164.9596096
362,"['high', 1]",1,white,45,left,up,high,white_high_45_up,black_high_135_up,21,left,0.2562003,1,21,31,0,TRUE,14,1,1,1,TRUE,FALSE,high_1,0.75,-1,3,,,,,,,,,,,165,9,3.2.2021,164.9596096
363,"['high', 2]",2,black,135,left,down,high,black_high_135_down,white_high_45_down,21,right,0.0445616,0,21,35,1,FALSE,13,1,1,1,TRUE,FALSE,high_2,0.75,-1,3,,,,,,,,,,,165,9,3.2.2021,164.9596096
364,"['low', 3]",3,white,135,right,down,low,white_low_135_down,black_low_45_down,12,right,0.2828754,1,12,32,0,TRUE,13,1,1,1,TRUE,FALSE,low_3,0.75,-1,3,,,,,,,,,,,165,9,3.2.2021,164.9596096
365,"['low', 3]",3,white,45,left,down,low,white_low_45_down,black_low_135_down,11,left,0.1598494,1,11,33,1,TRUE,14,1,1,1,TRUE,FALSE,low_3,0.75,-1,3,,,,,,,,,,,165,9,3.2.2021,164.9596096
366,"['high', 3]",3,black,45,right,down,high,black_high_45_down,white_high_135_down,8,left,0.5596645,0,8,32,1,TRUE,11,1,1,1,TRUE,FALSE,high_3,0.75,-1,3,,,,,,,,,,,165,9,3.2.2021,164.9596096
367,"['low', 6]",6,black,45,right,down,low,black_low_45_down,white_low_135_down,1,left,0.5090353,0,1,42,1,FALSE,10,1,1,1,TRUE,FALSE,low_6,0.75,-1,3,,,,,,,,,,,165,9,3.2.2021,164.9596096
368,"['high', 4]",4,white,135,right,down,high,white_high_135_down,black_high_45_down,12,right,0.4270844,1,12,36,1,FALSE,17,1,1,1,TRUE,FALSE,high_4,0.75,-1,3,,,,,,,,,,,165,9,3.2.2021,164.9596096
369,"['low', 3]",3,white,135,right,down,low,white_low_135_down,black_low_45_down,10,right,0.2337123,1,10,34,1,FALSE,14,1,1,1,TRUE,FALSE,low_3,0.75,-1,3,,,,,,,,,,,165,9,3.2.2021,164.9596096
370,"['high', 3]",3,white,45,left,up,high,white_high_45_up,black_high_135_up,11,left,0.1341078,1,11,33,0,TRUE,12,1,1,1,TRUE,FALSE,high_3,0.75,-1,3,,,,,,,,,,,165,9,3.2.2021,164.9596096
371,"['high', 2]",2,white,135,right,down,high,white_high_135_down,black_high_45_down,24,right,0.1741777,1,24,36,0,TRUE,14,1,1,1,TRUE,FALSE,high_2,0.75,-1,3,,,,,,,,,,,165,9,3.2.2021,164.9596096
372,"['low', 2]",2,black,45,right,down,low,black_low_45_down,white_low_135_down,12,right,0.1949104,1,12,40,0,TRUE,12,1,1,1,TRUE,FALSE,low_2,0.75,-1,3,,,,,,,,,,,165,9,3.2.2021,164.9596096
373,"['low', 2]",2,black,45,right,up,low,black_low_45_up,white_low_135_up,11,right,0.2744438,1,11,41,1,TRUE,13,1,1,1,TRUE,FALSE,low_2,0.75,-1,3,,,,,,,,,,,165,9,3.2.2021,164.9596096
374,"['high', 1]",1,black,45,right,down,high,black_high_45_down,white_high_135_down,20,right,0.5494993,1,20,32,1,TRUE,15,1,1,1,TRUE,FALSE,high_1,0.75,-1,3,,,,,,,,,,,165,9,3.2.2021,164.9596096
375,"['high', 3]",3,white,135,right,up,high,white_high_135_up,black_high_45_up,10,left,0.3182018,0,10,34,1,TRUE,13,1,1,1,TRUE,FALSE,high_3,0.75,-1,3,,,,,,,,,,,165,9,3.2.2021,164.9596096
376,"['low', 2]",2,black,135,left,down,low,black_low_135_down,white_low_45_down,10,left,0.6632569,1,10,42,1,FALSE,13,1,1,1,TRUE,FALSE,low_2,0.75,-1,3,,,,,,,,,,,165,9,3.2.2021,164.9596096
377,"['low', 3]",3,black,45,right,up,low,black_low_45_up,white_low_135_up,9,left,0.2165117,0,9,35,1,FALSE,14,1,1,1,TRUE,FALSE,low_3,0.75,-1,3,,,,,,,,,,,165,9,3.2.2021,164.9596096
378,"['low', 2]",2,black,135,left,up,low,black_low_135_up,white_low_45_up,9,left,0.8890482,1,9,43,1,FALSE,13,1,1,1,TRUE,FALSE,low_2,0.75,-1,3,,,,,,,,,,,165,9,3.2.2021,164.9596096
379,"['low', 4]",4,white,45,left,down,low,white_low_45_down,black_low_135_down,5,left,0.1748485,1,5,39,0,TRUE,9,1,1,1,TRUE,FALSE,low_4,0.75,-1,3,,,,,,,,,,,165,9,3.2.2021,164.9596096
380,"['high', 6]",6,white,45,left,down,high,white_high_45_down,black_high_135_down,1,left,0.1540672,1,1,30,1,FALSE,10,1,1,1,TRUE,FALSE,high_6,0.75,-1,3,,,,,,,,,,,165,9,3.2.2021,164.9596096
381,"['low', 4]",4,white,45,left,down,low,white_low_45_down,black_low_135_down,4,left,0.0237299,1,4,40,1,TRUE,10,1,1,1,TRUE,FALSE,low_4,0.75,-1,3,,,,,,,,,,,165,9,3.2.2021,164.9596096
382,"['low', 3]",3,white,45,left,down,low,white_low_45_down,black_low_135_down,12,left,0.3554137,1,12,36,0,TRUE,15,1,1,1,TRUE,FALSE,low_3,0.75,-1,3,,,,,,,,,,,165,9,3.2.2021,164.9596096
383,"['low', 4]",4,black,135,left,up,low,black_low_135_up,white_low_45_up,3,left,0.0585389,1,3,41,1,FALSE,10,1,1,1,TRUE,FALSE,low_4,0.75,-1,3,,,,,,,,,,,165,9,3.2.2021,164.9596096
384,"['low', 1]",1,black,45,right,down,low,black_low_45_down,white_low_135_down,11,left,0.0705392,0,11,45,0,TRUE,15,1,1,1,TRUE,FALSE,low_1,0.75,-1,3,,,,,,,,,,,165,9,3.2.2021,164.9596096
385,"['low', 2]",2,white,45,left,down,low,white_low_45_down,black_low_135_down,8,right,0.509066,0,8,44,1,FALSE,13,1,1,1,TRUE,FALSE,low_2,0.75,-1,3,,,,,,,,,,,165,9,3.2.2021,164.9596096
386,"['high', 3]",3,black,45,right,down,high,black_high_45_down,white_high_135_down,13,left,0.3757795,0,13,35,0,TRUE,14,1,1,1,TRUE,FALSE,high_3,0.75,-1,3,,,,,,,,,,,165,9,3.2.2021,164.9596096
387,"['low', 4]",4,black,45,right,up,low,black_low_45_up,white_low_135_up,2,right,0.5238181,1,2,42,1,FALSE,10,1,1,1,TRUE,FALSE,low_4,0.75,-1,3,,,,,,,,,,,165,9,3.2.2021,164.9596096
388,"['high', 6]",6,white,45,left,up,high,white_high_45_up,black_high_135_up,1,right,0.310777,0,1,31,1,FALSE,10,1,1,1,TRUE,FALSE,high_6,0.75,-1,3,,,,,,,,,,,165,9,3.2.2021,164.9596096
389,"['high', 1]",1,black,135,left,up,high,black_high_135_up,white_high_45_up,19,right,0.2481142,0,19,33,1,FALSE,15,1,1,1,TRUE,FALSE,high_1,0.75,-1,3,,,,,,,,,,,165,9,3.2.2021,164.9596096
390,"['high', 6]",6,white,135,right,down,high,white_high_135_down,black_high_45_down,4,right,0.2847788,1,4,32,0,TRUE,11,1,1,1,TRUE,FALSE,high_6,0.75,-1,3,,,,,,,,,,,165,9,3.2.2021,164.9596096
391,"['low', 3]",3,white,135,right,down,low,white_low_135_down,black_low_45_down,11,right,0.3115731,1,11,37,1,TRUE,16,1,1,1,TRUE,FALSE,low_3,0.75,-1,3,,,,,,,,,,,165,9,3.2.2021,164.9596096
392,"['low', 6]",6,white,45,left,up,low,white_low_45_up,black_low_135_up,4,left,0.4608943,1,4,43,0,TRUE,11,1,1,1,TRUE,FALSE,low_6,0.75,-1,3,,,,,,,,,,,165,9,3.2.2021,164.9596096
393,"['high', 3]",3,white,135,right,up,high,white_high_135_up,black_high_45_up,16,left,0.5553854,0,16,36,0,FALSE,14,1,1,1,TRUE,FALSE,high_3,0.75,-1,3,,,,,,,,,,,165,9,3.2.2021,164.9596096
394,"['high', 1]",1,black,45,right,down,high,black_high_45_down,white_high_135_down,22,left,0.0758938,0,22,34,0,TRUE,16,1,1,1,TRUE,FALSE,high_1,0.75,-1,3,,,,,,,,,,,165,9,3.2.2021,164.9596096
395,"['low', 2]",2,black,45,right,down,low,black_low_45_down,white_low_135_down,11,left,0.4079423,0,11,45,0,TRUE,14,1,1,1,TRUE,FALSE,low_2,0.75,-1,3,,,,,,,,,,,165,9,3.2.2021,164.9596096
396,"['low', 3]",3,black,135,left,down,low,black_low_135_down,white_low_45_down,10,left,0.4100072,1,10,38,1,FALSE,16,1,1,1,TRUE,FALSE,low_3,0.75,-1,3,,,,,,,,,,,165,9,3.2.2021,164.9596096
397,"['high', 2]",2,white,135,right,up,high,white_high_135_up,black_high_45_up,23,right,0.5418533,1,23,37,1,TRUE,15,1,1,1,TRUE,FALSE,high_2,0.75,-1,3,,,,,,,,,,,165,9,3.2.2021,164.9596096
398,"['low', 6]",6,white,135,right,up,low,white_low_135_up,black_low_45_up,3,right,0.7623692,1,3,44,1,TRUE,12,1,1,1,TRUE,FALSE,low_6,0.75,-1,3,,,,,,,,,,,165,9,3.2.2021,164.9596096
399,"['high', 1]",1,white,45,left,down,high,white_high_45_down,black_high_135_down,25,left,0.2052727,1,25,35,0,FALSE,16,1,1,1,TRUE,FALSE,high_1,0.75,-1,3,,,,,,,,,,,165,9,3.2.2021,164.9596096
400,"['high', 1]",1,white,45,left,down,high,white_high_45_down,black_high_135_down,24,left,0.1781751,1,24,36,1,TRUE,17,1,1,1,TRUE,FALSE,high_1,0.75,-1,3,,,,,,,,,,,165,9,3.2.2021,164.9596096
401,"['high', 2]",2,white,45,left,up,high,white_high_45_up,black_high_135_up,22,left,0.2807945,1,22,38,1,FALSE,15,1,1,1,TRUE,FALSE,high_2,0.75,-1,3,,,,,,,,,,,165,9,3.2.2021,164.9596096
402,"['low', 2]",2,white,45,left,up,low,white_low_45_up,black_low_135_up,14,left,0.3291316,1,14,46,0,FALSE,14,1,1,1,TRUE,FALSE,low_2,0.75,-1,3,,,,,,,,,,,165,9,3.2.2021,164.9596096
403,"['low', 2]",2,black,135,left,down,low,black_low_135_down,white_low_45_down,13,left,0.2947996,1,13,47,1,TRUE,15,1,1,1,TRUE,FALSE,low_2,0.75,-1,3,,,,,,,,,,,165,9,3.2.2021,164.9596096
404,"['high', 6]",6,black,135,left,down,high,black_high_135_down,white_high_45_down,3,left,0.0899786,1,3,33,1,TRUE,12,1,1,1,TRUE,FALSE,high_6,0.75,-1,3,,,,,,,,,,,165,9,3.2.2021,164.9596096
405,"['low', 3]",3,black,45,right,down,low,black_low_45_down,white_low_135_down,9,right,0.2221398,1,9,39,1,FALSE,16,1,1,1,TRUE,FALSE,low_3,0.75,-1,3,,,,,,,,,,,165,9,3.2.2021,164.9596096
406,"['high', 4]",4,black,135,left,up,high,black_high_135_up,white_high_45_up,11,left,0.2208605,1,11,37,1,FALSE,17,1,1,1,TRUE,FALSE,high_4,0.75,-1,3,,,,,,,,,,,165,9,3.2.2021,164.9596096
407,"['low', 2]",2,white,45,left,up,low,white_low_45_up,black_low_135_up,12,left,0.5398407,1,12,48,1,FALSE,15,1,1,1,TRUE,FALSE,low_2,0.75,-1,3,,,,,,,,,,,165,9,3.2.2021,164.9596096
408,"['low', 1]",1,black,45,right,up,low,black_low_45_up,white_low_135_up,14,right,0.0153494,1,14,46,0,FALSE,15,1,1,1,TRUE,FALSE,low_1,0.75,-1,3,,,,,,,,,,,165,9,3.2.2021,164.9596096
409,"['high', 3]",3,black,135,left,down,high,black_high_135_down,white_high_45_down,19,right,0.5592137,0,19,37,0,FALSE,14,1,1,1,TRUE,FALSE,high_3,0.75,-1,3,,,,,,,,,,,165,9,3.2.2021,164.9596096
410,"['high', 1]",1,white,135,right,down,high,white_high_135_down,black_high_45_down,23,right,0.1827252,1,23,37,1,FALSE,17,1,1,1,TRUE,FALSE,high_1,0.75,-1,3,,,,,,,,,,,165,9,3.2.2021,164.9596096
411,"['low', 6]",6,black,45,right,up,low,black_low_45_up,white_low_135_up,2,right,0.1527674,1,2,45,1,FALSE,12,1,1,1,TRUE,FALSE,low_6,0.75,-1,3,,,,,,,,,,,165,9,3.2.2021,164.9596096
412,"['low', 1]",1,black,45,right,up,low,black_low_45_up,white_low_135_up,13,left,0.0402221,0,13,47,1,TRUE,16,1,1,1,TRUE,FALSE,low_1,0.75,-1,3,,,,,,,,,,,165,9,3.2.2021,164.9596096
413,"['low', 2]",2,black,45,right,down,low,black_low_45_down,white_low_135_down,11,right,0.0102548,1,11,49,1,FALSE,15,1,1,1,TRUE,FALSE,low_2,0.75,-1,3,,,,,,,,,,,165,9,3.2.2021,164.9596096
414,"['low', 4]",4,black,135,left,down,low,black_low_135_down,white_low_45_down,1,left,0.6609915,1,1,43,1,FALSE,10,1,1,1,TRUE,FALSE,low_4,0.75,-1,3,,,,,,,,,,,165,9,3.2.2021,164.9596096
415,"['low', 4]",4,white,135,right,up,low,white_low_135_up,black_low_45_up,1,right,0.2559765,1,1,44,1,FALSE,10,1,1,1,TRUE,FALSE,low_4,0.75,-1,3,,,,,,,,,,,165,9,3.2.2021,164.9596096
416,"['high', 1]",1,white,135,right,up,high,white_high_135_up,black_high_45_up,22,right,0.1277347,1,22,38,1,FALSE,17,1,1,1,TRUE,FALSE,high_1,0.75,-1,3,,,,,,,,,,,165,9,3.2.2021,164.9596096
417,"['high', 3]",3,white,45,left,down,high,white_high_45_down,black_high_135_down,22,left,0.2021047,1,22,38,0,FALSE,14,1,1,1,TRUE,FALSE,high_3,0.75,-1,3,,,,,,,,,,,165,9,3.2.2021,164.9596096
418,"['low', 3]",3,white,135,right,down,low,white_low_135_down,black_low_45_down,8,right,0.4348216,1,8,40,1,FALSE,16,1,1,1,TRUE,FALSE,low_3,0.75,-1,3,,,,,,,,,,,165,9,3.2.2021,164.9596096
419,"['low', 6]",6,black,45,right,up,low,black_low_45_up,white_low_135_up,1,right,0.013322,1,1,46,1,FALSE,12,1,1,1,TRUE,FALSE,low_6,0.75,-1,3,,,,,,,,,,,165,9,3.2.2021,164.9596096
420,"['high', 4]",4,white,45,left,up,high,white_high_45_up,black_high_135_up,10,left,0.589152,1,10,38,1,FALSE,17,1,1,1,TRUE,FALSE,high_4,0.75,-1,3,,,,,,,,,,,165,9,3.2.2021,164.9596096
421,"['low', 3]",3,black,45,right,up,low,black_low_45_up,white_low_135_up,7,right,0.0678859,1,7,41,1,FALSE,16,1,1,1,TRUE,FALSE,low_3,0.75,-1,3,,,,,,,,,,,165,9,3.2.2021,164.9596096
422,"['low', 3]",3,black,135,left,up,low,black_low_135_up,white_low_45_up,6,left,0.0449307,1,6,42,1,FALSE,16,1,1,1,TRUE,FALSE,low_3,0.75,-1,3,,,,,,,,,,,165,9,3.2.2021,164.9596096
423,"['high', 3]",3,black,135,left,down,high,black_high_135_down,white_high_45_down,21,right,0.2134716,0,21,39,1,TRUE,15,1,1,1,TRUE,FALSE,high_3,0.75,-1,3,,,,,,,,,,,165,9,3.2.2021,164.9596096
424,"['low', 2]",2,black,45,right,up,low,black_low_45_up,white_low_135_up,10,left,0.3704037,0,10,50,1,FALSE,15,1,1,1,TRUE,FALSE,low_2,0.75,-1,3,,,,,,,,,,,165,9,3.2.2021,164.9596096
425,"['low', 3]",3,black,135,left,down,low,black_low_135_down,white_low_45_down,5,left,0.3471861,1,5,43,1,FALSE,16,1,1,1,TRUE,FALSE,low_3,0.75,-1,3,,,,,,,,,,,165,9,3.2.2021,164.9596096
426,"['high', 1]",1,white,135,right,up,high,white_high_135_up,black_high_45_up,21,right,0.1703678,1,21,39,1,FALSE,17,1,1,1,TRUE,FALSE,high_1,0.75,-1,3,,,,,,,,,,,165,9,3.2.2021,164.9596096
427,"['low', 6]",6,black,135,left,up,low,black_low_135_up,white_low_45_up,1,left,0.1233289,1,1,47,1,FALSE,12,1,1,1,TRUE,FALSE,low_6,0.75,-1,3,,,,,,,,,,,165,9,3.2.2021,164.9596096
428,"['high', 4]",4,black,135,left,down,high,black_high_135_down,white_high_45_down,9,left,0.2008517,1,9,39,1,FALSE,17,1,1,1,TRUE,FALSE,high_4,0.75,-1,3,,,,,,,,,,,165,9,3.2.2021,164.9596096
429,"['low', 4]",4,white,135,right,up,low,white_low_135_up,black_low_45_up,1,left,1.7899379,0,1,45,1,FALSE,10,1,1,1,TRUE,FALSE,low_4,0.75,-1,3,,,,,,,,,,,165,9,3.2.2021,164.9596096
430,"['high', 1]",1,black,45,right,up,high,black_high_45_up,white_high_135_up,20,right,0.2193091,1,20,40,1,FALSE,17,1,1,1,TRUE,FALSE,high_1,0.75,-1,3,,,,,,,,,,,165,9,3.2.2021,164.9596096
431,"['low', 2]",2,white,135,right,up,low,white_low_135_up,black_low_45_up,13,left,0.449851,0,13,51,0,TRUE,16,1,1,1,TRUE,FALSE,low_2,0.75,-1,3,,,,,,,,,,,165,9,3.2.2021,164.9596096
432,"['low', 2]",2,black,135,left,up,low,black_low_135_up,white_low_45_up,16,left,3.3748427,1,16,52,0,FALSE,16,1,1,1,TRUE,FALSE,low_2,0.75,-1,3,,,,,,,,,,,165,9,3.2.2021,164.9596096
433,"['low', 6]",6,white,135,right,down,low,white_low_135_down,black_low_45_down,1,left,0.3647324,0,1,48,1,FALSE,12,1,1,1,TRUE,FALSE,low_6,0.75,-1,3,,,,,,,,,,,165,9,3.2.2021,164.9596096
434,"['high', 2]",2,black,45,right,up,high,black_high_45_up,white_high_135_up,21,left,0.3247194,0,21,39,1,FALSE,15,1,1,1,TRUE,FALSE,high_2,0.75,-1,3,,,,,,,,,,,165,9,3.2.2021,164.9596096
435,"['high', 6]",6,black,135,left,down,high,black_high_135_down,white_high_45_down,2,left,0.3273342,1,2,34,1,FALSE,12,1,1,1,TRUE,FALSE,high_6,0.75,-1,3,,,,,,,,,,,165,9,3.2.2021,164.9596096
436,"['high', 1]",1,white,45,left,up,high,white_high_45_up,black_high_135_up,19,left,0.1490223,1,19,41,1,FALSE,17,1,1,1,TRUE,FALSE,high_1,0.75,-1,3,,,,,,,,,,,165,9,3.2.2021,164.9596096
437,"['low', 3]",3,white,135,right,up,low,white_low_135_up,black_low_45_up,4,right,0.1766528,1,4,44,1,FALSE,16,1,1,1,TRUE,FALSE,low_3,0.75,-1,3,,,,,,,,,,,165,9,3.2.2021,164.9596096
438,"['low', 6]",6,black,135,left,down,low,black_low_135_down,white_low_45_down,4,left,0.1175589,1,4,49,0,TRUE,13,1,1,1,TRUE,FALSE,low_6,0.75,-1,3,,,,,,,,,,,165,9,3.2.2021,164.9596096
439,"['high', 6]",6,white,45,left,up,high,white_high_45_up,black_high_135_up,1,left,0.1898569,1,1,35,1,FALSE,12,1,1,1,TRUE,FALSE,high_6,0.75,-1,3,,,,,,,,,,,165,9,3.2.2021,164.9596096
440,"['high', 1]",1,black,135,left,down,high,black_high_135_down,white_high_45_down,18,left,0.0752169,1,18,42,1,FALSE,17,1,1,1,TRUE,FALSE,high_1,0.75,-1,3,,,,,,,,,,,165,9,3.2.2021,164.9596096
441,"['low', 3]",3,white,45,left,down,low,white_low_45_down,black_low_135_down,3,left,0.2792051,1,3,45,1,FALSE,16,1,1,1,TRUE,FALSE,low_3,0.75,-1,3,,,,,,,,,,,165,9,3.2.2021,164.9596096
442,"['low', 3]",3,black,45,right,up,low,black_low_45_up,white_low_135_up,2,right,0.0457347,1,2,46,1,FALSE,16,1,1,1,TRUE,FALSE,low_3,0.75,-1,3,,,,,,,,,,,165,9,3.2.2021,164.9596096
443,"['low', 1]",1,white,135,right,up,low,white_low_135_up,black_low_45_up,16,right,0.0840183,1,16,48,0,TRUE,17,1,1,1,TRUE,FALSE,low_1,0.75,-1,3,,,,,,,,,,,165,9,3.2.2021,164.9596096
444,"['low', 6]",6,white,45,left,down,low,white_low_45_down,black_low_135_down,3,left,0.3362138,1,3,50,1,TRUE,14,1,1,1,TRUE,FALSE,low_6,0.75,-1,3,,,,,,,,,,,165,9,3.2.2021,164.9596096
445,"['high', 3]",3,white,135,right,up,high,white_high_135_up,black_high_45_up,24,right,0.1765736,1,24,40,0,TRUE,16,1,1,1,TRUE,FALSE,high_3,0.75,-1,3,,,,,,,,,,,165,9,3.2.2021,164.9596096
446,"['high', 6]",6,black,45,right,down,high,black_high_45_down,white_high_135_down,1,left,0.1932345,0,1,36,1,FALSE,12,1,1,1,TRUE,FALSE,high_6,0.75,-1,3,,,,,,,,,,,165,9,3.2.2021,164.9596096
447,"['high', 6]",6,black,135,left,down,high,black_high_135_down,white_high_45_down,4,left,0.1391224,1,4,37,0,TRUE,13,1,1,1,TRUE,FALSE,high_6,0.75,-1,3,,,,,,,,,,,165,9,3.2.2021,164.9596096
448,"['high', 4]",4,black,135,left,up,high,black_high_135_up,white_high_45_up,8,right,0.2299701,0,8,40,1,FALSE,17,1,1,1,TRUE,FALSE,high_4,0.75,-1,3,,,,,,,,,,,165,9,3.2.2021,164.9596096
449,"['low', 3]",3,white,45,left,down,low,white_low_45_down,black_low_135_down,1,left,0.11802,1,1,47,1,FALSE,16,1,1,1,TRUE,FALSE,low_3,0.75,-1,3,,,,,,,,,,,165,9,3.2.2021,164.9596096
450,"['low', 3]",3,black,135,left,down,low,black_low_135_down,white_low_45_down,1,left,0.069212,1,1,48,1,FALSE,16,1,1,1,TRUE,FALSE,low_3,0.75,-1,3,,,,,,,,,,,165,9,3.2.2021,164.9596096
451,"['high', 4]",4,white,135,right,up,high,white_high_135_up,black_high_45_up,11,right,0.1959652,1,11,41,0,TRUE,18,1,1,1,TRUE,FALSE,high_4,0.75,-1,3,,,,,,,,,,,165,9,3.2.2021,164.9596096
452,"['high', 2]",2,white,45,left,down,high,white_high_45_down,black_high_135_down,24,left,0.1996679,1,24,40,0,TRUE,16,1,1,1,TRUE,FALSE,high_2,0.75,-1,3,,,,,,,,,,,165,9,3.2.2021,164.9596096
453,"['high', 6]",6,black,45,right,up,high,black_high_45_up,white_high_135_up,3,right,0.0083775,1,3,38,1,TRUE,14,1,1,1,TRUE,FALSE,high_6,0.75,-1,3,,,,,,,,,,,165,9,3.2.2021,164.9596096
454,"['low', 4]",4,white,135,right,down,low,white_low_135_down,black_low_45_down,4,right,0.3258567,1,4,46,0,TRUE,11,1,1,1,TRUE,FALSE,low_4,0.75,-1,3,,,,,,,,,,,165,9,3.2.2021,164.9596096
455,"['high', 1]",1,white,45,left,up,high,white_high_45_up,black_high_135_up,17,left,0.0374185,1,17,43,1,FALSE,17,1,1,1,TRUE,FALSE,high_1,0.75,-1,3,,,,,,,,,,,165,9,3.2.2021,164.9596096
456,"['low', 6]",6,white,45,left,up,low,white_low_45_up,black_low_135_up,2,left,0.1169606,1,2,51,1,FALSE,14,1,1,1,TRUE,FALSE,low_6,0.75,-1,3,,,,,,,,,,,165,9,3.2.2021,164.9596096
457,"['low', 1]",1,black,135,left,up,low,black_low_135_up,white_low_45_up,15,right,0.3117745,0,15,49,1,TRUE,18,1,1,1,TRUE,FALSE,low_1,0.75,-1,3,,,,,,,,,,,165,9,3.2.2021,164.9596096
458,"['high', 6]",6,white,45,left,up,high,white_high_45_up,black_high_135_up,2,right,0.0488105,0,2,39,1,FALSE,14,1,1,1,TRUE,FALSE,high_6,0.75,-1,3,,,,,,,,,,,165,9,3.2.2021,164.9596096
459,"['high', 4]",4,white,45,left,down,high,white_high_45_down,black_high_135_down,10,left,0.5502651,1,10,42,1,TRUE,19,1,1,1,TRUE,FALSE,high_4,0.75,-1,3,,,,,,,,,,,165,9,3.2.2021,164.9596096
460,"['low', 2]",2,white,45,left,up,low,white_low_45_up,black_low_135_up,15,left,0.2096491,1,15,53,1,TRUE,17,1,1,1,TRUE,FALSE,low_2,0.75,-1,3,,,,,,,,,,,165,9,3.2.2021,164.9596096
461,"['low', 4]",4,black,135,left,down,low,black_low_135_down,white_low_45_down,3,left,0.1616708,1,3,47,1,TRUE,12,1,1,1,TRUE,FALSE,low_4,0.75,-1,3,,,,,,,,,,,165,9,3.2.2021,164.9596096
462,"['high', 3]",3,white,135,right,up,high,white_high_135_up,black_high_45_up,23,right,0.5275452,1,23,41,1,TRUE,17,1,1,1,TRUE,FALSE,high_3,0.75,-1,3,,,,,,,,,,,165,9,3.2.2021,164.9596096
463,"['high', 3]",3,black,135,left,up,high,black_high_135_up,white_high_45_up,22,left,0.2032303,1,22,42,1,FALSE,17,1,1,1,TRUE,FALSE,high_3,0.75,-1,3,,,,,,,,,,,165,9,3.2.2021,164.9596096
464,"['low', 3]",3,black,45,right,up,low,black_low_45_up,white_low_135_up,1,right,0.2831943,1,1,49,1,FALSE,16,1,1,1,TRUE,FALSE,low_3,0.75,-1,3,,,,,,,,,,,165,9,3.2.2021,164.9596096
465,"['high', 6]",6,black,135,left,down,high,black_high_135_down,white_high_45_down,5,left,0.3179552,1,5,40,0,TRUE,15,1,1,1,TRUE,FALSE,high_6,0.75,-1,3,,,,,,,,,,,165,9,3.2.2021,164.9596096
466,"['high', 3]",3,black,135,left,down,high,black_high_135_down,white_high_45_down,21,right,0.1341505,0,21,43,1,FALSE,17,1,1,1,TRUE,FALSE,high_3,0.75,-1,3,,,,,,,,,,,165,9,3.2.2021,164.9596096
467,"['low', 1]",1,white,45,left,up,low,white_low_45_up,black_low_135_up,18,left,0.0800661,1,18,50,0,TRUE,19,1,1,1,TRUE,FALSE,low_1,0.75,-1,3,,,,,,,,,,,165,9,3.2.2021,164.9596096
468,"['high', 3]",3,white,135,right,down,high,white_high_135_down,black_high_45_down,24,right,0.2054551,1,24,44,0,TRUE,18,1,1,1,TRUE,FALSE,high_3,0.75,-1,3,,,,,,,,,,,165,9,3.2.2021,164.9596096
469,"['high', 6]",6,black,45,right,down,high,black_high_45_down,white_high_135_down,4,left,0.1116884,0,4,41,1,TRUE,16,1,1,1,TRUE,FALSE,high_6,0.75,-1,3,,,,,,,,,,,165,9,3.2.2021,164.9596096
470,"['low', 3]",3,black,135,left,up,low,black_low_135_up,white_low_45_up,1,left,0.1842001,1,1,50,1,FALSE,16,1,1,1,TRUE,FALSE,low_3,0.75,-1,3,,,,,,,,,,,165,9,3.2.2021,164.9596096
471,"['high', 3]",3,white,135,right,up,high,white_high_135_up,black_high_45_up,23,right,0.1783985,1,23,45,1,TRUE,19,1,1,1,TRUE,FALSE,high_3,0.75,-1,3,,,,,,,,,,,165,9,3.2.2021,164.9596096
472,"['high', 6]",6,black,135,left,down,high,black_high_135_down,white_high_45_down,7,left,0.132692,1,7,42,0,TRUE,17,1,1,1,TRUE,FALSE,high_6,0.75,-1,3,,,,,,,,,,,165,9,3.2.2021,164.9596096
473,"['high', 1]",1,white,135,right,up,high,white_high_135_up,black_high_45_up,16,right,0.0207635,1,16,44,1,FALSE,17,1,1,1,TRUE,FALSE,high_1,0.75,-1,3,,,,,,,,,,,165,9,3.2.2021,164.9596096
474,"['high', 4]",4,white,45,left,up,high,white_high_45_up,black_high_135_up,9,left,0.2196725,1,9,43,1,FALSE,19,1,1,1,TRUE,FALSE,high_4,0.75,-1,3,,,,,,,,,,,165,9,3.2.2021,164.9596096
475,"['low', 1]",1,black,45,right,down,low,black_low_45_down,white_low_135_down,17,left,0.1606586,0,17,51,1,TRUE,20,1,1,1,TRUE,FALSE,low_1,0.75,-1,3,,,,,,,,,,,165,9,3.2.2021,164.9596096
476,"['low', 4]",4,black,45,right,down,low,black_low_45_down,white_low_135_down,2,right,0.2441767,1,2,48,1,FALSE,12,1,1,1,TRUE,FALSE,low_4,0.75,-1,3,,,,,,,,,,,165,9,3.2.2021,164.9596096
477,"['high', 2]",2,black,135,left,down,high,black_high_135_down,white_high_45_down,23,left,0.2449116,1,23,41,1,TRUE,17,1,1,1,TRUE,FALSE,high_2,0.75,-1,3,,,,,,,,,,,165,9,3.2.2021,164.9596096
478,"['high', 3]",3,black,45,right,down,high,black_high_45_down,white_high_135_down,22,right,0.2876152,1,22,46,1,FALSE,19,1,1,1,TRUE,FALSE,high_3,0.75,-1,3,,,,,,,,,,,165,9,3.2.2021,164.9596096
479,"['low', 3]",3,white,135,right,up,low,white_low_135_up,black_low_45_up,1,left,0.0417093,0,1,51,1,FALSE,16,1,1,1,TRUE,FALSE,low_3,0.75,-1,3,,,,,,,,,,,165,9,3.2.2021,164.9596096
480,"['high', 2]",2,white,135,right,down,high,white_high_135_down,black_high_45_down,22,right,0.078147,1,22,42,1,FALSE,17,1,1,1,TRUE,FALSE,high_2,0.75,-1,3,,,,,,,,,,,165,9,3.2.2021,164.9596096
481,"['high', 6]",6,white,45,left,down,high,white_high_45_down,black_high_135_down,6,left,0.1243205,1,6,43,1,TRUE,18,1,1,1,TRUE,FALSE,high_6,0.75,-1,3,,,,,,,,,,,165,9,3.2.2021,164.9596096
482,"['high', 4]",4,white,135,right,up,high,white_high_135_up,black_high_45_up,8,right,0.2531156,1,8,44,1,FALSE,19,1,1,1,TRUE,FALSE,high_4,0.75,-1,3,,,,,,,,,,,165,9,3.2.2021,164.9596096
483,"['high', 1]",1,black,45,right,down,high,black_high_45_down,white_high_135_down,15,left,0.0253369,0,15,45,1,FALSE,17,1,1,1,TRUE,FALSE,high_1,0.75,-1,3,,,,,,,,,,,165,9,3.2.2021,164.9596096
484,"['high', 6]",6,black,135,left,down,high,black_high_135_down,white_high_45_down,5,left,0.094278,1,5,44,1,FALSE,18,1,1,1,TRUE,FALSE,high_6,0.75,-1,3,,,,,,,,,,,165,9,3.2.2021,164.9596096
485,"['high', 1]",1,black,135,left,up,high,black_high_135_up,white_high_45_up,18,right,0.1599533,0,18,46,0,TRUE,18,1,1,1,TRUE,FALSE,high_1,0.75,-1,3,,,,,,,,,,,165,9,3.2.2021,164.9596096
486,"['low', 2]",2,white,45,left,up,low,white_low_45_up,black_low_135_up,14,left,0.2363432,1,14,54,1,FALSE,17,1,1,1,TRUE,FALSE,low_2,0.75,-1,3,,,,,,,,,,,165,9,3.2.2021,164.9596096
487,"['high', 6]",6,white,135,right,up,high,white_high_135_up,black_high_45_up,4,left,0.0825784,0,4,45,1,FALSE,18,1,1,1,TRUE,FALSE,high_6,0.75,-1,3,,,,,,,,,,,165,9,3.2.2021,164.9596096
488,"['low', 1]",1,black,135,left,down,low,black_low_135_down,white_low_45_down,20,right,0.0407817,0,20,52,0,TRUE,21,1,1,1,TRUE,FALSE,low_1,0.75,-1,3,,,,,,,,,,,165,9,3.2.2021,164.9596096
489,"['low', 3]",3,white,135,right,down,low,white_low_135_down,black_low_45_down,4,right,0.0127756,1,4,52,0,TRUE,17,1,1,1,TRUE,FALSE,low_3,0.75,-1,3,,,,,,,,,,,165,9,3.2.2021,164.9596096
490,"['low', 3]",3,black,135,left,down,low,black_low_135_down,white_low_45_down,3,left,0.2974394,1,3,53,1,TRUE,18,1,1,1,TRUE,FALSE,low_3,0.75,-1,3,,,,,,,,,,,165,9,3.2.2021,164.9596096
491,"['low', 3]",3,white,45,left,down,low,white_low_45_down,black_low_135_down,2,left,0.0231382,1,2,54,1,FALSE,18,1,1,1,TRUE,FALSE,low_3,0.75,-1,3,,,,,,,,,,,165,9,3.2.2021,164.9596096
492,"['low', 1]",1,black,45,right,up,low,black_low_45_up,white_low_135_up,23,right,0.1310563,1,23,53,0,FALSE,21,1,1,1,TRUE,FALSE,low_1,0.75,-1,3,,,,,,,,,,,165,9,3.2.2021,164.9596096
493,"['high', 2]",2,black,45,right,down,high,black_high_45_down,white_high_135_down,21,left,0.1063434,0,21,43,1,FALSE,17,1,1,1,TRUE,FALSE,high_2,0.75,-1,3,,,,,,,,,,,165,9,3.2.2021,164.9596096
494,"['high', 2]",2,white,135,right,down,high,white_high_135_down,black_high_45_down,24,right,0.2296115,1,24,44,0,TRUE,18,1,1,1,TRUE,FALSE,high_2,0.75,-1,3,,,,,,,,,,,165,9,3.2.2021,164.9596096
495,"['high', 3]",3,white,135,right,up,high,white_high_135_up,black_high_45_up,21,right,0.1953166,1,21,47,1,FALSE,19,1,1,1,TRUE,FALSE,high_3,0.75,-1,3,,,,,,,,,,,165,9,3.2.2021,164.9596096
496,"['high', 3]",3,black,45,right,up,high,black_high_45_up,white_high_135_up,20,left,0.2386154,0,20,48,1,FALSE,19,1,1,1,TRUE,FALSE,high_3,0.75,-1,3,,,,,,,,,,,165,9,3.2.2021,164.9596096
497,"['high', 2]",2,white,135,right,up,high,white_high_135_up,black_high_45_up,23,right,0.2191484,1,23,45,1,TRUE,19,1,1,1,TRUE,FALSE,high_2,0.75,-1,3,,,,,,,,,,,165,9,3.2.2021,164.9596096
498,"['high', 1]",1,black,135,left,down,high,black_high_135_down,white_high_45_down,21,left,0.1668933,1,21,47,0,FALSE,18,1,1,1,TRUE,FALSE,high_1,0.75,-1,3,,,,,,,,,,,165,9,3.2.2021,164.9596096
499,"['high', 6]",6,black,135,left,up,high,black_high_135_up,white_high_45_up,7,left,0.1734315,1,7,46,0,TRUE,19,1,1,1,TRUE,FALSE,high_6,0.75,-1,3,,,,,,,,,,,165,9,3.2.2021,164.9596096
500,"['low', 1]",1,black,45,right,down,low,black_low_45_down,white_low_135_down,22,left,0.2084128,0,22,54,1,TRUE,22,1,1,1,TRUE,FALSE,low_1,0.75,-1,3,,,,,,,,,,,165,9,3.2.2021,164.9596096
501,"['high', 1]",1,white,135,right,up,high,white_high_135_up,black_high_45_up,20,right,0.2101722,1,20,48,1,TRUE,19,1,1,1,TRUE,FALSE,high_1,0.75,-1,3,,,,,,,,,,,165,9,3.2.2021,164.9596096
502,"['low', 1]",1,black,45,right,up,low,black_low_45_up,white_low_135_up,25,right,0.4321227,1,25,55,0,TRUE,23,1,1,1,TRUE,FALSE,low_1,0.75,-1,3,,,,,,,,,,,165,9,3.2.2021,164.9596096
503,"['high', 2]",2,black,45,right,up,high,black_high_45_up,white_high_135_up,22,right,0.0425129,1,22,46,1,FALSE,19,1,1,1,TRUE,FALSE,high_2,0.75,-1,3,,,,,,,,,,,165,9,3.2.2021,164.9596096
504,"['low', 3]",3,black,135,left,down,low,black_low_135_down,white_low_45_down,1,left,0.3341344,1,1,55,1,FALSE,18,1,1,1,TRUE,FALSE,low_3,0.75,-1,3,,,,,,,,,,,165,9,3.2.2021,164.9596096
505,"['low', 3]",3,white,45,left,down,low,white_low_45_down,black_low_135_down,1,left,0.0814584,1,1,56,1,FALSE,18,1,1,1,TRUE,FALSE,low_3,0.75,-1,3,,,,,,,,,,,165,9,3.2.2021,164.9596096
506,"['low', 2]",2,white,45,left,down,low,white_low_45_down,black_low_135_down,13,left,0.2053232,1,13,55,1,FALSE,17,1,1,1,TRUE,FALSE,low_2,0.75,-1,3,,,,,,,,,,,165,9,3.2.2021,164.9596096
507,"['high', 1]",1,white,135,right,up,high,white_high_135_up,black_high_45_up,19,right,0.1893856,1,19,49,1,FALSE,19,1,1,1,TRUE,FALSE,high_1,0.75,-1,3,,,,,,,,,,,165,9,3.2.2021,164.9596096
508,"['low', 3]",3,white,45,left,down,low,white_low_45_down,black_low_135_down,1,left,0.0645515,1,1,57,1,FALSE,18,1,1,1,TRUE,FALSE,low_3,0.75,-1,3,,,,,,,,,,,165,9,3.2.2021,164.9596096
509,"['low', 3]",3,black,135,left,down,low,black_low_135_down,white_low_45_down,1,left,0.0300363,1,1,58,1,FALSE,18,1,1,1,TRUE,FALSE,low_3,0.75,-1,3,,,,,,,,,,,165,9,3.2.2021,164.9596096
510,"['high', 4]",4,black,135,left,down,high,black_high_135_down,white_high_45_down,7,right,0.046036,0,7,45,1,FALSE,19,1,1,1,TRUE,FALSE,high_4,0.75,-1,3,,,,,,,,,,,165,9,3.2.2021,164.9596096
511,"['low', 1]",1,white,45,left,down,low,white_low_45_down,black_low_135_down,24,left,0.2818606,1,24,56,1,TRUE,24,1,1,1,TRUE,FALSE,low_1,0.75,-1,3,,,,,,,,,,,165,9,3.2.2021,164.9596096
512,"['low', 2]",2,white,45,left,down,low,white_low_45_down,black_low_135_down,12,left,0.0798608,1,12,56,1,FALSE,17,1,1,1,TRUE,FALSE,low_2,0.75,-1,3,,,,,,,,,,,165,9,3.2.2021,164.9596096
513,"['high', 6]",6,black,135,left,down,high,black_high_135_down,white_high_45_down,6,left,0.1635194,1,6,47,1,TRUE,20,1,1,1,TRUE,FALSE,high_6,0.75,-1,3,,,,,,,,,,,165,9,3.2.2021,164.9596096
514,"['low', 6]",6,black,45,right,up,low,black_low_45_up,white_low_135_up,1,right,0.2507775,1,1,52,1,FALSE,14,1,1,1,TRUE,FALSE,low_6,0.75,-1,3,,,,,,,,,,,165,9,3.2.2021,164.9596096
515,"['low', 3]",3,black,135,left,down,low,black_low_135_down,white_low_45_down,1,left,0.1054096,1,1,59,1,FALSE,18,1,1,1,TRUE,FALSE,low_3,0.75,-1,3,,,,,,,,,,,165,9,3.2.2021,164.9596096
516,"['low', 3]",3,white,45,left,up,low,white_low_45_up,black_low_135_up,1,left,0.1948757,1,1,60,1,FALSE,18,1,1,1,TRUE,FALSE,low_3,0.75,-1,3,,,,,,,,,,,165,9,3.2.2021,164.9596096
517,"['high', 1]",1,black,135,left,down,high,black_high_135_down,white_high_45_down,18,right,0.0169337,0,18,50,1,FALSE,19,1,1,1,TRUE,FALSE,high_1,0.75,-1,3,,,,,,,,,,,165,9,3.2.2021,164.9596096
518,"['low', 6]",6,black,135,left,up,low,black_low_135_up,white_low_45_up,1,left,0.1191434,1,1,53,1,FALSE,14,1,1,1,TRUE,FALSE,low_6,0.75,-1,3,,,,,,,,,,,165,9,3.2.2021,164.9596096
519,"['high', 1]",1,black,135,left,down,high,black_high_135_down,white_high_45_down,21,right,0.052293,0,21,51,0,TRUE,20,1,1,1,TRUE,FALSE,high_1,0.75,-1,3,,,,,,,,,,,165,9,3.2.2021,164.9596096
520,"['low', 4]",4,black,135,left,down,low,black_low_135_down,white_low_45_down,1,left,0.3428011,1,1,49,1,FALSE,12,1,1,1,TRUE,FALSE,low_4,0.75,-1,3,,,,,,,,,,,165,9,3.2.2021,164.9596096
521,"['high', 4]",4,white,45,left,down,high,white_high_45_down,black_high_135_down,10,left,0.0844322,1,10,46,0,TRUE,20,1,1,1,TRUE,FALSE,high_4,0.75,-1,3,,,,,,,,,,,165,9,3.2.2021,164.9596096
522,"['high', 3]",3,black,135,left,up,high,black_high_135_up,white_high_45_up,23,left,0.1441042,1,23,49,0,TRUE,20,1,1,1,TRUE,FALSE,high_3,0.75,-1,3,,,,,,,,,,,165,9,3.2.2021,164.9596096
523,"['low', 6]",6,black,135,left,up,low,black_low_135_up,white_low_45_up,1,right,0.1462284,0,1,54,1,FALSE,14,1,1,1,TRUE,FALSE,low_6,0.75,-1,3,,,,,,,,,,,165,9,3.2.2021,164.9596096
524,"['high', 2]",2,black,135,left,down,high,black_high_135_down,white_high_45_down,21,left,0.038118,1,21,47,1,FALSE,19,1,1,1,TRUE,FALSE,high_2,0.75,-1,3,,,,,,,,,,,165,9,3.2.2021,164.9596096
525,"['high', 6]",6,black,45,right,down,high,black_high_45_down,white_high_135_down,5,right,0.5482789,1,5,48,1,FALSE,20,1,1,1,TRUE,FALSE,high_6,0.75,-1,3,,,,,,,,,,,165,9,3.2.2021,164.9596096
526,"['high', 2]",2,black,135,left,up,high,black_high_135_up,white_high_45_up,20,left,0.4810347,1,20,48,1,FALSE,19,1,1,1,TRUE,FALSE,high_2,0.75,-1,3,,,,,,,,,,,165,9,3.2.2021,164.9596096
527,"['high', 3]",3,black,135,left,down,high,black_high_135_down,white_high_45_down,22,left,0.1385635,1,22,50,1,TRUE,21,1,1,1,TRUE,FALSE,high_3,0.75,-1,3,,,,,,,,,,,165,9,3.2.2021,164.9596096
528,"['high', 3]",3,white,135,right,down,high,white_high_135_down,black_high_45_down,21,right,0.0367734,1,21,51,1,FALSE,21,1,1,1,TRUE,FALSE,high_3,0.75,-1,3,,,,,,,,,,,165,9,3.2.2021,164.9596096
529,"['high', 3]",3,black,45,right,up,high,black_high_45_up,white_high_135_up,20,left,0.2382499,0,20,52,1,FALSE,21,1,1,1,TRUE,FALSE,high_3,0.75,-1,3,,,,,,,,,,,165,9,3.2.2021,164.9596096
530,"['low', 6]",6,white,45,left,down,low,white_low_45_down,black_low_135_down,4,left,0.1441278,1,4,55,0,TRUE,15,1,1,1,TRUE,FALSE,low_6,0.75,-1,3,,,,,,,,,,,165,9,3.2.2021,164.9596096
531,"['high', 4]",4,black,135,left,down,high,black_high_135_down,white_high_45_down,9,right,0.2917969,0,9,47,1,TRUE,21,1,1,1,TRUE,FALSE,high_4,0.75,-1,3,,,,,,,,,,,165,9,3.2.2021,164.9596096
532,"['low', 6]",6,black,135,left,down,low,black_low_135_down,white_low_45_down,3,left,0.0825296,1,3,56,1,TRUE,16,1,1,1,TRUE,FALSE,low_6,0.75,-1,3,,,,,,,,,,,165,9,3.2.2021,164.9596096
533,"['high', 4]",4,black,135,left,up,high,black_high_135_up,white_high_45_up,12,left,0.1877914,1,12,48,0,TRUE,22,1,1,1,TRUE,FALSE,high_4,0.75,-1,3,,,,,,,,,,,165,9,3.2.2021,164.9596096
534,"['low', 1]",1,black,135,left,up,low,black_low_135_up,white_low_45_up,23,left,0.2256485,1,23,57,1,FALSE,24,1,1,1,TRUE,FALSE,low_1,0.75,-1,3,,,,,,,,,,,165,9,3.2.2021,164.9596096
