trial_number,trial_type,cycle_number,first_color,first_orientation,correct_response,visual_field,spatial_frequency,first_stim,second_stim,stimulus_frame_duration,answer,rt,accuracy,staircase_dv,staircase_trial_num,staircase_previous_correct,staircase_reversal,staircase_reversal_num,staircase_phase,staircase_step_size,staircase_powers_law,staircase_siam,staircase_over,staircase_name,staircase_conv_p,staircase_step_hit,staircase_step_miss,threshold_low1,threshold_low2,threshold_low3,threshold_low4,threshold_low6,threshold_high1,threshold_high2,threshold_high3,threshold_high4,threshold_high6,frame_rate,participant,psychopyVersion,frame_rate_detected
0,"['high', 3]",3,black,135,left,down,high,black_high_135_down,white_high_45_down,8,left,0.1658219,1,8,0,None,FALSE,0,0,1,1,TRUE,FALSE,high_3,0.75,-1,3,,,,,,,,,,,165,4,3.2.2021,164.9563443
1,"['high', 6]",6,white,135,right,down,high,white_high_135_down,black_high_45_down,8,left,0.9102721,0,8,0,None,FALSE,0,0,1,1,TRUE,FALSE,high_6,0.75,-1,3,,,,,,,,,,,165,4,3.2.2021,164.9563443
2,"['low', 4]",4,white,135,right,down,low,white_low_135_down,black_low_45_down,4,right,0.1611184,1,4,0,None,FALSE,0,0,1,1,TRUE,FALSE,low_4,0.75,-1,3,,,,,,,,,,,165,4,3.2.2021,164.9563443
3,"['high', 4]",4,black,135,left,up,high,black_high_135_up,white_high_45_up,8,left,1.3635102,1,8,0,None,FALSE,0,0,1,1,TRUE,FALSE,high_4,0.75,-1,3,,,,,,,,,,,165,4,3.2.2021,164.9563443
4,"['low', 4]",4,black,45,right,down,low,black_low_45_down,white_low_135_down,3,right,0.4545986,1,3,1,1,FALSE,0,0,1,1,TRUE,FALSE,low_4,0.75,-1,3,,,,,,,,,,,165,4,3.2.2021,164.9563443
5,"['high', 2]",2,black,135,left,down,high,black_high_135_down,white_high_45_down,8,left,0.2392343,1,8,0,None,FALSE,0,0,1,1,TRUE,FALSE,high_2,0.75,-1,3,,,,,,,,,,,165,4,3.2.2021,164.9563443
6,"['low', 3]",3,black,45,right,down,low,black_low_45_down,white_low_135_down,4,left,0.2366148,0,4,0,None,FALSE,0,0,1,1,TRUE,FALSE,low_3,0.75,-1,3,,,,,,,,,,,165,4,3.2.2021,164.9563443
7,"['low', 2]",2,black,135,left,up,low,black_low_135_up,white_low_45_up,4,right,0.1594491,0,4,0,None,FALSE,0,0,1,1,TRUE,FALSE,low_2,0.75,-1,3,,,,,,,,,,,165,4,3.2.2021,164.9563443
8,"['low', 1]",1,white,135,right,down,low,white_low_135_down,black_low_45_down,8,right,0.1359641,1,8,0,None,FALSE,0,0,1,1,TRUE,FALSE,low_1,0.75,-1,3,,,,,,,,,,,165,4,3.2.2021,164.9563443
9,"['low', 2]",2,black,45,right,up,low,black_low_45_up,white_low_135_up,7,left,0.0940947,0,7,1,0,FALSE,0,0,1,1,TRUE,FALSE,low_2,0.75,-1,3,,,,,,,,,,,165,4,3.2.2021,164.9563443
10,"['low', 2]",2,black,135,left,up,low,black_low_135_up,white_low_45_up,10,left,0.8657884,1,10,2,0,FALSE,0,0,1,1,TRUE,FALSE,low_2,0.75,-1,3,,,,,,,,,,,165,4,3.2.2021,164.9563443
11,"['high', 4]",4,black,45,right,up,high,black_high_45_up,white_high_135_up,7,left,0.1562095,0,7,1,1,FALSE,0,0,1,1,TRUE,FALSE,high_4,0.75,-1,3,,,,,,,,,,,165,4,3.2.2021,164.9563443
12,"['low', 1]",1,black,45,right,down,low,black_low_45_down,white_low_135_down,7,left,0.1545062,0,7,1,1,FALSE,0,0,1,1,TRUE,FALSE,low_1,0.75,-1,3,,,,,,,,,,,165,4,3.2.2021,164.9563443
13,"['low', 1]",1,black,135,left,down,low,black_low_135_down,white_low_45_down,10,left,0.187339,1,10,2,0,TRUE,1,0,1,1,TRUE,FALSE,low_1,0.75,-1,3,,,,,,,,,,,165,4,3.2.2021,164.9563443
14,"['high', 6]",6,black,135,left,down,high,black_high_135_down,white_high_45_down,11,left,0.0842458,1,11,1,0,FALSE,0,0,1,1,TRUE,FALSE,high_6,0.75,-1,3,,,,,,,,,,,165,4,3.2.2021,164.9563443
15,"['high', 4]",4,black,45,right,down,high,black_high_45_down,white_high_135_down,10,left,0.1759694,0,10,2,0,TRUE,1,0,1,1,TRUE,FALSE,high_4,0.75,-1,3,,,,,,,,,,,165,4,3.2.2021,164.9563443
16,"['low', 1]",1,white,135,right,down,low,white_low_135_down,black_low_45_down,9,right,0.0504488,1,9,3,1,TRUE,2,0,1,1,TRUE,FALSE,low_1,0.75,-1,3,,,,,,,,,,,165,4,3.2.2021,164.9563443
17,"['low', 6]",6,black,135,left,down,low,black_low_135_down,white_low_45_down,4,left,0.7289775,1,4,0,None,FALSE,0,0,1,1,TRUE,FALSE,low_6,0.75,-1,3,,,,,,,,,,,165,4,3.2.2021,164.9563443
18,"['low', 4]",4,black,135,left,up,low,black_low_135_up,white_low_45_up,2,left,0.2547528,1,2,2,1,FALSE,0,0,1,1,TRUE,FALSE,low_4,0.75,-1,3,,,,,,,,,,,165,4,3.2.2021,164.9563443
19,"['low', 2]",2,black,135,left,down,low,black_low_135_down,white_low_45_down,9,right,0.6176351,0,9,3,1,TRUE,1,0,1,1,TRUE,FALSE,low_2,0.75,-1,3,,,,,,,,,,,165,4,3.2.2021,164.9563443
20,"['low', 4]",4,black,135,left,down,low,black_low_135_down,white_low_45_down,1,right,0.3393577,0,1,3,1,FALSE,0,0,1,1,TRUE,FALSE,low_4,0.75,-1,3,,,,,,,,,,,165,4,3.2.2021,164.9563443
21,"['high', 1]",1,black,45,right,down,high,black_high_45_down,white_high_135_down,12,left,0.2829567,0,12,0,None,FALSE,0,0,1,1,TRUE,FALSE,high_1,0.75,-1,3,,,,,,,,,,,165,4,3.2.2021,164.9563443
22,"['high', 3]",3,white,135,right,up,high,white_high_135_up,black_high_45_up,7,left,0.1988231,0,7,1,1,FALSE,0,0,1,1,TRUE,FALSE,high_3,0.75,-1,3,,,,,,,,,,,165,4,3.2.2021,164.9563443
23,"['low', 6]",6,black,45,right,up,low,black_low_45_up,white_low_135_up,3,left,0.0298056,0,3,1,1,FALSE,0,0,1,1,TRUE,FALSE,low_6,0.75,-1,3,,,,,,,,,,,165,4,3.2.2021,164.9563443
24,"['high', 2]",2,white,45,left,down,high,white_high_45_down,black_high_135_down,7,left,0.1354906,1,7,1,1,FALSE,0,0,1,1,TRUE,FALSE,high_2,0.75,-1,3,,,,,,,,,,,165,4,3.2.2021,164.9563443
25,"['low', 2]",2,black,45,right,down,low,black_low_45_down,white_low_135_down,12,right,1.6196436,1,12,4,0,TRUE,2,0,1,1,TRUE,FALSE,low_2,0.75,-1,3,,,,,,,,,,,165,4,3.2.2021,164.9563443
26,"['low', 1]",1,black,45,right,up,low,black_low_45_up,white_low_135_up,8,left,0.1609862,0,8,4,1,FALSE,2,0,1,1,TRUE,FALSE,low_1,0.75,-1,3,,,,,,,,,,,165,4,3.2.2021,164.9563443
27,"['high', 6]",6,black,45,right,down,high,black_high_45_down,white_high_135_down,10,left,0.6260672,0,10,2,1,TRUE,1,0,1,1,TRUE,FALSE,high_6,0.75,-1,3,,,,,,,,,,,165,4,3.2.2021,164.9563443
28,"['high', 1]",1,white,135,right,down,high,white_high_135_down,black_high_45_down,15,left,0.9874489,0,15,1,0,FALSE,0,0,1,1,TRUE,FALSE,high_1,0.75,-1,3,,,,,,,,,,,165,4,3.2.2021,164.9563443
29,"['low', 4]",4,black,135,left,up,low,black_low_135_up,white_low_45_up,4,left,0.278098,1,4,4,0,TRUE,1,0,1,1,TRUE,FALSE,low_4,0.75,-1,3,,,,,,,,,,,165,4,3.2.2021,164.9563443
30,"['low', 4]",4,black,135,left,down,low,black_low_135_down,white_low_45_down,3,left,0.0525126,1,3,5,1,TRUE,2,0,1,1,TRUE,FALSE,low_4,0.75,-1,3,,,,,,,,,,,165,4,3.2.2021,164.9563443
31,"['high', 4]",4,black,45,right,up,high,black_high_45_up,white_high_135_up,13,left,0.3044663,0,13,3,0,FALSE,1,0,1,1,TRUE,FALSE,high_4,0.75,-1,3,,,,,,,,,,,165,4,3.2.2021,164.9563443
32,"['low', 4]",4,black,45,right,up,low,black_low_45_up,white_low_135_up,2,left,0.5817551,0,2,6,1,FALSE,2,0,1,1,TRUE,FALSE,low_4,0.75,-1,3,,,,,,,,,,,165,4,3.2.2021,164.9563443
33,"['high', 2]",2,black,135,left,down,high,black_high_135_down,white_high_45_down,6,left,0.5028138,1,6,2,1,FALSE,0,0,1,1,TRUE,FALSE,high_2,0.75,-1,3,,,,,,,,,,,165,4,3.2.2021,164.9563443
34,"['low', 3]",3,white,45,left,up,low,white_low_45_up,black_low_135_up,7,left,0.0423809,1,7,1,0,FALSE,0,0,1,1,TRUE,FALSE,low_3,0.75,-1,3,,,,,,,,,,,165,4,3.2.2021,164.9563443
35,"['high', 1]",1,black,135,left,down,high,black_high_135_down,white_high_45_down,18,left,1.8588475,1,18,2,0,FALSE,0,0,1,1,TRUE,FALSE,high_1,0.75,-1,3,,,,,,,,,,,165,4,3.2.2021,164.9563443
36,"['high', 3]",3,black,135,left,down,high,black_high_135_down,white_high_45_down,10,left,0.3882941,1,10,2,0,TRUE,1,0,1,1,TRUE,FALSE,high_3,0.75,-1,3,,,,,,,,,,,165,4,3.2.2021,164.9563443
37,"['high', 1]",1,white,135,right,down,high,white_high_135_down,black_high_45_down,17,right,0.7357046,1,17,3,1,TRUE,1,0,1,1,TRUE,FALSE,high_1,0.75,-1,3,,,,,,,,,,,165,4,3.2.2021,164.9563443
38,"['low', 4]",4,white,45,left,down,low,white_low_45_down,black_low_135_down,5,left,0.076927,1,5,7,0,TRUE,3,0,1,1,TRUE,FALSE,low_4,0.75,-1,3,,,,,,,,,,,165,4,3.2.2021,164.9563443
39,"['low', 3]",3,black,135,left,down,low,black_low_135_down,white_low_45_down,6,left,0.1238403,1,6,2,1,TRUE,1,0,1,1,TRUE,FALSE,low_3,0.75,-1,3,,,,,,,,,,,165,4,3.2.2021,164.9563443
40,"['high', 2]",2,black,45,right,down,high,black_high_45_down,white_high_135_down,5,right,0.5903892,1,5,3,1,FALSE,0,0,1,1,TRUE,FALSE,high_2,0.75,-1,3,,,,,,,,,,,165,4,3.2.2021,164.9563443
41,"['high', 4]",4,white,135,right,down,high,white_high_135_down,black_high_45_down,16,right,0.1609202,1,16,4,0,FALSE,1,0,1,1,TRUE,FALSE,high_4,0.75,-1,3,,,,,,,,,,,165,4,3.2.2021,164.9563443
42,"['low', 3]",3,black,45,right,up,low,black_low_45_up,white_low_135_up,5,left,0.4926646,0,5,3,1,FALSE,1,0,1,1,TRUE,FALSE,low_3,0.75,-1,3,,,,,,,,,,,165,4,3.2.2021,164.9563443
43,"['low', 1]",1,black,135,left,down,low,black_low_135_down,white_low_45_down,11,left,1.2638086,1,11,5,0,TRUE,3,0,1,1,TRUE,FALSE,low_1,0.75,-1,3,,,,,,,,,,,165,4,3.2.2021,164.9563443
44,"['high', 6]",6,black,135,left,down,high,black_high_135_down,white_high_45_down,13,left,0.1253954,1,13,3,0,TRUE,2,0,1,1,TRUE,FALSE,high_6,0.75,-1,3,,,,,,,,,,,165,4,3.2.2021,164.9563443
45,"['low', 4]",4,black,135,left,down,low,black_low_135_down,white_low_45_down,4,right,1.2547645,0,4,8,1,TRUE,4,0,1,1,TRUE,FALSE,low_4,0.75,-1,3,,,,,,,,,,,165,4,3.2.2021,164.9563443
46,"['high', 6]",6,white,135,right,up,high,white_high_135_up,black_high_45_up,12,right,0.5581189,1,12,4,1,TRUE,3,0,1,1,TRUE,FALSE,high_6,0.75,-1,3,,,,,,,,,,,165,4,3.2.2021,164.9563443
47,"['high', 6]",6,black,45,right,down,high,black_high_45_down,white_high_135_down,11,right,0.2102932,1,11,5,1,FALSE,3,0,1,1,TRUE,FALSE,high_6,0.75,-1,3,,,,,,,,,,,165,4,3.2.2021,164.9563443
48,"['high', 1]",1,white,45,left,down,high,white_high_45_down,black_high_135_down,16,left,0.3315261,1,16,4,1,FALSE,1,0,1,1,TRUE,FALSE,high_1,0.75,-1,3,,,,,,,,,,,165,4,3.2.2021,164.9563443
49,"['high', 6]",6,white,45,left,up,high,white_high_45_up,black_high_135_up,10,left,0.1420209,1,10,6,1,FALSE,3,0,1,1,TRUE,FALSE,high_6,0.75,-1,3,,,,,,,,,,,165,4,3.2.2021,164.9563443
50,"['high', 6]",6,black,45,right,up,high,black_high_45_up,white_high_135_up,9,right,0.0981883,1,9,7,1,FALSE,3,0,1,1,TRUE,FALSE,high_6,0.75,-1,3,,,,,,,,,,,165,4,3.2.2021,164.9563443
51,"['high', 6]",6,black,45,right,down,high,black_high_45_down,white_high_135_down,8,right,1.0672381,1,8,8,1,FALSE,3,0,1,1,TRUE,FALSE,high_6,0.75,-1,3,,,,,,,,,,,165,4,3.2.2021,164.9563443
52,"['low', 3]",3,white,135,right,down,low,white_low_135_down,black_low_45_down,8,right,0.3057786,1,8,4,0,TRUE,2,0,1,1,TRUE,FALSE,low_3,0.75,-1,3,,,,,,,,,,,165,4,3.2.2021,164.9563443
53,"['low', 1]",1,black,135,left,up,low,black_low_135_up,white_low_45_up,10,left,0.5775449,1,10,6,1,TRUE,4,0,1,1,TRUE,FALSE,low_1,0.75,-1,3,,,,,,,,,,,165,4,3.2.2021,164.9563443
54,"['high', 2]",2,black,135,left,down,high,black_high_135_down,white_high_45_down,4,right,0.4714369,0,4,4,1,FALSE,0,0,1,1,TRUE,FALSE,high_2,0.75,-1,3,,,,,,,,,,,165,4,3.2.2021,164.9563443
55,"['high', 2]",2,white,45,left,down,high,white_high_45_down,black_high_135_down,7,left,0.0848767,1,7,5,0,TRUE,1,0,1,1,TRUE,FALSE,high_2,0.75,-1,3,,,,,,,,,,,165,4,3.2.2021,164.9563443
56,"['high', 2]",2,white,135,right,up,high,white_high_135_up,black_high_45_up,6,left,0.3550868,0,6,6,1,TRUE,2,0,1,1,TRUE,FALSE,high_2,0.75,-1,3,,,,,,,,,,,165,4,3.2.2021,164.9563443
57,"['low', 4]",4,white,45,left,up,low,white_low_45_up,black_low_135_up,7,left,0.1052655,1,7,9,0,TRUE,5,1,1,1,TRUE,FALSE,low_4,0.75,-1,3,,,,,,,,,,,165,4,3.2.2021,164.9563443
58,"['high', 6]",6,white,45,left,down,high,white_high_45_down,black_high_135_down,7,left,0.5091163,1,7,9,1,FALSE,3,0,1,1,TRUE,FALSE,high_6,0.75,-1,3,,,,,,,,,,,165,4,3.2.2021,164.9563443
59,"['low', 1]",1,black,135,left,down,low,black_low_135_down,white_low_45_down,9,left,1.3770158,1,9,7,1,FALSE,4,0,1,1,TRUE,FALSE,low_1,0.75,-1,3,,,,,,,,,,,165,4,3.2.2021,164.9563443
60,"['low', 4]",4,white,135,right,up,low,white_low_135_up,black_low_45_up,6,right,0.2452778,1,6,10,1,TRUE,6,1,1,1,TRUE,FALSE,low_4,0.75,-1,3,,,,,,,,,,,165,4,3.2.2021,164.9563443
61,"['low', 3]",3,white,45,left,down,low,white_low_45_down,black_low_135_down,7,left,0.0393434,1,7,5,1,TRUE,3,0,1,1,TRUE,FALSE,low_3,0.75,-1,3,,,,,,,,,,,165,4,3.2.2021,164.9563443
62,"['high', 3]",3,black,135,left,up,high,black_high_135_up,white_high_45_up,9,left,0.1076719,1,9,3,1,TRUE,2,0,1,1,TRUE,FALSE,high_3,0.75,-1,3,,,,,,,,,,,165,4,3.2.2021,164.9563443
63,"['low', 6]",6,black,135,left,up,low,black_low_135_up,white_low_45_up,6,left,0.3949162,1,6,2,0,TRUE,1,0,1,1,TRUE,FALSE,low_6,0.75,-1,3,,,,,,,,,,,165,4,3.2.2021,164.9563443
64,"['low', 2]",2,white,45,left,up,low,white_low_45_up,black_low_135_up,11,left,0.4277843,1,11,5,1,TRUE,3,0,1,1,TRUE,FALSE,low_2,0.75,-1,3,,,,,,,,,,,165,4,3.2.2021,164.9563443
65,"['low', 1]",1,black,135,left,down,low,black_low_135_down,white_low_45_down,8,right,1.3158407,0,8,8,1,FALSE,4,0,1,1,TRUE,FALSE,low_1,0.75,-1,3,,,,,,,,,,,165,4,3.2.2021,164.9563443
66,"['high', 3]",3,white,135,right,down,high,white_high_135_down,black_high_45_down,8,right,0.2156446,1,8,4,1,FALSE,2,0,1,1,TRUE,FALSE,high_3,0.75,-1,3,,,,,,,,,,,165,4,3.2.2021,164.9563443
67,"['high', 2]",2,black,135,left,down,high,black_high_135_down,white_high_45_down,9,left,0.5928119,1,9,7,0,TRUE,3,0,1,1,TRUE,FALSE,high_2,0.75,-1,3,,,,,,,,,,,165,4,3.2.2021,164.9563443
68,"['low', 6]",6,white,45,left,down,low,white_low_45_down,black_low_135_down,5,left,0.3809892,1,5,3,1,TRUE,2,0,1,1,TRUE,FALSE,low_6,0.75,-1,3,,,,,,,,,,,165,4,3.2.2021,164.9563443
69,"['high', 1]",1,white,135,right,down,high,white_high_135_down,black_high_45_down,15,right,0.1664578,1,15,5,1,FALSE,1,0,1,1,TRUE,FALSE,high_1,0.75,-1,3,,,,,,,,,,,165,4,3.2.2021,164.9563443
70,"['low', 3]",3,white,45,left,up,low,white_low_45_up,black_low_135_up,6,left,0.06111,1,6,6,1,FALSE,3,0,1,1,TRUE,FALSE,low_3,0.75,-1,3,,,,,,,,,,,165,4,3.2.2021,164.9563443
71,"['high', 2]",2,white,45,left,up,high,white_high_45_up,black_high_135_up,8,left,0.1627099,1,8,8,1,TRUE,4,0,1,1,TRUE,FALSE,high_2,0.75,-1,3,,,,,,,,,,,165,4,3.2.2021,164.9563443
72,"['low', 1]",1,black,135,left,down,low,black_low_135_down,white_low_45_down,11,left,1.6429883,1,11,9,0,TRUE,5,1,1,1,TRUE,FALSE,low_1,0.75,-1,3,,,,,,,,,,,165,4,3.2.2021,164.9563443
73,"['high', 3]",3,white,135,right,down,high,white_high_135_down,black_high_45_down,7,right,0.1512489,1,7,5,1,FALSE,2,0,1,1,TRUE,FALSE,high_3,0.75,-1,3,,,,,,,,,,,165,4,3.2.2021,164.9563443
74,"['low', 2]",2,black,45,right,down,low,black_low_45_down,white_low_135_down,10,right,0.2114982,1,10,6,1,FALSE,3,0,1,1,TRUE,FALSE,low_2,0.75,-1,3,,,,,,,,,,,165,4,3.2.2021,164.9563443
75,"['low', 1]",1,white,45,left,up,low,white_low_45_up,black_low_135_up,10,right,1.5519399,0,10,10,1,TRUE,6,1,1,1,TRUE,FALSE,low_1,0.75,-1,3,,,,,,,,,,,165,4,3.2.2021,164.9563443
76,"['high', 3]",3,white,135,right,down,high,white_high_135_down,black_high_45_down,6,right,0.0502057,1,6,6,1,FALSE,2,0,1,1,TRUE,FALSE,high_3,0.75,-1,3,,,,,,,,,,,165,4,3.2.2021,164.9563443
77,"['low', 4]",4,black,135,left,down,low,black_low_135_down,white_low_45_down,5,left,0.4414172,1,5,11,1,FALSE,6,1,1,1,TRUE,FALSE,low_4,0.75,-1,3,,,,,,,,,,,165,4,3.2.2021,164.9563443
78,"['high', 1]",1,white,45,left,up,high,white_high_45_up,black_high_135_up,14,left,0.1439939,1,14,6,1,FALSE,1,0,1,1,TRUE,FALSE,high_1,0.75,-1,3,,,,,,,,,,,165,4,3.2.2021,164.9563443
79,"['low', 4]",4,white,135,right,down,low,white_low_135_down,black_low_45_down,4,right,0.0960598,1,4,12,1,FALSE,6,1,1,1,TRUE,FALSE,low_4,0.75,-1,3,,,,,,,,,,,165,4,3.2.2021,164.9563443
80,"['low', 6]",6,white,135,right,up,low,white_low_135_up,black_low_45_up,4,left,0.4756527,0,4,4,1,FALSE,2,0,1,1,TRUE,FALSE,low_6,0.75,-1,3,,,,,,,,,,,165,4,3.2.2021,164.9563443
81,"['low', 2]",2,white,45,left,up,low,white_low_45_up,black_low_135_up,9,left,0.1903329,1,9,7,1,FALSE,3,0,1,1,TRUE,FALSE,low_2,0.75,-1,3,,,,,,,,,,,165,4,3.2.2021,164.9563443
82,"['low', 1]",1,black,135,left,up,low,black_low_135_up,white_low_45_up,13,right,0.167378,0,13,11,0,TRUE,7,1,1,1,TRUE,FALSE,low_1,0.75,-1,3,,,,,,,,,,,165,4,3.2.2021,164.9563443
83,"['low', 1]",1,white,45,left,up,low,white_low_45_up,black_low_135_up,16,left,0.1354838,1,16,12,0,FALSE,7,1,1,1,TRUE,FALSE,low_1,0.75,-1,3,,,,,,,,,,,165,4,3.2.2021,164.9563443
84,"['low', 2]",2,white,45,left,up,low,white_low_45_up,black_low_135_up,8,left,0.1450912,1,8,8,1,FALSE,3,0,1,1,TRUE,FALSE,low_2,0.75,-1,3,,,,,,,,,,,165,4,3.2.2021,164.9563443
85,"['low', 2]",2,white,135,right,up,low,white_low_135_up,black_low_45_up,7,right,0.2338914,1,7,9,1,FALSE,3,0,1,1,TRUE,FALSE,low_2,0.75,-1,3,,,,,,,,,,,165,4,3.2.2021,164.9563443
86,"['high', 2]",2,white,45,left,up,high,white_high_45_up,black_high_135_up,7,left,0.1432686,1,7,9,1,FALSE,4,0,1,1,TRUE,FALSE,high_2,0.75,-1,3,,,,,,,,,,,165,4,3.2.2021,164.9563443
87,"['high', 6]",6,white,135,right,down,high,white_high_135_down,black_high_45_down,6,right,0.4154806,1,6,10,1,FALSE,3,0,1,1,TRUE,FALSE,high_6,0.75,-1,3,,,,,,,,,,,165,4,3.2.2021,164.9563443
88,"['low', 3]",3,black,135,left,down,low,black_low_135_down,white_low_45_down,5,left,0.1864571,1,5,7,1,FALSE,3,0,1,1,TRUE,FALSE,low_3,0.75,-1,3,,,,,,,,,,,165,4,3.2.2021,164.9563443
89,"['high', 4]",4,white,45,left,up,high,white_high_45_up,black_high_135_up,15,left,0.1011515,1,15,5,1,TRUE,2,0,1,1,TRUE,FALSE,high_4,0.75,-1,3,,,,,,,,,,,165,4,3.2.2021,164.9563443
90,"['low', 1]",1,black,135,left,down,low,black_low_135_down,white_low_45_down,15,left,0.4616153,1,15,13,1,TRUE,8,1,1,1,TRUE,FALSE,low_1,0.75,-1,3,,,,,,,,,,,165,4,3.2.2021,164.9563443
91,"['low', 1]",1,black,135,left,down,low,black_low_135_down,white_low_45_down,14,left,0.604432,1,14,14,1,FALSE,8,1,1,1,TRUE,FALSE,low_1,0.75,-1,3,,,,,,,,,,,165,4,3.2.2021,164.9563443
92,"['low', 2]",2,white,45,left,up,low,white_low_45_up,black_low_135_up,6,right,0.3199126,0,6,10,1,FALSE,3,0,1,1,TRUE,FALSE,low_2,0.75,-1,3,,,,,,,,,,,165,4,3.2.2021,164.9563443
93,"['high', 1]",1,white,135,right,down,high,white_high_135_down,black_high_45_down,13,right,0.1833792,1,13,7,1,FALSE,1,0,1,1,TRUE,FALSE,high_1,0.75,-1,3,,,,,,,,,,,165,4,3.2.2021,164.9563443
94,"['low', 6]",6,white,135,right,up,low,white_low_135_up,black_low_45_up,7,right,0.7802253,1,7,5,0,TRUE,3,0,1,1,TRUE,FALSE,low_6,0.75,-1,3,,,,,,,,,,,165,4,3.2.2021,164.9563443
95,"['low', 3]",3,white,45,left,down,low,white_low_45_down,black_low_135_down,4,left,0.1229065,1,4,8,1,FALSE,3,0,1,1,TRUE,FALSE,low_3,0.75,-1,3,,,,,,,,,,,165,4,3.2.2021,164.9563443
96,"['low', 1]",1,black,135,left,up,low,black_low_135_up,white_low_45_up,13,left,1.2532194,1,13,15,1,FALSE,8,1,1,1,TRUE,FALSE,low_1,0.75,-1,3,,,,,,,,,,,165,4,3.2.2021,164.9563443
97,"['high', 3]",3,white,45,left,down,high,white_high_45_down,black_high_135_down,5,left,0.2025394,1,5,7,1,FALSE,2,0,1,1,TRUE,FALSE,high_3,0.75,-1,3,,,,,,,,,,,165,4,3.2.2021,164.9563443
98,"['high', 4]",4,white,135,right,up,high,white_high_135_up,black_high_45_up,14,right,0.4566504,1,14,6,1,FALSE,2,0,1,1,TRUE,FALSE,high_4,0.75,-1,3,,,,,,,,,,,165,4,3.2.2021,164.9563443
99,"['low', 6]",6,white,135,right,up,low,white_low_135_up,black_low_45_up,6,right,0.2585948,1,6,6,1,TRUE,4,0,1,1,TRUE,FALSE,low_6,0.75,-1,3,,,,,,,,,,,165,4,3.2.2021,164.9563443
100,"['high', 4]",4,black,45,right,up,high,black_high_45_up,white_high_135_up,13,right,0.4670962,1,13,7,1,FALSE,2,0,1,1,TRUE,FALSE,high_4,0.75,-1,3,,,,,,,,,,,165,4,3.2.2021,164.9563443
101,"['high', 4]",4,white,45,left,up,high,white_high_45_up,black_high_135_up,12,left,0.6008045,1,12,8,1,FALSE,2,0,1,1,TRUE,FALSE,high_4,0.75,-1,3,,,,,,,,,,,165,4,3.2.2021,164.9563443
102,"['high', 1]",1,black,135,left,up,high,black_high_135_up,white_high_45_up,12,right,0.7038446,0,12,8,1,FALSE,1,0,1,1,TRUE,FALSE,high_1,0.75,-1,3,,,,,,,,,,,165,4,3.2.2021,164.9563443
103,"['high', 4]",4,black,135,left,up,high,black_high_135_up,white_high_45_up,11,left,0.1034456,1,11,9,1,FALSE,2,0,1,1,TRUE,FALSE,high_4,0.75,-1,3,,,,,,,,,,,165,4,3.2.2021,164.9563443
104,"['low', 6]",6,black,45,right,up,low,black_low_45_up,white_low_135_up,5,right,0.0798267,1,5,7,1,FALSE,4,0,1,1,TRUE,FALSE,low_6,0.75,-1,3,,,,,,,,,,,165,4,3.2.2021,164.9563443
105,"['low', 3]",3,black,135,left,down,low,black_low_135_down,white_low_45_down,3,left,0.2984117,1,3,9,1,FALSE,3,0,1,1,TRUE,FALSE,low_3,0.75,-1,3,,,,,,,,,,,165,4,3.2.2021,164.9563443
106,"['high', 2]",2,black,135,left,down,high,black_high_135_down,white_high_45_down,6,left,0.985488,1,6,10,1,FALSE,4,0,1,1,TRUE,FALSE,high_2,0.75,-1,3,,,,,,,,,,,165,4,3.2.2021,164.9563443
107,"['low', 3]",3,black,135,left,up,low,black_low_135_up,white_low_45_up,2,left,0.4534803,1,2,10,1,FALSE,3,0,1,1,TRUE,FALSE,low_3,0.75,-1,3,,,,,,,,,,,165,4,3.2.2021,164.9563443
108,"['low', 6]",6,white,135,right,down,low,white_low_135_down,black_low_45_down,4,right,0.0374018,1,4,8,1,FALSE,4,0,1,1,TRUE,FALSE,low_6,0.75,-1,3,,,,,,,,,,,165,4,3.2.2021,164.9563443
109,"['low', 4]",4,black,45,right,up,low,black_low_45_up,white_low_135_up,3,right,0.4358971,1,3,13,1,FALSE,6,1,1,1,TRUE,FALSE,low_4,0.75,-1,3,,,,,,,,,,,165,4,3.2.2021,164.9563443
110,"['low', 6]",6,black,135,left,down,low,black_low_135_down,white_low_45_down,3,left,0.265447,1,3,9,1,FALSE,4,0,1,1,TRUE,FALSE,low_6,0.75,-1,3,,,,,,,,,,,165,4,3.2.2021,164.9563443
111,"['low', 1]",1,black,135,left,up,low,black_low_135_up,white_low_45_up,12,left,0.4589932,1,12,16,1,FALSE,8,1,1,1,TRUE,FALSE,low_1,0.75,-1,3,,,,,,,,,,,165,4,3.2.2021,164.9563443
112,"['low', 4]",4,black,135,left,up,low,black_low_135_up,white_low_45_up,2,left,0.6475877,1,2,14,1,FALSE,6,1,1,1,TRUE,FALSE,low_4,0.75,-1,3,,,,,,,,,,,165,4,3.2.2021,164.9563443
113,"['low', 1]",1,black,45,right,up,low,black_low_45_up,white_low_135_up,11,right,1.7715064,1,11,17,1,FALSE,8,1,1,1,TRUE,FALSE,low_1,0.75,-1,3,,,,,,,,,,,165,4,3.2.2021,164.9563443
114,"['low', 6]",6,black,135,left,down,low,black_low_135_down,white_low_45_down,2,left,0.2249429,1,2,10,1,FALSE,4,0,1,1,TRUE,FALSE,low_6,0.75,-1,3,,,,,,,,,,,165,4,3.2.2021,164.9563443
115,"['high', 6]",6,white,45,left,down,high,white_high_45_down,black_high_135_down,5,left,0.0722168,1,5,11,1,FALSE,3,0,1,1,TRUE,FALSE,high_6,0.75,-1,3,,,,,,,,,,,165,4,3.2.2021,164.9563443
116,"['high', 1]",1,black,135,left,down,high,black_high_135_down,white_high_45_down,15,left,0.5836122,1,15,9,0,TRUE,2,0,1,1,TRUE,FALSE,high_1,0.75,-1,3,,,,,,,,,,,165,4,3.2.2021,164.9563443
117,"['low', 4]",4,black,45,right,up,low,black_low_45_up,white_low_135_up,1,right,0.9960111,1,1,15,1,FALSE,6,1,1,1,TRUE,FALSE,low_4,0.75,-1,3,,,,,,,,,,,165,4,3.2.2021,164.9563443
118,"['low', 2]",2,white,135,right,down,low,white_low_135_down,black_low_45_down,9,right,0.4727434,1,9,11,0,TRUE,4,0,1,1,TRUE,FALSE,low_2,0.75,-1,3,,,,,,,,,,,165,4,3.2.2021,164.9563443
119,"['high', 3]",3,black,45,right,down,high,black_high_45_down,white_high_135_down,4,right,0.5018472,1,4,8,1,FALSE,2,0,1,1,TRUE,FALSE,high_3,0.75,-1,3,,,,,,,,,,,165,4,3.2.2021,164.9563443
120,"['low', 3]",3,white,135,right,up,low,white_low_135_up,black_low_45_up,1,right,0.6425131,1,1,11,1,FALSE,3,0,1,1,TRUE,FALSE,low_3,0.75,-1,3,,,,,,,,,,,165,4,3.2.2021,164.9563443
121,"['high', 3]",3,black,135,left,down,high,black_high_135_down,white_high_45_down,3,left,0.777114,1,3,9,1,FALSE,2,0,1,1,TRUE,FALSE,high_3,0.75,-1,3,,,,,,,,,,,165,4,3.2.2021,164.9563443
122,"['low', 3]",3,white,135,right,down,low,white_low_135_down,black_low_45_down,1,left,0.7513918,0,1,12,1,FALSE,3,0,1,1,TRUE,FALSE,low_3,0.75,-1,3,,,,,,,,,,,165,4,3.2.2021,164.9563443
123,"['low', 6]",6,black,45,right,up,low,black_low_45_up,white_low_135_up,1,right,0.7418283,1,1,11,1,FALSE,4,0,1,1,TRUE,FALSE,low_6,0.75,-1,3,,,,,,,,,,,165,4,3.2.2021,164.9563443
124,"['high', 3]",3,white,45,left,up,high,white_high_45_up,black_high_135_up,2,right,1.0044024,0,2,10,1,FALSE,2,0,1,1,TRUE,FALSE,high_3,0.75,-1,3,,,,,,,,,,,165,4,3.2.2021,164.9563443
125,"['high', 3]",3,black,135,left,down,high,black_high_135_down,white_high_45_down,5,left,0.5266826,1,5,11,0,TRUE,3,0,1,1,TRUE,FALSE,high_3,0.75,-1,3,,,,,,,,,,,165,4,3.2.2021,164.9563443
126,"['low', 6]",6,black,135,left,up,low,black_low_135_up,white_low_45_up,1,left,0.3809051,1,1,12,1,FALSE,4,0,1,1,TRUE,FALSE,low_6,0.75,-1,3,,,,,,,,,,,165,4,3.2.2021,164.9563443
127,"['low', 2]",2,white,45,left,up,low,white_low_45_up,black_low_135_up,8,left,0.4163848,1,8,12,1,TRUE,5,1,1,1,TRUE,FALSE,low_2,0.75,-1,3,,,,,,,,,,,165,4,3.2.2021,164.9563443
128,"['high', 4]",4,white,45,left,down,high,white_high_45_down,black_high_135_down,10,left,0.1015615,1,10,10,1,FALSE,2,0,1,1,TRUE,FALSE,high_4,0.75,-1,3,,,,,,,,,,,165,4,3.2.2021,164.9563443
129,"['high', 1]",1,black,45,right,up,high,black_high_45_up,white_high_135_up,14,right,0.6794233,1,14,10,1,TRUE,3,0,1,1,TRUE,FALSE,high_1,0.75,-1,3,,,,,,,,,,,165,4,3.2.2021,164.9563443
130,"['low', 3]",3,black,45,right,down,low,black_low_45_down,white_low_135_down,4,right,0.3245878,1,4,13,0,TRUE,4,0,1,1,TRUE,FALSE,low_3,0.75,-1,3,,,,,,,,,,,165,4,3.2.2021,164.9563443
131,"['low', 6]",6,white,45,left,down,low,white_low_45_down,black_low_135_down,1,left,0.3917091,1,1,13,1,FALSE,4,0,1,1,TRUE,FALSE,low_6,0.75,-1,3,,,,,,,,,,,165,4,3.2.2021,164.9563443
132,"['low', 2]",2,black,135,left,down,low,black_low_135_down,white_low_45_down,7,left,0.1581468,1,7,13,1,FALSE,5,1,1,1,TRUE,FALSE,low_2,0.75,-1,3,,,,,,,,,,,165,4,3.2.2021,164.9563443
133,"['low', 1]",1,white,135,right,up,low,white_low_135_up,black_low_45_up,10,right,0.2159226,1,10,18,1,FALSE,8,1,1,1,TRUE,FALSE,low_1,0.75,-1,3,,,,,,,,,,,165,4,3.2.2021,164.9563443
134,"['low', 6]",6,white,135,right,down,low,white_low_135_down,black_low_45_down,1,right,0.4829926,1,1,14,1,FALSE,4,0,1,1,TRUE,FALSE,low_6,0.75,-1,3,,,,,,,,,,,165,4,3.2.2021,164.9563443
135,"['high', 4]",4,white,45,left,down,high,white_high_45_down,black_high_135_down,9,left,0.410111,1,9,11,1,FALSE,2,0,1,1,TRUE,FALSE,high_4,0.75,-1,3,,,,,,,,,,,165,4,3.2.2021,164.9563443
136,"['low', 4]",4,black,135,left,down,low,black_low_135_down,white_low_45_down,1,left,0.3460618,1,1,16,1,FALSE,6,1,1,1,TRUE,FALSE,low_4,0.75,-1,3,,,,,,,,,,,165,4,3.2.2021,164.9563443
137,"['low', 4]",4,black,45,right,up,low,black_low_45_up,white_low_135_up,1,left,0.3943902,0,1,17,1,FALSE,6,1,1,1,TRUE,FALSE,low_4,0.75,-1,3,,,,,,,,,,,165,4,3.2.2021,164.9563443
138,"['high', 1]",1,white,45,left,down,high,white_high_45_down,black_high_135_down,13,left,0.2573448,1,13,11,1,FALSE,3,0,1,1,TRUE,FALSE,high_1,0.75,-1,3,,,,,,,,,,,165,4,3.2.2021,164.9563443
139,"['low', 3]",3,white,45,left,up,low,white_low_45_up,black_low_135_up,3,left,1.3628052,1,3,14,1,TRUE,5,1,1,1,TRUE,FALSE,low_3,0.75,-1,3,,,,,,,,,,,165,4,3.2.2021,164.9563443
140,"['high', 4]",4,white,45,left,down,high,white_high_45_down,black_high_135_down,8,left,0.2950902,1,8,12,1,FALSE,2,0,1,1,TRUE,FALSE,high_4,0.75,-1,3,,,,,,,,,,,165,4,3.2.2021,164.9563443
141,"['high', 6]",6,black,135,left,up,high,black_high_135_up,white_high_45_up,4,left,0.1550367,1,4,12,1,FALSE,3,0,1,1,TRUE,FALSE,high_6,0.75,-1,3,,,,,,,,,,,165,4,3.2.2021,164.9563443
142,"['low', 6]",6,black,45,right,up,low,black_low_45_up,white_low_135_up,1,right,0.416369,1,1,15,1,FALSE,4,0,1,1,TRUE,FALSE,low_6,0.75,-1,3,,,,,,,,,,,165,4,3.2.2021,164.9563443
143,"['high', 3]",3,black,135,left,down,high,black_high_135_down,white_high_45_down,4,left,0.3106553,1,4,12,1,TRUE,4,0,1,1,TRUE,FALSE,high_3,0.75,-1,3,,,,,,,,,,,165,4,3.2.2021,164.9563443
144,"['low', 2]",2,white,45,left,up,low,white_low_45_up,black_low_135_up,6,left,0.1668187,1,6,14,1,FALSE,5,1,1,1,TRUE,FALSE,low_2,0.75,-1,3,,,,,,,,,,,165,4,3.2.2021,164.9563443
145,"['high', 2]",2,white,45,left,down,high,white_high_45_down,black_high_135_down,5,left,0.3068914,1,5,11,1,FALSE,4,0,1,1,TRUE,FALSE,high_2,0.75,-1,3,,,,,,,,,,,165,4,3.2.2021,164.9563443
146,"['high', 1]",1,black,135,left,down,high,black_high_135_down,white_high_45_down,12,left,1.0530789,1,12,12,1,FALSE,3,0,1,1,TRUE,FALSE,high_1,0.75,-1,3,,,,,,,,,,,165,4,3.2.2021,164.9563443
147,"['low', 3]",3,black,45,right,up,low,black_low_45_up,white_low_135_up,2,left,1.3982652,0,2,15,1,FALSE,5,1,1,1,TRUE,FALSE,low_3,0.75,-1,3,,,,,,,,,,,165,4,3.2.2021,164.9563443
148,"['low', 1]",1,white,45,left,down,low,white_low_45_down,black_low_135_down,9,left,0.1084758,1,9,19,1,FALSE,8,1,1,1,TRUE,FALSE,low_1,0.75,-1,3,,,,,,,,,,,165,4,3.2.2021,164.9563443
149,"['high', 3]",3,white,135,right,down,high,white_high_135_down,black_high_45_down,3,right,0.8869059,1,3,13,1,FALSE,4,0,1,1,TRUE,FALSE,high_3,0.75,-1,3,,,,,,,,,,,165,4,3.2.2021,164.9563443
150,"['high', 1]",1,black,135,left,up,high,black_high_135_up,white_high_45_up,11,right,0.7008056,0,11,13,1,FALSE,3,0,1,1,TRUE,FALSE,high_1,0.75,-1,3,,,,,,,,,,,165,4,3.2.2021,164.9563443
151,"['low', 2]",2,white,45,left,down,low,white_low_45_down,black_low_135_down,5,left,0.1102108,1,5,15,1,FALSE,5,1,1,1,TRUE,FALSE,low_2,0.75,-1,3,,,,,,,,,,,165,4,3.2.2021,164.9563443
152,"['low', 3]",3,black,45,right,up,low,black_low_45_up,white_low_135_up,5,right,0.0767172,1,5,16,0,TRUE,6,1,1,1,TRUE,FALSE,low_3,0.75,-1,3,,,,,,,,,,,165,4,3.2.2021,164.9563443
153,"['low', 4]",4,black,45,right,up,low,black_low_45_up,white_low_135_up,4,right,0.2123482,1,4,18,0,TRUE,7,1,1,1,TRUE,FALSE,low_4,0.75,-1,3,,,,,,,,,,,165,4,3.2.2021,164.9563443
154,"['low', 1]",1,white,135,right,down,low,white_low_135_down,black_low_45_down,8,right,0.1120983,1,8,20,1,FALSE,8,1,1,1,TRUE,FALSE,low_1,0.75,-1,3,,,,,,,,,,,165,4,3.2.2021,164.9563443
155,"['high', 4]",4,black,135,left,up,high,black_high_135_up,white_high_45_up,7,right,0.2739877,0,7,13,1,FALSE,2,0,1,1,TRUE,FALSE,high_4,0.75,-1,3,,,,,,,,,,,165,4,3.2.2021,164.9563443
156,"['low', 2]",2,black,45,right,up,low,black_low_45_up,white_low_135_up,4,right,0.6184077,1,4,16,1,FALSE,5,1,1,1,TRUE,FALSE,low_2,0.75,-1,3,,,,,,,,,,,165,4,3.2.2021,164.9563443
157,"['low', 1]",1,black,45,right,down,low,black_low_45_down,white_low_135_down,7,left,0.177768,0,7,21,1,FALSE,8,1,1,1,TRUE,FALSE,low_1,0.75,-1,3,,,,,,,,,,,165,4,3.2.2021,164.9563443
158,"['high', 2]",2,white,135,right,down,high,white_high_135_down,black_high_45_down,4,right,0.3123545,1,4,12,1,FALSE,4,0,1,1,TRUE,FALSE,high_2,0.75,-1,3,,,,,,,,,,,165,4,3.2.2021,164.9563443
159,"['high', 6]",6,black,135,left,up,high,black_high_135_up,white_high_45_up,3,right,0.3703127,0,3,13,1,FALSE,3,0,1,1,TRUE,FALSE,high_6,0.75,-1,3,,,,,,,,,,,165,4,3.2.2021,164.9563443
160,"['low', 4]",4,white,45,left,down,low,white_low_45_down,black_low_135_down,3,left,0.047285,1,3,19,1,TRUE,8,1,1,1,TRUE,FALSE,low_4,0.75,-1,3,,,,,,,,,,,165,4,3.2.2021,164.9563443
161,"['low', 2]",2,white,135,right,down,low,white_low_135_down,black_low_45_down,3,right,0.1721224,1,3,17,1,FALSE,5,1,1,1,TRUE,FALSE,low_2,0.75,-1,3,,,,,,,,,,,165,4,3.2.2021,164.9563443
162,"['low', 1]",1,white,45,left,up,low,white_low_45_up,black_low_135_up,10,left,0.8794972,1,10,22,0,TRUE,9,1,1,1,TRUE,FALSE,low_1,0.75,-1,3,,,,,,,,,,,165,4,3.2.2021,164.9563443
163,"['high', 6]",6,black,135,left,up,high,black_high_135_up,white_high_45_up,6,left,0.1345248,1,6,14,0,TRUE,4,0,1,1,TRUE,FALSE,high_6,0.75,-1,3,,,,,,,,,,,165,4,3.2.2021,164.9563443
164,"['low', 2]",2,black,135,left,up,low,black_low_135_up,white_low_45_up,2,right,0.2581333,0,2,18,1,FALSE,5,1,1,1,TRUE,FALSE,low_2,0.75,-1,3,,,,,,,,,,,165,4,3.2.2021,164.9563443
165,"['high', 4]",4,white,135,right,up,high,white_high_135_up,black_high_45_up,10,right,0.170484,1,10,14,0,TRUE,3,0,1,1,TRUE,FALSE,high_4,0.75,-1,3,,,,,,,,,,,165,4,3.2.2021,164.9563443
166,"['high', 3]",3,black,135,left,down,high,black_high_135_down,white_high_45_down,2,left,1.3282305,1,2,14,1,FALSE,4,0,1,1,TRUE,FALSE,high_3,0.75,-1,3,,,,,,,,,,,165,4,3.2.2021,164.9563443
167,"['high', 6]",6,white,45,left,up,high,white_high_45_up,black_high_135_up,5,left,0.118769,1,5,15,1,TRUE,5,1,1,1,TRUE,FALSE,high_6,0.75,-1,3,,,,,,,,,,,165,4,3.2.2021,164.9563443
168,"['high', 2]",2,black,135,left,down,high,black_high_135_down,white_high_45_down,3,right,0.2805875,0,3,13,1,FALSE,4,0,1,1,TRUE,FALSE,high_2,0.75,-1,3,,,,,,,,,,,165,4,3.2.2021,164.9563443
169,"['high', 3]",3,white,45,left,up,high,white_high_45_up,black_high_135_up,1,right,0.7649769,0,1,15,1,FALSE,4,0,1,1,TRUE,FALSE,high_3,0.75,-1,3,,,,,,,,,,,165,4,3.2.2021,164.9563443
170,"['high', 6]",6,black,135,left,down,high,black_high_135_down,white_high_45_down,4,left,0.1004023,1,4,16,1,FALSE,5,1,1,1,TRUE,FALSE,high_6,0.75,-1,3,,,,,,,,,,,165,4,3.2.2021,164.9563443
171,"['high', 1]",1,white,45,left,down,high,white_high_45_down,black_high_135_down,14,left,0.0916164,1,14,14,0,TRUE,4,0,1,1,TRUE,FALSE,high_1,0.75,-1,3,,,,,,,,,,,165,4,3.2.2021,164.9563443
172,"['low', 1]",1,white,135,right,up,low,white_low_135_up,black_low_45_up,9,right,0.0789529,1,9,23,1,TRUE,10,1,1,1,TRUE,FALSE,low_1,0.75,-1,3,,,,,,,,,,,165,4,3.2.2021,164.9563443
173,"['high', 3]",3,black,135,left,down,high,black_high_135_down,white_high_45_down,4,right,0.4738733,0,4,16,0,TRUE,5,1,1,1,TRUE,FALSE,high_3,0.75,-1,3,,,,,,,,,,,165,4,3.2.2021,164.9563443
174,"['low', 1]",1,white,45,left,up,low,white_low_45_up,black_low_135_up,8,left,0.1368969,1,8,24,1,FALSE,10,1,1,1,TRUE,FALSE,low_1,0.75,-1,3,,,,,,,,,,,165,4,3.2.2021,164.9563443
175,"['low', 3]",3,black,135,left,down,low,black_low_135_down,white_low_45_down,4,left,0.7412596,1,4,17,1,TRUE,7,1,1,1,TRUE,FALSE,low_3,0.75,-1,3,,,,,,,,,,,165,4,3.2.2021,164.9563443
176,"['high', 2]",2,white,135,right,up,high,white_high_135_up,black_high_45_up,6,right,0.0071552,1,6,14,0,TRUE,5,1,1,1,TRUE,FALSE,high_2,0.75,-1,3,,,,,,,,,,,165,4,3.2.2021,164.9563443
177,"['low', 6]",6,white,135,right,down,low,white_low_135_down,black_low_45_down,1,right,0.5389535,1,1,16,1,FALSE,4,0,1,1,TRUE,FALSE,low_6,0.75,-1,3,,,,,,,,,,,165,4,3.2.2021,164.9563443
178,"['high', 6]",6,white,45,left,down,high,white_high_45_down,black_high_135_down,3,left,0.0390536,1,3,17,1,FALSE,5,1,1,1,TRUE,FALSE,high_6,0.75,-1,3,,,,,,,,,,,165,4,3.2.2021,164.9563443
179,"['low', 6]",6,white,135,right,down,low,white_low_135_down,black_low_45_down,1,right,0.5172887,1,1,17,1,FALSE,4,0,1,1,TRUE,FALSE,low_6,0.75,-1,3,,,,,,,,,,,165,4,3.2.2021,164.9563443
180,"['low', 6]",6,white,45,left,down,low,white_low_45_down,black_low_135_down,1,left,0.0836912,1,1,18,1,FALSE,4,0,1,1,TRUE,FALSE,low_6,0.75,-1,3,,,,,,,,,,,165,4,3.2.2021,164.9563443
181,"['low', 3]",3,white,45,left,down,low,white_low_45_down,black_low_135_down,3,left,1.0100505,1,3,18,1,FALSE,7,1,1,1,TRUE,FALSE,low_3,0.75,-1,3,,,,,,,,,,,165,4,3.2.2021,164.9563443
182,"['high', 1]",1,white,135,right,up,high,white_high_135_up,black_high_45_up,13,right,0.2475387,1,13,15,1,TRUE,5,1,1,1,TRUE,FALSE,high_1,0.75,-1,3,,,,,,,,,,,165,4,3.2.2021,164.9563443
183,"['high', 6]",6,white,135,right,down,high,white_high_135_down,black_high_45_down,2,right,0.4694838,1,2,18,1,FALSE,5,1,1,1,TRUE,FALSE,high_6,0.75,-1,3,,,,,,,,,,,165,4,3.2.2021,164.9563443
184,"['high', 4]",4,white,45,left,up,high,white_high_45_up,black_high_135_up,9,left,0.2427695,1,9,15,1,TRUE,4,0,1,1,TRUE,FALSE,high_4,0.75,-1,3,,,,,,,,,,,165,4,3.2.2021,164.9563443
185,"['low', 1]",1,black,135,left,down,low,black_low_135_down,white_low_45_down,7,left,0.264477,1,7,25,1,FALSE,10,1,1,1,TRUE,FALSE,low_1,0.75,-1,3,,,,,,,,,,,165,4,3.2.2021,164.9563443
186,"['low', 3]",3,black,45,right,down,low,black_low_45_down,white_low_135_down,2,right,0.3576707,1,2,19,1,FALSE,7,1,1,1,TRUE,FALSE,low_3,0.75,-1,3,,,,,,,,,,,165,4,3.2.2021,164.9563443
187,"['high', 1]",1,black,135,left,down,high,black_high_135_down,white_high_45_down,12,left,0.2598379,1,12,16,1,FALSE,5,1,1,1,TRUE,FALSE,high_1,0.75,-1,3,,,,,,,,,,,165,4,3.2.2021,164.9563443
188,"['high', 1]",1,white,45,left,up,high,white_high_45_up,black_high_135_up,11,left,0.1027001,1,11,17,1,FALSE,5,1,1,1,TRUE,FALSE,high_1,0.75,-1,3,,,,,,,,,,,165,4,3.2.2021,164.9563443
189,"['low', 3]",3,white,45,left,down,low,white_low_45_down,black_low_135_down,1,left,0.4561429,1,1,20,1,FALSE,7,1,1,1,TRUE,FALSE,low_3,0.75,-1,3,,,,,,,,,,,165,4,3.2.2021,164.9563443
190,"['low', 6]",6,white,135,right,down,low,white_low_135_down,black_low_45_down,1,left,0.2780322,0,1,19,1,FALSE,4,0,1,1,TRUE,FALSE,low_6,0.75,-1,3,,,,,,,,,,,165,4,3.2.2021,164.9563443
191,"['low', 2]",2,white,45,left,down,low,white_low_45_down,black_low_135_down,5,left,0.0785834,1,5,19,0,TRUE,6,1,1,1,TRUE,FALSE,low_2,0.75,-1,3,,,,,,,,,,,165,4,3.2.2021,164.9563443
192,"['low', 6]",6,white,45,left,down,low,white_low_45_down,black_low_135_down,4,left,0.6131193,1,4,20,0,TRUE,5,1,1,1,TRUE,FALSE,low_6,0.75,-1,3,,,,,,,,,,,165,4,3.2.2021,164.9563443
193,"['low', 1]",1,white,45,left,up,low,white_low_45_up,black_low_135_up,6,left,2.3603844,1,6,26,1,FALSE,10,1,1,1,TRUE,FALSE,low_1,0.75,-1,3,,,,,,,,,,,165,4,3.2.2021,164.9563443
194,"['low', 3]",3,white,45,left,up,low,white_low_45_up,black_low_135_up,1,left,0.3734382,1,1,21,1,FALSE,7,1,1,1,TRUE,FALSE,low_3,0.75,-1,3,,,,,,,,,,,165,4,3.2.2021,164.9563443
195,"['high', 2]",2,black,135,left,down,high,black_high_135_down,white_high_45_down,5,left,1.2520678,1,5,15,1,TRUE,6,1,1,1,TRUE,FALSE,high_2,0.75,-1,3,,,,,,,,,,,165,4,3.2.2021,164.9563443
196,"['high', 3]",3,white,135,right,up,high,white_high_135_up,black_high_45_up,7,left,0.192155,0,7,17,0,FALSE,5,1,1,1,TRUE,FALSE,high_3,0.75,-1,3,,,,,,,,,,,165,4,3.2.2021,164.9563443
197,"['low', 2]",2,white,45,left,down,low,white_low_45_down,black_low_135_down,4,left,0.4410284,1,4,20,1,TRUE,7,1,1,1,TRUE,FALSE,low_2,0.75,-1,3,,,,,,,,,,,165,4,3.2.2021,164.9563443
198,"['high', 6]",6,black,45,right,up,high,black_high_45_up,white_high_135_up,1,left,0.6330398,0,1,19,1,FALSE,5,1,1,1,TRUE,FALSE,high_6,0.75,-1,3,,,,,,,,,,,165,4,3.2.2021,164.9563443
199,"['high', 6]",6,black,45,right,up,high,black_high_45_up,white_high_135_up,4,left,0.1753638,0,4,20,0,TRUE,6,1,1,1,TRUE,FALSE,high_6,0.75,-1,3,,,,,,,,,,,165,4,3.2.2021,164.9563443
200,"['low', 1]",1,black,135,left,down,low,black_low_135_down,white_low_45_down,5,right,1.0016349,0,5,27,1,FALSE,10,1,1,1,TRUE,FALSE,low_1,0.75,-1,3,,,,,,,,,,,165,4,3.2.2021,164.9563443
201,"['high', 3]",3,white,45,left,up,high,white_high_45_up,black_high_135_up,10,left,0.6452451,1,10,18,0,FALSE,5,1,1,1,TRUE,FALSE,high_3,0.75,-1,3,,,,,,,,,,,165,4,3.2.2021,164.9563443
202,"['low', 1]",1,white,45,left,down,low,white_low_45_down,black_low_135_down,8,left,0.2495654,1,8,28,0,TRUE,11,1,1,1,TRUE,FALSE,low_1,0.75,-1,3,,,,,,,,,,,165,4,3.2.2021,164.9563443
203,"['high', 6]",6,black,135,left,down,high,black_high_135_down,white_high_45_down,7,left,0.3961115,1,7,21,0,FALSE,6,1,1,1,TRUE,FALSE,high_6,0.75,-1,3,,,,,,,,,,,165,4,3.2.2021,164.9563443
204,"['low', 1]",1,white,135,right,up,low,white_low_135_up,black_low_45_up,7,right,0.0649748,1,7,29,1,TRUE,12,1,1,1,TRUE,FALSE,low_1,0.75,-1,3,,,,,,,,,,,165,4,3.2.2021,164.9563443
205,"['high', 3]",3,black,135,left,up,high,black_high_135_up,white_high_45_up,9,left,0.1354998,1,9,19,1,TRUE,6,1,1,1,TRUE,FALSE,high_3,0.75,-1,3,,,,,,,,,,,165,4,3.2.2021,164.9563443
206,"['high', 2]",2,black,135,left,down,high,black_high_135_down,white_high_45_down,4,right,0.2965145,0,4,16,1,FALSE,6,1,1,1,TRUE,FALSE,high_2,0.75,-1,3,,,,,,,,,,,165,4,3.2.2021,164.9563443
207,"['high', 6]",6,white,45,left,down,high,white_high_45_down,black_high_135_down,6,left,0.1649412,1,6,22,1,TRUE,7,1,1,1,TRUE,FALSE,high_6,0.75,-1,3,,,,,,,,,,,165,4,3.2.2021,164.9563443
208,"['low', 1]",1,white,135,right,up,low,white_low_135_up,black_low_45_up,6,right,0.0319413,1,6,30,1,FALSE,12,1,1,1,TRUE,FALSE,low_1,0.75,-1,3,,,,,,,,,,,165,4,3.2.2021,164.9563443
209,"['low', 2]",2,black,45,right,down,low,black_low_45_down,white_low_135_down,3,right,0.3580829,1,3,21,1,FALSE,7,1,1,1,TRUE,FALSE,low_2,0.75,-1,3,,,,,,,,,,,165,4,3.2.2021,164.9563443
210,"['high', 1]",1,black,135,left,up,high,black_high_135_up,white_high_45_up,10,left,0.1442681,1,10,18,1,FALSE,5,1,1,1,TRUE,FALSE,high_1,0.75,-1,3,,,,,,,,,,,165,4,3.2.2021,164.9563443
211,"['high', 1]",1,white,135,right,up,high,white_high_135_up,black_high_45_up,9,right,0.4215445,1,9,19,1,FALSE,5,1,1,1,TRUE,FALSE,high_1,0.75,-1,3,,,,,,,,,,,165,4,3.2.2021,164.9563443
212,"['high', 1]",1,black,135,left,up,high,black_high_135_up,white_high_45_up,8,right,0.2877041,0,8,20,1,FALSE,5,1,1,1,TRUE,FALSE,high_1,0.75,-1,3,,,,,,,,,,,165,4,3.2.2021,164.9563443
213,"['low', 6]",6,black,135,left,down,low,black_low_135_down,white_low_45_down,3,left,0.1587135,1,3,21,1,TRUE,6,1,1,1,TRUE,FALSE,low_6,0.75,-1,3,,,,,,,,,,,165,4,3.2.2021,164.9563443
214,"['low', 4]",4,black,45,right,up,low,black_low_45_up,white_low_135_up,2,right,0.2429418,1,2,20,1,FALSE,8,1,1,1,TRUE,FALSE,low_4,0.75,-1,3,,,,,,,,,,,165,4,3.2.2021,164.9563443
215,"['high', 3]",3,white,45,left,up,high,white_high_45_up,black_high_135_up,8,left,0.1841523,1,8,20,1,FALSE,6,1,1,1,TRUE,FALSE,high_3,0.75,-1,3,,,,,,,,,,,165,4,3.2.2021,164.9563443
216,"['low', 6]",6,black,135,left,down,low,black_low_135_down,white_low_45_down,2,left,0.1019124,1,2,22,1,FALSE,6,1,1,1,TRUE,FALSE,low_6,0.75,-1,3,,,,,,,,,,,165,4,3.2.2021,164.9563443
217,"['low', 2]",2,white,135,right,down,low,white_low_135_down,black_low_45_down,2,right,0.4079357,1,2,22,1,FALSE,7,1,1,1,TRUE,FALSE,low_2,0.75,-1,3,,,,,,,,,,,165,4,3.2.2021,164.9563443
218,"['low', 2]",2,black,45,right,up,low,black_low_45_up,white_low_135_up,1,left,0.5433637,0,1,23,1,FALSE,7,1,1,1,TRUE,FALSE,low_2,0.75,-1,3,,,,,,,,,,,165,4,3.2.2021,164.9563443
219,"['high', 4]",4,white,45,left,down,high,white_high_45_down,black_high_135_down,8,left,0.269993,1,8,16,1,FALSE,4,0,1,1,TRUE,FALSE,high_4,0.75,-1,3,,,,,,,,,,,165,4,3.2.2021,164.9563443
220,"['low', 6]",6,black,135,left,down,low,black_low_135_down,white_low_45_down,1,right,0.6219787,0,1,23,1,FALSE,6,1,1,1,TRUE,FALSE,low_6,0.75,-1,3,,,,,,,,,,,165,4,3.2.2021,164.9563443
221,"['low', 6]",6,black,45,right,up,low,black_low_45_up,white_low_135_up,4,right,0.0112831,1,4,24,0,TRUE,7,1,1,1,TRUE,FALSE,low_6,0.75,-1,3,,,,,,,,,,,165,4,3.2.2021,164.9563443
222,"['low', 1]",1,white,45,left,up,low,white_low_45_up,black_low_135_up,5,right,0.7185718,0,5,31,1,FALSE,12,1,1,1,TRUE,FALSE,low_1,0.75,-1,3,,,,,,,,,,,165,4,3.2.2021,164.9563443
223,"['high', 6]",6,black,135,left,up,high,black_high_135_up,white_high_45_up,5,left,0.2072429,1,5,23,1,FALSE,7,1,1,1,TRUE,FALSE,high_6,0.75,-1,3,,,,,,,,,,,165,4,3.2.2021,164.9563443
224,"['high', 2]",2,black,45,right,up,high,black_high_45_up,white_high_135_up,7,right,0.1829464,1,7,17,0,TRUE,7,1,1,1,TRUE,FALSE,high_2,0.75,-1,3,,,,,,,,,,,165,4,3.2.2021,164.9563443
225,"['high', 2]",2,black,45,right,down,high,black_high_45_down,white_high_135_down,6,left,0.0475276,0,6,18,1,TRUE,8,1,1,1,TRUE,FALSE,high_2,0.75,-1,3,,,,,,,,,,,165,4,3.2.2021,164.9563443
226,"['high', 3]",3,black,45,right,down,high,black_high_45_down,white_high_135_down,7,right,0.4878658,1,7,21,1,FALSE,6,1,1,1,TRUE,FALSE,high_3,0.75,-1,3,,,,,,,,,,,165,4,3.2.2021,164.9563443
227,"['low', 4]",4,black,135,left,up,low,black_low_135_up,white_low_45_up,1,right,0.3383178,0,1,21,1,FALSE,8,1,1,1,TRUE,FALSE,low_4,0.75,-1,3,,,,,,,,,,,165,4,3.2.2021,164.9563443
228,"['low', 2]",2,black,45,right,down,low,black_low_45_down,white_low_135_down,4,right,0.4884084,1,4,24,0,TRUE,8,1,1,1,TRUE,FALSE,low_2,0.75,-1,3,,,,,,,,,,,165,4,3.2.2021,164.9563443
229,"['high', 4]",4,black,45,right,up,high,black_high_45_up,white_high_135_up,7,right,0.3764938,1,7,17,1,FALSE,4,0,1,1,TRUE,FALSE,high_4,0.75,-1,3,,,,,,,,,,,165,4,3.2.2021,164.9563443
230,"['high', 4]",4,white,135,right,down,high,white_high_135_down,black_high_45_down,6,right,0.6772961,1,6,18,1,FALSE,4,0,1,1,TRUE,FALSE,high_4,0.75,-1,3,,,,,,,,,,,165,4,3.2.2021,164.9563443
231,"['low', 1]",1,white,135,right,up,low,white_low_135_up,black_low_45_up,8,right,0.157798,1,8,32,0,TRUE,13,1,1,1,TRUE,FALSE,low_1,0.75,-1,3,,,,,,,,,,,165,4,3.2.2021,164.9563443
232,"['low', 4]",4,black,135,left,down,low,black_low_135_down,white_low_45_down,4,left,0.2864054,1,4,22,0,TRUE,9,1,1,1,TRUE,FALSE,low_4,0.75,-1,3,,,,,,,,,,,165,4,3.2.2021,164.9563443
233,"['high', 1]",1,black,45,right,down,high,black_high_45_down,white_high_135_down,11,left,0.8898234,0,11,21,0,TRUE,6,1,1,1,TRUE,FALSE,high_1,0.75,-1,3,,,,,,,,,,,165,4,3.2.2021,164.9563443
234,"['high', 4]",4,white,135,right,down,high,white_high_135_down,black_high_45_down,5,right,0.2063463,1,5,19,1,FALSE,4,0,1,1,TRUE,FALSE,high_4,0.75,-1,3,,,,,,,,,,,165,4,3.2.2021,164.9563443
235,"['high', 3]",3,white,135,right,down,high,white_high_135_down,black_high_45_down,6,right,0.0322071,1,6,22,1,FALSE,6,1,1,1,TRUE,FALSE,high_3,0.75,-1,3,,,,,,,,,,,165,4,3.2.2021,164.9563443
236,"['high', 3]",3,black,45,right,down,high,black_high_45_down,white_high_135_down,5,right,0.2904364,1,5,23,1,FALSE,6,1,1,1,TRUE,FALSE,high_3,0.75,-1,3,,,,,,,,,,,165,4,3.2.2021,164.9563443
237,"['high', 1]",1,white,135,right,down,high,white_high_135_down,black_high_45_down,14,right,0.0928023,1,14,22,0,FALSE,6,1,1,1,TRUE,FALSE,high_1,0.75,-1,3,,,,,,,,,,,165,4,3.2.2021,164.9563443
238,"['high', 4]",4,black,135,left,down,high,black_high_135_down,white_high_45_down,4,left,0.5057416,1,4,20,1,FALSE,4,0,1,1,TRUE,FALSE,high_4,0.75,-1,3,,,,,,,,,,,165,4,3.2.2021,164.9563443
239,"['high', 2]",2,white,135,right,up,high,white_high_135_up,black_high_45_up,9,right,0.194611,1,9,19,0,TRUE,9,1,1,1,TRUE,FALSE,high_2,0.75,-1,3,,,,,,,,,,,165,4,3.2.2021,164.9563443
240,"['high', 3]",3,black,45,right,down,high,black_high_45_down,white_high_135_down,4,right,0.5544995,1,4,24,1,FALSE,6,1,1,1,TRUE,FALSE,high_3,0.75,-1,3,,,,,,,,,,,165,4,3.2.2021,164.9563443
241,"['high', 6]",6,black,135,left,up,high,black_high_135_up,white_high_45_up,4,left,0.3872988,1,4,24,1,FALSE,7,1,1,1,TRUE,FALSE,high_6,0.75,-1,3,,,,,,,,,,,165,4,3.2.2021,164.9563443
242,"['high', 3]",3,black,45,right,up,high,black_high_45_up,white_high_135_up,3,left,0.7447985,0,3,25,1,FALSE,6,1,1,1,TRUE,FALSE,high_3,0.75,-1,3,,,,,,,,,,,165,4,3.2.2021,164.9563443
243,"['high', 6]",6,white,45,left,up,high,white_high_45_up,black_high_135_up,3,left,0.2826387,1,3,25,1,FALSE,7,1,1,1,TRUE,FALSE,high_6,0.75,-1,3,,,,,,,,,,,165,4,3.2.2021,164.9563443
244,"['low', 6]",6,black,45,right,up,low,black_low_45_up,white_low_135_up,3,right,0.0813509,1,3,25,1,TRUE,8,1,1,1,TRUE,FALSE,low_6,0.75,-1,3,,,,,,,,,,,165,4,3.2.2021,164.9563443
245,"['high', 4]",4,white,45,left,down,high,white_high_45_down,black_high_135_down,3,right,0.705228,0,3,21,1,FALSE,4,0,1,1,TRUE,FALSE,high_4,0.75,-1,3,,,,,,,,,,,165,4,3.2.2021,164.9563443
246,"['low', 3]",3,black,135,left,down,low,black_low_135_down,white_low_45_down,1,left,0.5977761,1,1,22,1,FALSE,7,1,1,1,TRUE,FALSE,low_3,0.75,-1,3,,,,,,,,,,,165,4,3.2.2021,164.9563443
247,"['high', 2]",2,black,45,right,down,high,black_high_45_down,white_high_135_down,8,right,0.2395087,1,8,20,1,TRUE,10,1,1,1,TRUE,FALSE,high_2,0.75,-1,3,,,,,,,,,,,165,4,3.2.2021,164.9563443
248,"['low', 4]",4,black,135,left,down,low,black_low_135_down,white_low_45_down,3,left,0.2306131,1,3,23,1,TRUE,10,1,1,1,TRUE,FALSE,low_4,0.75,-1,3,,,,,,,,,,,165,4,3.2.2021,164.9563443
249,"['low', 4]",4,white,135,right,up,low,white_low_135_up,black_low_45_up,2,right,0.2674311,1,2,24,1,FALSE,10,1,1,1,TRUE,FALSE,low_4,0.75,-1,3,,,,,,,,,,,165,4,3.2.2021,164.9563443
250,"['low', 3]",3,black,135,left,up,low,black_low_135_up,white_low_45_up,1,left,0.6034569,1,1,23,1,FALSE,7,1,1,1,TRUE,FALSE,low_3,0.75,-1,3,,,,,,,,,,,165,4,3.2.2021,164.9563443
251,"['low', 3]",3,white,45,left,down,low,white_low_45_down,black_low_135_down,1,left,0.4422696,1,1,24,1,FALSE,7,1,1,1,TRUE,FALSE,low_3,0.75,-1,3,,,,,,,,,,,165,4,3.2.2021,164.9563443
252,"['low', 6]",6,black,135,left,up,low,black_low_135_up,white_low_45_up,2,left,0.148011,1,2,26,1,FALSE,8,1,1,1,TRUE,FALSE,low_6,0.75,-1,3,,,,,,,,,,,165,4,3.2.2021,164.9563443
253,"['high', 3]",3,black,45,right,up,high,black_high_45_up,white_high_135_up,6,right,0.4974542,1,6,26,0,TRUE,7,1,1,1,TRUE,FALSE,high_3,0.75,-1,3,,,,,,,,,,,165,4,3.2.2021,164.9563443
254,"['high', 6]",6,black,45,right,down,high,black_high_45_down,white_high_135_down,2,right,0.7079174,1,2,26,1,FALSE,7,1,1,1,TRUE,FALSE,high_6,0.75,-1,3,,,,,,,,,,,165,4,3.2.2021,164.9563443
255,"['low', 4]",4,black,45,right,down,low,black_low_45_down,white_low_135_down,1,left,0.5534781,0,1,25,1,FALSE,10,1,1,1,TRUE,FALSE,low_4,0.75,-1,3,,,,,,,,,,,165,4,3.2.2021,164.9563443
256,"['low', 3]",3,white,135,right,down,low,white_low_135_down,black_low_45_down,1,right,0.5993577,1,1,25,1,FALSE,7,1,1,1,TRUE,FALSE,low_3,0.75,-1,3,,,,,,,,,,,165,4,3.2.2021,164.9563443
257,"['high', 2]",2,black,45,right,up,high,black_high_45_up,white_high_135_up,7,right,0.4181255,1,7,21,1,FALSE,10,1,1,1,TRUE,FALSE,high_2,0.75,-1,3,,,,,,,,,,,165,4,3.2.2021,164.9563443
258,"['low', 3]",3,black,135,left,up,low,black_low_135_up,white_low_45_up,1,left,0.2750092,1,1,26,1,FALSE,7,1,1,1,TRUE,FALSE,low_3,0.75,-1,3,,,,,,,,,,,165,4,3.2.2021,164.9563443
259,"['low', 2]",2,white,45,left,up,low,white_low_45_up,black_low_135_up,3,left,0.3941346,1,3,25,1,TRUE,9,1,1,1,TRUE,FALSE,low_2,0.75,-1,3,,,,,,,,,,,165,4,3.2.2021,164.9563443
260,"['high', 4]",4,black,45,right,down,high,black_high_45_down,white_high_135_down,6,left,0.400644,0,6,22,0,TRUE,5,1,1,1,TRUE,FALSE,high_4,0.75,-1,3,,,,,,,,,,,165,4,3.2.2021,164.9563443
261,"['high', 1]",1,white,135,right,down,high,white_high_135_down,black_high_45_down,13,right,0.2705906,1,13,23,1,TRUE,7,1,1,1,TRUE,FALSE,high_1,0.75,-1,3,,,,,,,,,,,165,4,3.2.2021,164.9563443
262,"['high', 1]",1,black,45,right,down,high,black_high_45_down,white_high_135_down,12,left,0.3619003,0,12,24,1,FALSE,7,1,1,1,TRUE,FALSE,high_1,0.75,-1,3,,,,,,,,,,,165,4,3.2.2021,164.9563443
263,"['high', 6]",6,white,135,right,down,high,white_high_135_down,black_high_45_down,1,right,0.5244915,1,1,27,1,FALSE,7,1,1,1,TRUE,FALSE,high_6,0.75,-1,3,,,,,,,,,,,165,4,3.2.2021,164.9563443
264,"['low', 4]",4,black,45,right,up,low,black_low_45_up,white_low_135_up,4,right,0.0171337,1,4,26,0,TRUE,11,1,1,1,TRUE,FALSE,low_4,0.75,-1,3,,,,,,,,,,,165,4,3.2.2021,164.9563443
265,"['high', 6]",6,black,45,right,down,high,black_high_45_down,white_high_135_down,1,right,0.3076912,1,1,28,1,FALSE,7,1,1,1,TRUE,FALSE,high_6,0.75,-1,3,,,,,,,,,,,165,4,3.2.2021,164.9563443
266,"['low', 4]",4,black,45,right,up,low,black_low_45_up,white_low_135_up,3,right,0.1520952,1,3,27,1,TRUE,12,1,1,1,TRUE,FALSE,low_4,0.75,-1,3,,,,,,,,,,,165,4,3.2.2021,164.9563443
267,"['high', 6]",6,white,45,left,up,high,white_high_45_up,black_high_135_up,1,left,0.6248949,1,1,29,1,FALSE,7,1,1,1,TRUE,FALSE,high_6,0.75,-1,3,,,,,,,,,,,165,4,3.2.2021,164.9563443
268,"['low', 4]",4,white,45,left,up,low,white_low_45_up,black_low_135_up,2,left,0.024449,1,2,28,1,FALSE,12,1,1,1,TRUE,FALSE,low_4,0.75,-1,3,,,,,,,,,,,165,4,3.2.2021,164.9563443
269,"['high', 4]",4,black,135,left,up,high,black_high_135_up,white_high_45_up,9,right,0.3830701,0,9,23,0,FALSE,5,1,1,1,TRUE,FALSE,high_4,0.75,-1,3,,,,,,,,,,,165,4,3.2.2021,164.9563443
270,"['high', 3]",3,black,45,right,down,high,black_high_45_down,white_high_135_down,5,right,0.3028477,1,5,27,1,TRUE,8,1,1,1,TRUE,FALSE,high_3,0.75,-1,3,,,,,,,,,,,165,4,3.2.2021,164.9563443
271,"['low', 1]",1,black,135,left,up,low,black_low_135_up,white_low_45_up,7,left,0.6163107,1,7,33,1,TRUE,14,1,1,1,TRUE,FALSE,low_1,0.75,-1,3,,,,,,,,,,,165,4,3.2.2021,164.9563443
272,"['low', 2]",2,black,135,left,up,low,black_low_135_up,white_low_45_up,2,left,0.3763622,1,2,26,1,FALSE,9,1,1,1,TRUE,FALSE,low_2,0.75,-1,3,,,,,,,,,,,165,4,3.2.2021,164.9563443
273,"['low', 1]",1,black,135,left,up,low,black_low_135_up,white_low_45_up,6,left,0.7984348,1,6,34,1,FALSE,14,1,1,1,TRUE,FALSE,low_1,0.75,-1,3,,,,,,,,,,,165,4,3.2.2021,164.9563443
274,"['low', 6]",6,white,45,left,up,low,white_low_45_up,black_low_135_up,1,left,0.0845446,1,1,27,1,FALSE,8,1,1,1,TRUE,FALSE,low_6,0.75,-1,3,,,,,,,,,,,165,4,3.2.2021,164.9563443
275,"['low', 3]",3,white,135,right,down,low,white_low_135_down,black_low_45_down,1,right,0.2414859,1,1,27,1,FALSE,7,1,1,1,TRUE,FALSE,low_3,0.75,-1,3,,,,,,,,,,,165,4,3.2.2021,164.9563443
276,"['high', 4]",4,white,135,right,down,high,white_high_135_down,black_high_45_down,12,right,0.524675,1,12,24,0,FALSE,5,1,1,1,TRUE,FALSE,high_4,0.75,-1,3,,,,,,,,,,,165,4,3.2.2021,164.9563443
277,"['high', 2]",2,black,45,right,down,high,black_high_45_down,white_high_135_down,6,left,0.275839,0,6,22,1,FALSE,10,1,1,1,TRUE,FALSE,high_2,0.75,-1,3,,,,,,,,,,,165,4,3.2.2021,164.9563443
278,"['low', 6]",6,white,45,left,down,low,white_low_45_down,black_low_135_down,1,left,0.3787649,1,1,28,1,FALSE,8,1,1,1,TRUE,FALSE,low_6,0.75,-1,3,,,,,,,,,,,165,4,3.2.2021,164.9563443
279,"['low', 6]",6,black,45,right,down,low,black_low_45_down,white_low_135_down,1,right,0.1741316,1,1,29,1,FALSE,8,1,1,1,TRUE,FALSE,low_6,0.75,-1,3,,,,,,,,,,,165,4,3.2.2021,164.9563443
280,"['low', 4]",4,white,135,right,up,low,white_low_135_up,black_low_45_up,1,right,0.7236194,1,1,29,1,FALSE,12,1,1,1,TRUE,FALSE,low_4,0.75,-1,3,,,,,,,,,,,165,4,3.2.2021,164.9563443
281,"['low', 1]",1,black,135,left,down,low,black_low_135_down,white_low_45_down,5,right,0.3685364,0,5,35,1,FALSE,14,1,1,1,TRUE,FALSE,low_1,0.75,-1,3,,,,,,,,,,,165,4,3.2.2021,164.9563443
282,"['high', 1]",1,black,45,right,up,high,black_high_45_up,white_high_135_up,15,left,0.9185815,0,15,25,0,TRUE,8,1,1,1,TRUE,FALSE,high_1,0.75,-1,3,,,,,,,,,,,165,4,3.2.2021,164.9563443
283,"['low', 2]",2,white,135,right,up,low,white_low_135_up,black_low_45_up,1,left,0.276419,0,1,27,1,FALSE,9,1,1,1,TRUE,FALSE,low_2,0.75,-1,3,,,,,,,,,,,165,4,3.2.2021,164.9563443
284,"['low', 1]",1,black,45,right,up,low,black_low_45_up,white_low_135_up,8,left,0.639254,0,8,36,0,TRUE,15,1,1,1,TRUE,FALSE,low_1,0.75,-1,3,,,,,,,,,,,165,4,3.2.2021,164.9563443
285,"['low', 4]",4,black,135,left,up,low,black_low_135_up,white_low_45_up,1,right,0.0544475,0,1,30,1,FALSE,12,1,1,1,TRUE,FALSE,low_4,0.75,-1,3,,,,,,,,,,,165,4,3.2.2021,164.9563443
286,"['low', 2]",2,black,45,right,down,low,black_low_45_down,white_low_135_down,4,right,0.3831041,1,4,28,0,TRUE,10,1,1,1,TRUE,FALSE,low_2,0.75,-1,3,,,,,,,,,,,165,4,3.2.2021,164.9563443
287,"['low', 6]",6,black,45,right,up,low,black_low_45_up,white_low_135_up,1,right,0.2098482,1,1,30,1,FALSE,8,1,1,1,TRUE,FALSE,low_6,0.75,-1,3,,,,,,,,,,,165,4,3.2.2021,164.9563443
288,"['high', 1]",1,white,135,right,down,high,white_high_135_down,black_high_45_down,18,right,0.0853941,1,18,26,0,FALSE,8,1,1,1,TRUE,FALSE,high_1,0.75,-1,3,,,,,,,,,,,165,4,3.2.2021,164.9563443
289,"['high', 3]",3,white,135,right,up,high,white_high_135_up,black_high_45_up,4,left,0.3030188,0,4,28,1,FALSE,8,1,1,1,TRUE,FALSE,high_3,0.75,-1,3,,,,,,,,,,,165,4,3.2.2021,164.9563443
290,"['high', 4]",4,white,45,left,up,high,white_high_45_up,black_high_135_up,11,left,0.4101631,1,11,25,1,TRUE,6,1,1,1,TRUE,FALSE,high_4,0.75,-1,3,,,,,,,,,,,165,4,3.2.2021,164.9563443
291,"['low', 1]",1,white,45,left,down,low,white_low_45_down,black_low_135_down,11,left,0.233152,1,11,37,0,FALSE,15,1,1,1,TRUE,FALSE,low_1,0.75,-1,3,,,,,,,,,,,165,4,3.2.2021,164.9563443
292,"['high', 6]",6,black,135,left,up,high,black_high_135_up,white_high_45_up,1,left,0.8106814,1,1,30,1,FALSE,7,1,1,1,TRUE,FALSE,high_6,0.75,-1,3,,,,,,,,,,,165,4,3.2.2021,164.9563443
293,"['high', 1]",1,white,45,left,up,high,white_high_45_up,black_high_135_up,17,left,0.1810194,1,17,27,1,TRUE,9,1,1,1,TRUE,FALSE,high_1,0.75,-1,3,,,,,,,,,,,165,4,3.2.2021,164.9563443
294,"['high', 6]",6,black,135,left,down,high,black_high_135_down,white_high_45_down,1,left,0.7328459,1,1,31,1,FALSE,7,1,1,1,TRUE,FALSE,high_6,0.75,-1,3,,,,,,,,,,,165,4,3.2.2021,164.9563443
295,"['high', 6]",6,black,135,left,down,high,black_high_135_down,white_high_45_down,1,left,0.2497118,1,1,32,1,FALSE,7,1,1,1,TRUE,FALSE,high_6,0.75,-1,3,,,,,,,,,,,165,4,3.2.2021,164.9563443
296,"['high', 1]",1,black,135,left,up,high,black_high_135_up,white_high_45_up,16,left,0.254797,1,16,28,1,FALSE,9,1,1,1,TRUE,FALSE,high_1,0.75,-1,3,,,,,,,,,,,165,4,3.2.2021,164.9563443
297,"['high', 4]",4,black,45,right,up,high,black_high_45_up,white_high_135_up,10,right,0.4893609,1,10,26,1,FALSE,6,1,1,1,TRUE,FALSE,high_4,0.75,-1,3,,,,,,,,,,,165,4,3.2.2021,164.9563443
298,"['low', 2]",2,white,45,left,down,low,white_low_45_down,black_low_135_down,3,left,0.0889288,1,3,29,1,TRUE,11,1,1,1,TRUE,FALSE,low_2,0.75,-1,3,,,,,,,,,,,165,4,3.2.2021,164.9563443
299,"['low', 1]",1,black,45,right,up,low,black_low_45_up,white_low_135_up,10,right,0.6383305,1,10,38,1,TRUE,16,1,1,1,TRUE,FALSE,low_1,0.75,-1,3,,,,,,,,,,,165,4,3.2.2021,164.9563443
300,"['low', 2]",2,white,45,left,down,low,white_low_45_down,black_low_135_down,2,left,0.2083248,1,2,30,1,FALSE,11,1,1,1,TRUE,FALSE,low_2,0.75,-1,3,,,,,,,,,,,165,4,3.2.2021,164.9563443
301,"['high', 6]",6,black,135,left,down,high,black_high_135_down,white_high_45_down,1,left,0.4655897,1,1,33,1,FALSE,7,1,1,1,TRUE,FALSE,high_6,0.75,-1,3,,,,,,,,,,,165,4,3.2.2021,164.9563443
302,"['high', 1]",1,black,45,right,down,high,black_high_45_down,white_high_135_down,15,left,0.0491614,0,15,29,1,FALSE,9,1,1,1,TRUE,FALSE,high_1,0.75,-1,3,,,,,,,,,,,165,4,3.2.2021,164.9563443
303,"['high', 1]",1,black,45,right,up,high,black_high_45_up,white_high_135_up,18,right,0.1292683,1,18,30,0,TRUE,10,1,1,1,TRUE,FALSE,high_1,0.75,-1,3,,,,,,,,,,,165,4,3.2.2021,164.9563443
304,"['high', 2]",2,black,135,left,down,high,black_high_135_down,white_high_45_down,9,left,0.2101233,1,9,23,0,TRUE,11,1,1,1,TRUE,FALSE,high_2,0.75,-1,3,,,,,,,,,,,165,4,3.2.2021,164.9563443
305,"['low', 4]",4,white,135,right,down,low,white_low_135_down,black_low_45_down,4,right,0.1710327,1,4,31,0,TRUE,13,1,1,1,TRUE,FALSE,low_4,0.75,-1,3,,,,,,,,,,,165,4,3.2.2021,164.9563443
306,"['high', 2]",2,black,45,right,down,high,black_high_45_down,white_high_135_down,8,left,0.4686439,0,8,24,1,TRUE,12,1,1,1,TRUE,FALSE,high_2,0.75,-1,3,,,,,,,,,,,165,4,3.2.2021,164.9563443
307,"['high', 3]",3,white,135,right,down,high,white_high_135_down,black_high_45_down,7,right,0.0306209,1,7,29,0,TRUE,9,1,1,1,TRUE,FALSE,high_3,0.75,-1,3,,,,,,,,,,,165,4,3.2.2021,164.9563443
308,"['high', 1]",1,white,135,right,down,high,white_high_135_down,black_high_45_down,17,right,0.0698492,1,17,31,1,TRUE,11,1,1,1,TRUE,FALSE,high_1,0.75,-1,3,,,,,,,,,,,165,4,3.2.2021,164.9563443
309,"['high', 1]",1,white,135,right,up,high,white_high_135_up,black_high_45_up,16,right,0.0730037,1,16,32,1,FALSE,11,1,1,1,TRUE,FALSE,high_1,0.75,-1,3,,,,,,,,,,,165,4,3.2.2021,164.9563443
310,"['high', 3]",3,white,45,left,down,high,white_high_45_down,black_high_135_down,6,left,0.0093978,1,6,30,1,TRUE,10,1,1,1,TRUE,FALSE,high_3,0.75,-1,3,,,,,,,,,,,165,4,3.2.2021,164.9563443
311,"['low', 4]",4,white,135,right,down,low,white_low_135_down,black_low_45_down,3,right,0.4011439,1,3,32,1,TRUE,14,1,1,1,TRUE,FALSE,low_4,0.75,-1,3,,,,,,,,,,,165,4,3.2.2021,164.9563443
312,"['low', 2]",2,white,45,left,up,low,white_low_45_up,black_low_135_up,1,left,0.7414741,1,1,31,1,FALSE,11,1,1,1,TRUE,FALSE,low_2,0.75,-1,3,,,,,,,,,,,165,4,3.2.2021,164.9563443
313,"['high', 4]",4,white,45,left,up,high,white_high_45_up,black_high_135_up,9,left,0.0351732,1,9,27,1,FALSE,6,1,1,1,TRUE,FALSE,high_4,0.75,-1,3,,,,,,,,,,,165,4,3.2.2021,164.9563443
314,"['high', 6]",6,white,45,left,down,high,white_high_45_down,black_high_135_down,1,left,0.5978982,1,1,34,1,FALSE,7,1,1,1,TRUE,FALSE,high_6,0.75,-1,3,,,,,,,,,,,165,4,3.2.2021,164.9563443
315,"['low', 3]",3,black,135,left,down,low,black_low_135_down,white_low_45_down,1,left,0.3688585,1,1,28,1,FALSE,7,1,1,1,TRUE,FALSE,low_3,0.75,-1,3,,,,,,,,,,,165,4,3.2.2021,164.9563443
316,"['low', 1]",1,white,45,left,up,low,white_low_45_up,black_low_135_up,9,left,0.1395165,1,9,39,1,FALSE,16,1,1,1,TRUE,FALSE,low_1,0.75,-1,3,,,,,,,,,,,165,4,3.2.2021,164.9563443
317,"['low', 6]",6,white,45,left,up,low,white_low_45_up,black_low_135_up,1,left,0.4995639,1,1,31,1,FALSE,8,1,1,1,TRUE,FALSE,low_6,0.75,-1,3,,,,,,,,,,,165,4,3.2.2021,164.9563443
318,"['low', 3]",3,black,135,left,up,low,black_low_135_up,white_low_45_up,1,right,0.2660623,0,1,29,1,FALSE,7,1,1,1,TRUE,FALSE,low_3,0.75,-1,3,,,,,,,,,,,165,4,3.2.2021,164.9563443
319,"['high', 4]",4,black,135,left,up,high,black_high_135_up,white_high_45_up,8,right,0.4327453,0,8,28,1,FALSE,6,1,1,1,TRUE,FALSE,high_4,0.75,-1,3,,,,,,,,,,,165,4,3.2.2021,164.9563443
320,"['high', 4]",4,black,45,right,down,high,black_high_45_down,white_high_135_down,11,right,0.1380467,1,11,29,0,TRUE,7,1,1,1,TRUE,FALSE,high_4,0.75,-1,3,,,,,,,,,,,165,4,3.2.2021,164.9563443
321,"['high', 6]",6,black,135,left,down,high,black_high_135_down,white_high_45_down,1,left,0.4400132,1,1,35,1,FALSE,7,1,1,1,TRUE,FALSE,high_6,0.75,-1,3,,,,,,,,,,,165,4,3.2.2021,164.9563443
322,"['high', 6]",6,white,135,right,down,high,white_high_135_down,black_high_45_down,1,right,0.2814075,1,1,36,1,FALSE,7,1,1,1,TRUE,FALSE,high_6,0.75,-1,3,,,,,,,,,,,165,4,3.2.2021,164.9563443
323,"['high', 2]",2,white,135,right,down,high,white_high_135_down,black_high_45_down,11,right,0.1152962,1,11,25,0,TRUE,13,1,1,1,TRUE,FALSE,high_2,0.75,-1,3,,,,,,,,,,,165,4,3.2.2021,164.9563443
324,"['low', 6]",6,white,135,right,up,low,white_low_135_up,black_low_45_up,1,right,0.3462862,1,1,32,1,FALSE,8,1,1,1,TRUE,FALSE,low_6,0.75,-1,3,,,,,,,,,,,165,4,3.2.2021,164.9563443
325,"['low', 4]",4,black,45,right,down,low,black_low_45_down,white_low_135_down,2,right,0.1531871,1,2,33,1,FALSE,14,1,1,1,TRUE,FALSE,low_4,0.75,-1,3,,,,,,,,,,,165,4,3.2.2021,164.9563443
326,"['high', 4]",4,white,135,right,down,high,white_high_135_down,black_high_45_down,10,right,0.421603,1,10,30,1,TRUE,8,1,1,1,TRUE,FALSE,high_4,0.75,-1,3,,,,,,,,,,,165,4,3.2.2021,164.9563443
327,"['high', 2]",2,black,135,left,up,high,black_high_135_up,white_high_45_up,10,left,0.0933847,1,10,26,1,TRUE,14,1,1,1,TRUE,FALSE,high_2,0.75,-1,3,,,,,,,,,,,165,4,3.2.2021,164.9563443
328,"['high', 2]",2,white,45,left,up,high,white_high_45_up,black_high_135_up,9,left,0.0447972,1,9,27,1,FALSE,14,1,1,1,TRUE,FALSE,high_2,0.75,-1,3,,,,,,,,,,,165,4,3.2.2021,164.9563443
329,"['high', 1]",1,white,45,left,up,high,white_high_45_up,black_high_135_up,15,left,0.1785798,1,15,33,1,FALSE,11,1,1,1,TRUE,FALSE,high_1,0.75,-1,3,,,,,,,,,,,165,4,3.2.2021,164.9563443
330,"['high', 6]",6,white,45,left,up,high,white_high_45_up,black_high_135_up,1,left,0.6046241,1,1,37,1,FALSE,7,1,1,1,TRUE,FALSE,high_6,0.75,-1,3,,,,,,,,,,,165,4,3.2.2021,164.9563443
331,"['high', 2]",2,black,135,left,up,high,black_high_135_up,white_high_45_up,8,left,0.0985349,1,8,28,1,FALSE,14,1,1,1,TRUE,FALSE,high_2,0.75,-1,3,,,,,,,,,,,165,4,3.2.2021,164.9563443
332,"['low', 1]",1,black,135,left,up,low,black_low_135_up,white_low_45_up,8,left,0.8504737,1,8,40,1,FALSE,16,1,1,1,TRUE,FALSE,low_1,0.75,-1,3,,,,,,,,,,,165,4,3.2.2021,164.9563443
333,"['high', 3]",3,white,135,right,down,high,white_high_135_down,black_high_45_down,5,right,0.3375562,1,5,31,1,FALSE,10,1,1,1,TRUE,FALSE,high_3,0.75,-1,3,,,,,,,,,,,165,4,3.2.2021,164.9563443
334,"['high', 3]",3,black,45,right,up,high,black_high_45_up,white_high_135_up,4,left,0.6992001,0,4,32,1,FALSE,10,1,1,1,TRUE,FALSE,high_3,0.75,-1,3,,,,,,,,,,,165,4,3.2.2021,164.9563443
335,"['high', 3]",3,black,45,right,up,high,black_high_45_up,white_high_135_up,7,right,0.9417564,1,7,33,0,TRUE,11,1,1,1,TRUE,FALSE,high_3,0.75,-1,3,,,,,,,,,,,165,4,3.2.2021,164.9563443
336,"['low', 3]",3,white,135,right,down,low,white_low_135_down,black_low_45_down,4,right,0.3956466,1,4,30,0,TRUE,8,1,1,1,TRUE,FALSE,low_3,0.75,-1,3,,,,,,,,,,,165,4,3.2.2021,164.9563443
337,"['low', 6]",6,white,135,right,up,low,white_low_135_up,black_low_45_up,1,right,0.2832254,1,1,33,1,FALSE,8,1,1,1,TRUE,FALSE,low_6,0.75,-1,3,,,,,,,,,,,165,4,3.2.2021,164.9563443
338,"['low', 3]",3,black,135,left,down,low,black_low_135_down,white_low_45_down,3,left,0.1486486,1,3,31,1,TRUE,9,1,1,1,TRUE,FALSE,low_3,0.75,-1,3,,,,,,,,,,,165,4,3.2.2021,164.9563443
339,"['high', 4]",4,white,135,right,down,high,white_high_135_down,black_high_45_down,9,right,0.350567,1,9,31,1,FALSE,8,1,1,1,TRUE,FALSE,high_4,0.75,-1,3,,,,,,,,,,,165,4,3.2.2021,164.9563443
340,"['low', 4]",4,black,135,left,up,low,black_low_135_up,white_low_45_up,1,left,0.5010437,1,1,34,1,FALSE,14,1,1,1,TRUE,FALSE,low_4,0.75,-1,3,,,,,,,,,,,165,4,3.2.2021,164.9563443
341,"['high', 2]",2,white,45,left,up,high,white_high_45_up,black_high_135_up,7,left,0.3579497,1,7,29,1,FALSE,14,1,1,1,TRUE,FALSE,high_2,0.75,-1,3,,,,,,,,,,,165,4,3.2.2021,164.9563443
342,"['high', 3]",3,white,45,left,up,high,white_high_45_up,black_high_135_up,6,left,0.3957444,1,6,34,1,TRUE,12,1,1,1,TRUE,FALSE,high_3,0.75,-1,3,,,,,,,,,,,165,4,3.2.2021,164.9563443
343,"['low', 4]",4,white,45,left,down,low,white_low_45_down,black_low_135_down,1,left,0.3103399,1,1,35,1,FALSE,14,1,1,1,TRUE,FALSE,low_4,0.75,-1,3,,,,,,,,,,,165,4,3.2.2021,164.9563443
344,"['high', 2]",2,white,45,left,up,high,white_high_45_up,black_high_135_up,6,left,0.0742187,1,6,30,1,FALSE,14,1,1,1,TRUE,FALSE,high_2,0.75,-1,3,,,,,,,,,,,165,4,3.2.2021,164.9563443
345,"['low', 2]",2,black,45,right,down,low,black_low_45_down,white_low_135_down,1,right,0.2202017,1,1,32,1,FALSE,11,1,1,1,TRUE,FALSE,low_2,0.75,-1,3,,,,,,,,,,,165,4,3.2.2021,164.9563443
346,"['low', 6]",6,black,45,right,down,low,black_low_45_down,white_low_135_down,1,right,0.0653415,1,1,34,1,FALSE,8,1,1,1,TRUE,FALSE,low_6,0.75,-1,3,,,,,,,,,,,165,4,3.2.2021,164.9563443
347,"['low', 6]",6,black,45,right,up,low,black_low_45_up,white_low_135_up,1,right,0.1123829,1,1,35,1,FALSE,8,1,1,1,TRUE,FALSE,low_6,0.75,-1,3,,,,,,,,,,,165,4,3.2.2021,164.9563443
348,"['low', 1]",1,white,135,right,down,low,white_low_135_down,black_low_45_down,7,right,0.10096,1,7,41,1,FALSE,16,1,1,1,TRUE,FALSE,low_1,0.75,-1,3,,,,,,,,,,,165,4,3.2.2021,164.9563443
349,"['low', 6]",6,black,45,right,down,low,black_low_45_down,white_low_135_down,1,right,0.0549605,1,1,36,1,FALSE,8,1,1,1,TRUE,FALSE,low_6,0.75,-1,3,,,,,,,,,,,165,4,3.2.2021,164.9563443
350,"['low', 6]",6,black,45,right,down,low,black_low_45_down,white_low_135_down,1,right,0.4582583,1,1,37,1,FALSE,8,1,1,1,TRUE,FALSE,low_6,0.75,-1,3,,,,,,,,,,,165,4,3.2.2021,164.9563443
351,"['high', 1]",1,white,45,left,down,high,white_high_45_down,black_high_135_down,14,left,0.2914064,1,14,34,1,FALSE,11,1,1,1,TRUE,FALSE,high_1,0.75,-1,3,,,,,,,,,,,165,4,3.2.2021,164.9563443
352,"['low', 2]",2,black,135,left,down,low,black_low_135_down,white_low_45_down,1,right,0.0155302,0,1,33,1,FALSE,11,1,1,1,TRUE,FALSE,low_2,0.75,-1,3,,,,,,,,,,,165,4,3.2.2021,164.9563443
353,"['low', 6]",6,white,135,right,down,low,white_low_135_down,black_low_45_down,1,right,0.0821067,1,1,38,1,FALSE,8,1,1,1,TRUE,FALSE,low_6,0.75,-1,3,,,,,,,,,,,165,4,3.2.2021,164.9563443
354,"['low', 6]",6,white,135,right,down,low,white_low_135_down,black_low_45_down,1,right,0.0107161,1,1,39,1,FALSE,8,1,1,1,TRUE,FALSE,low_6,0.75,-1,3,,,,,,,,,,,165,4,3.2.2021,164.9563443
355,"['low', 1]",1,black,45,right,down,low,black_low_45_down,white_low_135_down,6,right,0.5143035,1,6,42,1,FALSE,16,1,1,1,TRUE,FALSE,low_1,0.75,-1,3,,,,,,,,,,,165,4,3.2.2021,164.9563443
356,"['high', 2]",2,black,45,right,down,high,black_high_45_down,white_high_135_down,5,right,0.1377127,1,5,31,1,FALSE,14,1,1,1,TRUE,FALSE,high_2,0.75,-1,3,,,,,,,,,,,165,4,3.2.2021,164.9563443
357,"['low', 2]",2,white,135,right,up,low,white_low_135_up,black_low_45_up,4,right,0.021286,1,4,34,0,TRUE,12,1,1,1,TRUE,FALSE,low_2,0.75,-1,3,,,,,,,,,,,165,4,3.2.2021,164.9563443
358,"['high', 2]",2,black,45,right,down,high,black_high_45_down,white_high_135_down,4,right,0.162167,1,4,32,1,FALSE,14,1,1,1,TRUE,FALSE,high_2,0.75,-1,3,,,,,,,,,,,165,4,3.2.2021,164.9563443
359,"['high', 6]",6,white,45,left,down,high,white_high_45_down,black_high_135_down,1,left,0.2198826,1,1,38,1,FALSE,7,1,1,1,TRUE,FALSE,high_6,0.75,-1,3,,,,,,,,,,,165,4,3.2.2021,164.9563443
360,"['low', 4]",4,black,45,right,up,low,black_low_45_up,white_low_135_up,1,left,0.2904415,0,1,36,1,FALSE,14,1,1,1,TRUE,FALSE,low_4,0.75,-1,3,,,,,,,,,,,165,4,3.2.2021,164.9563443
361,"['high', 3]",3,white,135,right,up,high,white_high_135_up,black_high_45_up,5,right,0.4314469,1,5,35,1,FALSE,12,1,1,1,TRUE,FALSE,high_3,0.75,-1,3,,,,,,,,,,,165,4,3.2.2021,164.9563443
362,"['low', 3]",3,black,135,left,down,low,black_low_135_down,white_low_45_down,2,left,0.3280844,1,2,32,1,FALSE,9,1,1,1,TRUE,FALSE,low_3,0.75,-1,3,,,,,,,,,,,165,4,3.2.2021,164.9563443
363,"['high', 6]",6,black,135,left,down,high,black_high_135_down,white_high_45_down,1,left,0.1799435,1,1,39,1,FALSE,7,1,1,1,TRUE,FALSE,high_6,0.75,-1,3,,,,,,,,,,,165,4,3.2.2021,164.9563443
364,"['high', 4]",4,white,135,right,up,high,white_high_135_up,black_high_45_up,8,right,0.1407234,1,8,32,1,FALSE,8,1,1,1,TRUE,FALSE,high_4,0.75,-1,3,,,,,,,,,,,165,4,3.2.2021,164.9563443
365,"['high', 3]",3,black,45,right,down,high,black_high_45_down,white_high_135_down,4,right,0.2504357,1,4,36,1,FALSE,12,1,1,1,TRUE,FALSE,high_3,0.75,-1,3,,,,,,,,,,,165,4,3.2.2021,164.9563443
366,"['low', 4]",4,white,135,right,up,low,white_low_135_up,black_low_45_up,4,right,0.2229517,1,4,37,0,TRUE,15,1,1,1,TRUE,FALSE,low_4,0.75,-1,3,,,,,,,,,,,165,4,3.2.2021,164.9563443
367,"['high', 6]",6,black,135,left,down,high,black_high_135_down,white_high_45_down,1,left,0.400531,1,1,40,1,FALSE,7,1,1,1,TRUE,FALSE,high_6,0.75,-1,3,,,,,,,,,,,165,4,3.2.2021,164.9563443
368,"['low', 1]",1,white,135,right,up,low,white_low_135_up,black_low_45_up,5,right,0.2409337,1,5,43,1,FALSE,16,1,1,1,TRUE,FALSE,low_1,0.75,-1,3,,,,,,,,,,,165,4,3.2.2021,164.9563443
369,"['high', 6]",6,white,135,right,down,high,white_high_135_down,black_high_45_down,1,left,0.1966717,0,1,41,1,FALSE,7,1,1,1,TRUE,FALSE,high_6,0.75,-1,3,,,,,,,,,,,165,4,3.2.2021,164.9563443
370,"['high', 4]",4,black,45,right,down,high,black_high_45_down,white_high_135_down,7,right,0.057376,1,7,33,1,FALSE,8,1,1,1,TRUE,FALSE,high_4,0.75,-1,3,,,,,,,,,,,165,4,3.2.2021,164.9563443
371,"['low', 1]",1,black,135,left,up,low,black_low_135_up,white_low_45_up,4,left,0.3328207,1,4,44,1,FALSE,16,1,1,1,TRUE,FALSE,low_1,0.75,-1,3,,,,,,,,,,,165,4,3.2.2021,164.9563443
372,"['low', 1]",1,white,135,right,down,low,white_low_135_down,black_low_45_down,3,right,0.7365605,1,3,45,1,FALSE,16,1,1,1,TRUE,FALSE,low_1,0.75,-1,3,,,,,,,,,,,165,4,3.2.2021,164.9563443
373,"['low', 2]",2,white,45,left,down,low,white_low_45_down,black_low_135_down,3,left,0.4263525,1,3,35,1,TRUE,13,1,1,1,TRUE,FALSE,low_2,0.75,-1,3,,,,,,,,,,,165,4,3.2.2021,164.9563443
374,"['low', 2]",2,black,135,left,down,low,black_low_135_down,white_low_45_down,2,left,0.4069648,1,2,36,1,FALSE,13,1,1,1,TRUE,FALSE,low_2,0.75,-1,3,,,,,,,,,,,165,4,3.2.2021,164.9563443
375,"['low', 2]",2,black,135,left,down,low,black_low_135_down,white_low_45_down,1,left,1.2249602,1,1,37,1,FALSE,13,1,1,1,TRUE,FALSE,low_2,0.75,-1,3,,,,,,,,,,,165,4,3.2.2021,164.9563443
376,"['high', 4]",4,white,135,right,down,high,white_high_135_down,black_high_45_down,6,right,0.4978697,1,6,34,1,FALSE,8,1,1,1,TRUE,FALSE,high_4,0.75,-1,3,,,,,,,,,,,165,4,3.2.2021,164.9563443
377,"['high', 4]",4,black,135,left,down,high,black_high_135_down,white_high_45_down,5,left,0.0202751,1,5,35,1,FALSE,8,1,1,1,TRUE,FALSE,high_4,0.75,-1,3,,,,,,,,,,,165,4,3.2.2021,164.9563443
378,"['high', 4]",4,white,45,left,up,high,white_high_45_up,black_high_135_up,4,left,0.2116033,1,4,36,1,FALSE,8,1,1,1,TRUE,FALSE,high_4,0.75,-1,3,,,,,,,,,,,165,4,3.2.2021,164.9563443
379,"['low', 1]",1,white,135,right,down,low,white_low_135_down,black_low_45_down,2,right,0.320705,1,2,46,1,FALSE,16,1,1,1,TRUE,FALSE,low_1,0.75,-1,3,,,,,,,,,,,165,4,3.2.2021,164.9563443
380,"['low', 2]",2,black,135,left,up,low,black_low_135_up,white_low_45_up,1,left,0.4625397,1,1,38,1,FALSE,13,1,1,1,TRUE,FALSE,low_2,0.75,-1,3,,,,,,,,,,,165,4,3.2.2021,164.9563443
381,"['high', 2]",2,black,135,left,up,high,black_high_135_up,white_high_45_up,3,left,0.3413288,1,3,33,1,FALSE,14,1,1,1,TRUE,FALSE,high_2,0.75,-1,3,,,,,,,,,,,165,4,3.2.2021,164.9563443
382,"['high', 4]",4,white,45,left,down,high,white_high_45_down,black_high_135_down,3,left,0.2052957,1,3,37,1,FALSE,8,1,1,1,TRUE,FALSE,high_4,0.75,-1,3,,,,,,,,,,,165,4,3.2.2021,164.9563443
383,"['low', 6]",6,white,45,left,up,low,white_low_45_up,black_low_135_up,1,left,0.3477418,1,1,40,1,FALSE,8,1,1,1,TRUE,FALSE,low_6,0.75,-1,3,,,,,,,,,,,165,4,3.2.2021,164.9563443
384,"['low', 1]",1,white,135,right,down,low,white_low_135_down,black_low_45_down,1,right,0.5384629,1,1,47,1,FALSE,16,1,1,1,TRUE,FALSE,low_1,0.75,-1,3,,,,,,,,,,,165,4,3.2.2021,164.9563443
385,"['low', 4]",4,black,135,left,down,low,black_low_135_down,white_low_45_down,3,left,0.2323842,1,3,38,1,TRUE,16,1,1,1,TRUE,FALSE,low_4,0.75,-1,3,,,,,,,,,,,165,4,3.2.2021,164.9563443
386,"['high', 4]",4,white,45,left,up,high,white_high_45_up,black_high_135_up,2,left,0.4775387,1,2,38,1,FALSE,8,1,1,1,TRUE,FALSE,high_4,0.75,-1,3,,,,,,,,,,,165,4,3.2.2021,164.9563443
387,"['high', 2]",2,black,135,left,up,high,black_high_135_up,white_high_45_up,2,right,0.4617066,0,2,34,1,FALSE,14,1,1,1,TRUE,FALSE,high_2,0.75,-1,3,,,,,,,,,,,165,4,3.2.2021,164.9563443
388,"['high', 3]",3,white,45,left,up,high,white_high_45_up,black_high_135_up,3,left,0.0966559,1,3,37,1,FALSE,12,1,1,1,TRUE,FALSE,high_3,0.75,-1,3,,,,,,,,,,,165,4,3.2.2021,164.9563443
389,"['high', 2]",2,black,135,left,up,high,black_high_135_up,white_high_45_up,5,right,0.107634,0,5,35,0,TRUE,15,1,1,1,TRUE,FALSE,high_2,0.75,-1,3,,,,,,,,,,,165,4,3.2.2021,164.9563443
390,"['low', 3]",3,white,45,left,down,low,white_low_45_down,black_low_135_down,1,left,0.1611089,1,1,33,1,FALSE,9,1,1,1,TRUE,FALSE,low_3,0.75,-1,3,,,,,,,,,,,165,4,3.2.2021,164.9563443
391,"['high', 4]",4,black,45,right,down,high,black_high_45_down,white_high_135_down,1,right,0.2702481,1,1,39,1,FALSE,8,1,1,1,TRUE,FALSE,high_4,0.75,-1,3,,,,,,,,,,,165,4,3.2.2021,164.9563443
392,"['high', 1]",1,black,45,right,up,high,black_high_45_up,white_high_135_up,13,right,0.5610186,1,13,35,1,FALSE,11,1,1,1,TRUE,FALSE,high_1,0.75,-1,3,,,,,,,,,,,165,4,3.2.2021,164.9563443
393,"['low', 4]",4,white,45,left,up,low,white_low_45_up,black_low_135_up,2,left,0.0261962,1,2,39,1,FALSE,16,1,1,1,TRUE,FALSE,low_4,0.75,-1,3,,,,,,,,,,,165,4,3.2.2021,164.9563443
394,"['high', 1]",1,white,45,left,down,high,white_high_45_down,black_high_135_down,12,left,0.01948,1,12,36,1,FALSE,11,1,1,1,TRUE,FALSE,high_1,0.75,-1,3,,,,,,,,,,,165,4,3.2.2021,164.9563443
395,"['low', 1]",1,black,135,left,down,low,black_low_135_down,white_low_45_down,1,right,0.3016119,0,1,48,1,FALSE,16,1,1,1,TRUE,FALSE,low_1,0.75,-1,3,,,,,,,,,,,165,4,3.2.2021,164.9563443
396,"['high', 2]",2,white,45,left,up,high,white_high_45_up,black_high_135_up,8,left,0.1297063,1,8,36,0,FALSE,15,1,1,1,TRUE,FALSE,high_2,0.75,-1,3,,,,,,,,,,,165,4,3.2.2021,164.9563443
397,"['high', 2]",2,white,135,right,down,high,white_high_135_down,black_high_45_down,7,right,0.0148743,1,7,37,1,TRUE,16,1,1,1,TRUE,FALSE,high_2,0.75,-1,3,,,,,,,,,,,165,4,3.2.2021,164.9563443
398,"['low', 6]",6,white,135,right,up,low,white_low_135_up,black_low_45_up,1,right,0.2440867,1,1,41,1,FALSE,8,1,1,1,TRUE,FALSE,low_6,0.75,-1,3,,,,,,,,,,,165,4,3.2.2021,164.9563443
399,"['high', 4]",4,white,45,left,up,high,white_high_45_up,black_high_135_up,1,right,1.1137402,0,1,40,1,FALSE,8,1,1,1,TRUE,FALSE,high_4,0.75,-1,3,,,,,,,,,,,165,4,3.2.2021,164.9563443
400,"['low', 2]",2,black,135,left,down,low,black_low_135_down,white_low_45_down,1,left,1.5699336,1,1,39,1,FALSE,13,1,1,1,TRUE,FALSE,low_2,0.75,-1,3,,,,,,,,,,,165,4,3.2.2021,164.9563443
401,"['high', 3]",3,black,135,left,down,high,black_high_135_down,white_high_45_down,2,left,0.4557489,1,2,38,1,FALSE,12,1,1,1,TRUE,FALSE,high_3,0.75,-1,3,,,,,,,,,,,165,4,3.2.2021,164.9563443
402,"['high', 4]",4,white,135,right,down,high,white_high_135_down,black_high_45_down,4,right,0.046186,1,4,41,0,TRUE,9,1,1,1,TRUE,FALSE,high_4,0.75,-1,3,,,,,,,,,,,165,4,3.2.2021,164.9563443
403,"['low', 6]",6,white,45,left,down,low,white_low_45_down,black_low_135_down,1,left,0.021195,1,1,42,1,FALSE,8,1,1,1,TRUE,FALSE,low_6,0.75,-1,3,,,,,,,,,,,165,4,3.2.2021,164.9563443
404,"['low', 2]",2,white,135,right,up,low,white_low_135_up,black_low_45_up,1,right,0.5621747,1,1,40,1,FALSE,13,1,1,1,TRUE,FALSE,low_2,0.75,-1,3,,,,,,,,,,,165,4,3.2.2021,164.9563443
405,"['low', 4]",4,white,45,left,down,low,white_low_45_down,black_low_135_down,1,left,0.0689477,1,1,40,1,FALSE,16,1,1,1,TRUE,FALSE,low_4,0.75,-1,3,,,,,,,,,,,165,4,3.2.2021,164.9563443
406,"['low', 3]",3,black,135,left,up,low,black_low_135_up,white_low_45_up,1,left,0.3819212,1,1,34,1,FALSE,9,1,1,1,TRUE,FALSE,low_3,0.75,-1,3,,,,,,,,,,,165,4,3.2.2021,164.9563443
407,"['low', 4]",4,white,45,left,up,low,white_low_45_up,black_low_135_up,1,left,0.133703,1,1,41,1,FALSE,16,1,1,1,TRUE,FALSE,low_4,0.75,-1,3,,,,,,,,,,,165,4,3.2.2021,164.9563443
408,"['high', 6]",6,black,45,right,down,high,black_high_45_down,white_high_135_down,4,right,0.1520913,1,4,42,0,TRUE,8,1,1,1,TRUE,FALSE,high_6,0.75,-1,3,,,,,,,,,,,165,4,3.2.2021,164.9563443
409,"['low', 3]",3,black,45,right,up,low,black_low_45_up,white_low_135_up,1,right,0.6139396,1,1,35,1,FALSE,9,1,1,1,TRUE,FALSE,low_3,0.75,-1,3,,,,,,,,,,,165,4,3.2.2021,164.9563443
410,"['low', 4]",4,white,45,left,up,low,white_low_45_up,black_low_135_up,1,left,0.2546567,1,1,42,1,FALSE,16,1,1,1,TRUE,FALSE,low_4,0.75,-1,3,,,,,,,,,,,165,4,3.2.2021,164.9563443
411,"['high', 2]",2,black,45,right,up,high,black_high_45_up,white_high_135_up,6,left,0.4197469,0,6,38,1,FALSE,16,1,1,1,TRUE,FALSE,high_2,0.75,-1,3,,,,,,,,,,,165,4,3.2.2021,164.9563443
412,"['high', 2]",2,white,45,left,down,high,white_high_45_down,black_high_135_down,9,left,0.5212108,1,9,39,0,TRUE,17,1,1,1,TRUE,FALSE,high_2,0.75,-1,3,,,,,,,,,,,165,4,3.2.2021,164.9563443
413,"['high', 1]",1,white,45,left,down,high,white_high_45_down,black_high_135_down,11,left,0.1728462,1,11,37,1,FALSE,11,1,1,1,TRUE,FALSE,high_1,0.75,-1,3,,,,,,,,,,,165,4,3.2.2021,164.9563443
414,"['low', 4]",4,white,45,left,up,low,white_low_45_up,black_low_135_up,1,left,0.3291032,1,1,43,1,FALSE,16,1,1,1,TRUE,FALSE,low_4,0.75,-1,3,,,,,,,,,,,165,4,3.2.2021,164.9563443
415,"['high', 1]",1,white,135,right,up,high,white_high_135_up,black_high_45_up,10,right,0.1431726,1,10,38,1,FALSE,11,1,1,1,TRUE,FALSE,high_1,0.75,-1,3,,,,,,,,,,,165,4,3.2.2021,164.9563443
416,"['low', 2]",2,black,45,right,down,low,black_low_45_down,white_low_135_down,1,right,0.3368661,1,1,41,1,FALSE,13,1,1,1,TRUE,FALSE,low_2,0.75,-1,3,,,,,,,,,,,165,4,3.2.2021,164.9563443
417,"['low', 3]",3,black,135,left,up,low,black_low_135_up,white_low_45_up,1,left,0.4251522,1,1,36,1,FALSE,9,1,1,1,TRUE,FALSE,low_3,0.75,-1,3,,,,,,,,,,,165,4,3.2.2021,164.9563443
418,"['high', 3]",3,black,135,left,down,high,black_high_135_down,white_high_45_down,1,left,0.4843993,1,1,39,1,FALSE,12,1,1,1,TRUE,FALSE,high_3,0.75,-1,3,,,,,,,,,,,165,4,3.2.2021,164.9563443
419,"['high', 4]",4,white,135,right,up,high,white_high_135_up,black_high_45_up,3,left,0.2329699,0,3,42,1,TRUE,10,1,1,1,TRUE,FALSE,high_4,0.75,-1,3,,,,,,,,,,,165,4,3.2.2021,164.9563443
420,"['high', 4]",4,white,135,right,down,high,white_high_135_down,black_high_45_down,6,right,0.4529302,1,6,43,0,TRUE,11,1,1,1,TRUE,FALSE,high_4,0.75,-1,3,,,,,,,,,,,165,4,3.2.2021,164.9563443
421,"['low', 6]",6,white,135,right,up,low,white_low_135_up,black_low_45_up,1,right,0.7978785,1,1,43,1,FALSE,8,1,1,1,TRUE,FALSE,low_6,0.75,-1,3,,,,,,,,,,,165,4,3.2.2021,164.9563443
422,"['low', 4]",4,white,45,left,up,low,white_low_45_up,black_low_135_up,1,left,0.1053868,1,1,44,1,FALSE,16,1,1,1,TRUE,FALSE,low_4,0.75,-1,3,,,,,,,,,,,165,4,3.2.2021,164.9563443
423,"['low', 6]",6,white,45,left,down,low,white_low_45_down,black_low_135_down,1,left,0.0844173,1,1,44,1,FALSE,8,1,1,1,TRUE,FALSE,low_6,0.75,-1,3,,,,,,,,,,,165,4,3.2.2021,164.9563443
424,"['low', 6]",6,white,45,left,up,low,white_low_45_up,black_low_135_up,1,left,0.4951051,1,1,45,1,FALSE,8,1,1,1,TRUE,FALSE,low_6,0.75,-1,3,,,,,,,,,,,165,4,3.2.2021,164.9563443
425,"['low', 4]",4,black,45,right,down,low,black_low_45_down,white_low_135_down,1,right,0.3897978,1,1,45,1,FALSE,16,1,1,1,TRUE,FALSE,low_4,0.75,-1,3,,,,,,,,,,,165,4,3.2.2021,164.9563443
426,"['high', 1]",1,black,45,right,down,high,black_high_45_down,white_high_135_down,9,right,0.4252183,1,9,39,1,FALSE,11,1,1,1,TRUE,FALSE,high_1,0.75,-1,3,,,,,,,,,,,165,4,3.2.2021,164.9563443
427,"['low', 2]",2,white,45,left,up,low,white_low_45_up,black_low_135_up,1,left,0.3523302,1,1,42,1,FALSE,13,1,1,1,TRUE,FALSE,low_2,0.75,-1,3,,,,,,,,,,,165,4,3.2.2021,164.9563443
428,"['high', 1]",1,black,135,left,down,high,black_high_135_down,white_high_45_down,8,right,0.1067844,0,8,40,1,FALSE,11,1,1,1,TRUE,FALSE,high_1,0.75,-1,3,,,,,,,,,,,165,4,3.2.2021,164.9563443
429,"['high', 4]",4,black,135,left,up,high,black_high_135_up,white_high_45_up,5,left,0.4087004,1,5,44,1,TRUE,12,1,1,1,TRUE,FALSE,high_4,0.75,-1,3,,,,,,,,,,,165,4,3.2.2021,164.9563443
430,"['high', 2]",2,black,45,right,down,high,black_high_45_down,white_high_135_down,8,right,0.2132288,1,8,40,1,TRUE,18,1,1,1,TRUE,FALSE,high_2,0.75,-1,3,,,,,,,,,,,165,4,3.2.2021,164.9563443
431,"['low', 4]",4,black,135,left,down,low,black_low_135_down,white_low_45_down,1,left,0.3839097,1,1,46,1,FALSE,16,1,1,1,TRUE,FALSE,low_4,0.75,-1,3,,,,,,,,,,,165,4,3.2.2021,164.9563443
432,"['low', 6]",6,white,45,left,up,low,white_low_45_up,black_low_135_up,1,left,0.2448517,1,1,46,1,FALSE,8,1,1,1,TRUE,FALSE,low_6,0.75,-1,3,,,,,,,,,,,165,4,3.2.2021,164.9563443
433,"['high', 2]",2,white,135,right,up,high,white_high_135_up,black_high_45_up,7,right,0.1148743,1,7,41,1,FALSE,18,1,1,1,TRUE,FALSE,high_2,0.75,-1,3,,,,,,,,,,,165,4,3.2.2021,164.9563443
434,"['high', 4]",4,black,135,left,down,high,black_high_135_down,white_high_45_down,4,left,0.0467918,1,4,45,1,FALSE,12,1,1,1,TRUE,FALSE,high_4,0.75,-1,3,,,,,,,,,,,165,4,3.2.2021,164.9563443
435,"['high', 3]",3,white,135,right,up,high,white_high_135_up,black_high_45_up,1,right,0.3160814,1,1,40,1,FALSE,12,1,1,1,TRUE,FALSE,high_3,0.75,-1,3,,,,,,,,,,,165,4,3.2.2021,164.9563443
436,"['high', 2]",2,black,135,left,up,high,black_high_135_up,white_high_45_up,6,left,0.0674977,1,6,42,1,FALSE,18,1,1,1,TRUE,FALSE,high_2,0.75,-1,3,,,,,,,,,,,165,4,3.2.2021,164.9563443
437,"['high', 2]",2,black,135,left,down,high,black_high_135_down,white_high_45_down,5,left,0.1184677,1,5,43,1,FALSE,18,1,1,1,TRUE,FALSE,high_2,0.75,-1,3,,,,,,,,,,,165,4,3.2.2021,164.9563443
438,"['low', 6]",6,black,45,right,down,low,black_low_45_down,white_low_135_down,1,right,0.1833391,1,1,47,1,FALSE,8,1,1,1,TRUE,FALSE,low_6,0.75,-1,3,,,,,,,,,,,165,4,3.2.2021,164.9563443
439,"['low', 1]",1,white,135,right,up,low,white_low_135_up,black_low_45_up,4,left,0.2552899,0,4,49,0,TRUE,17,1,1,1,TRUE,FALSE,low_1,0.75,-1,3,,,,,,,,,,,165,4,3.2.2021,164.9563443
440,"['low', 2]",2,black,45,right,down,low,black_low_45_down,white_low_135_down,1,right,0.150038,1,1,43,1,FALSE,13,1,1,1,TRUE,FALSE,low_2,0.75,-1,3,,,,,,,,,,,165,4,3.2.2021,164.9563443
441,"['high', 1]",1,white,45,left,up,high,white_high_45_up,black_high_135_up,11,left,0.0220487,1,11,41,0,TRUE,12,1,1,1,TRUE,FALSE,high_1,0.75,-1,3,,,,,,,,,,,165,4,3.2.2021,164.9563443
442,"['high', 6]",6,white,45,left,down,high,white_high_45_down,black_high_135_down,3,left,0.385447,1,3,43,1,TRUE,9,1,1,1,TRUE,FALSE,high_6,0.75,-1,3,,,,,,,,,,,165,4,3.2.2021,164.9563443
443,"['low', 3]",3,white,135,right,down,low,white_low_135_down,black_low_45_down,1,right,0.2848495,1,1,37,1,FALSE,9,1,1,1,TRUE,FALSE,low_3,0.75,-1,3,,,,,,,,,,,165,4,3.2.2021,164.9563443
444,"['low', 4]",4,black,135,left,up,low,black_low_135_up,white_low_45_up,1,left,0.170933,1,1,47,1,FALSE,16,1,1,1,TRUE,FALSE,low_4,0.75,-1,3,,,,,,,,,,,165,4,3.2.2021,164.9563443
445,"['low', 1]",1,black,135,left,up,low,black_low_135_up,white_low_45_up,7,left,0.3479984,1,7,50,0,FALSE,17,1,1,1,TRUE,FALSE,low_1,0.75,-1,3,,,,,,,,,,,165,4,3.2.2021,164.9563443
446,"['high', 6]",6,black,135,left,down,high,black_high_135_down,white_high_45_down,2,left,0.0102187,1,2,44,1,FALSE,9,1,1,1,TRUE,FALSE,high_6,0.75,-1,3,,,,,,,,,,,165,4,3.2.2021,164.9563443
447,"['high', 2]",2,white,45,left,up,high,white_high_45_up,black_high_135_up,4,left,0.0729637,1,4,44,1,FALSE,18,1,1,1,TRUE,FALSE,high_2,0.75,-1,3,,,,,,,,,,,165,4,3.2.2021,164.9563443
448,"['high', 1]",1,black,45,right,up,high,black_high_45_up,white_high_135_up,10,left,0.6304415,0,10,42,1,TRUE,13,1,1,1,TRUE,FALSE,high_1,0.75,-1,3,,,,,,,,,,,165,4,3.2.2021,164.9563443
449,"['high', 4]",4,black,135,left,down,high,black_high_135_down,white_high_45_down,3,left,0.1625845,1,3,46,1,FALSE,12,1,1,1,TRUE,FALSE,high_4,0.75,-1,3,,,,,,,,,,,165,4,3.2.2021,164.9563443
450,"['high', 4]",4,black,135,left,up,high,black_high_135_up,white_high_45_up,2,left,0.3195487,1,2,47,1,FALSE,12,1,1,1,TRUE,FALSE,high_4,0.75,-1,3,,,,,,,,,,,165,4,3.2.2021,164.9563443
451,"['low', 6]",6,black,45,right,down,low,black_low_45_down,white_low_135_down,1,right,0.0404585,1,1,48,1,FALSE,8,1,1,1,TRUE,FALSE,low_6,0.75,-1,3,,,,,,,,,,,165,4,3.2.2021,164.9563443
452,"['low', 6]",6,black,135,left,up,low,black_low_135_up,white_low_45_up,1,left,0.9693121,1,1,49,1,FALSE,8,1,1,1,TRUE,FALSE,low_6,0.75,-1,3,,,,,,,,,,,165,4,3.2.2021,164.9563443
453,"['high', 6]",6,black,135,left,up,high,black_high_135_up,white_high_45_up,1,left,0.4370953,1,1,45,1,FALSE,9,1,1,1,TRUE,FALSE,high_6,0.75,-1,3,,,,,,,,,,,165,4,3.2.2021,164.9563443
454,"['low', 6]",6,black,45,right,down,low,black_low_45_down,white_low_135_down,1,right,0.4300191,1,1,50,1,FALSE,8,1,1,1,TRUE,FALSE,low_6,0.75,-1,3,,,,,,,,,,,165,4,3.2.2021,164.9563443
455,"['high', 1]",1,white,135,right,up,high,white_high_135_up,black_high_45_up,13,right,0.0367042,1,13,43,0,TRUE,14,1,1,1,TRUE,FALSE,high_1,0.75,-1,3,,,,,,,,,,,165,4,3.2.2021,164.9563443
456,"['low', 1]",1,black,45,right,down,low,black_low_45_down,white_low_135_down,6,right,0.1079649,1,6,51,1,TRUE,18,1,1,1,TRUE,FALSE,low_1,0.75,-1,3,,,,,,,,,,,165,4,3.2.2021,164.9563443
457,"['low', 2]",2,white,45,left,up,low,white_low_45_up,black_low_135_up,1,left,0.3686144,1,1,44,1,FALSE,13,1,1,1,TRUE,FALSE,low_2,0.75,-1,3,,,,,,,,,,,165,4,3.2.2021,164.9563443
458,"['low', 3]",3,black,135,left,down,low,black_low_135_down,white_low_45_down,1,left,0.1882593,1,1,38,1,FALSE,9,1,1,1,TRUE,FALSE,low_3,0.75,-1,3,,,,,,,,,,,165,4,3.2.2021,164.9563443
459,"['low', 2]",2,black,135,left,down,low,black_low_135_down,white_low_45_down,1,left,0.2226929,1,1,45,1,FALSE,13,1,1,1,TRUE,FALSE,low_2,0.75,-1,3,,,,,,,,,,,165,4,3.2.2021,164.9563443
460,"['high', 1]",1,white,45,left,up,high,white_high_45_up,black_high_135_up,12,left,0.4788382,1,12,44,1,TRUE,15,1,1,1,TRUE,FALSE,high_1,0.75,-1,3,,,,,,,,,,,165,4,3.2.2021,164.9563443
461,"['low', 3]",3,black,135,left,down,low,black_low_135_down,white_low_45_down,1,right,0.6189476,0,1,39,1,FALSE,9,1,1,1,TRUE,FALSE,low_3,0.75,-1,3,,,,,,,,,,,165,4,3.2.2021,164.9563443
462,"['high', 6]",6,black,45,right,up,high,black_high_45_up,white_high_135_up,1,left,0.3239194,0,1,46,1,FALSE,9,1,1,1,TRUE,FALSE,high_6,0.75,-1,3,,,,,,,,,,,165,4,3.2.2021,164.9563443
463,"['low', 6]",6,black,135,left,down,low,black_low_135_down,white_low_45_down,1,left,0.2578115,1,1,51,1,FALSE,8,1,1,1,TRUE,FALSE,low_6,0.75,-1,3,,,,,,,,,,,165,4,3.2.2021,164.9563443
464,"['high', 1]",1,black,45,right,down,high,black_high_45_down,white_high_135_down,11,left,0.5160728,0,11,45,1,FALSE,15,1,1,1,TRUE,FALSE,high_1,0.75,-1,3,,,,,,,,,,,165,4,3.2.2021,164.9563443
465,"['high', 2]",2,white,45,left,up,high,white_high_45_up,black_high_135_up,3,right,0.3115758,0,3,45,1,FALSE,18,1,1,1,TRUE,FALSE,high_2,0.75,-1,3,,,,,,,,,,,165,4,3.2.2021,164.9563443
466,"['low', 4]",4,white,135,right,up,low,white_low_135_up,black_low_45_up,1,right,0.1957888,1,1,48,1,FALSE,16,1,1,1,TRUE,FALSE,low_4,0.75,-1,3,,,,,,,,,,,165,4,3.2.2021,164.9563443
467,"['high', 3]",3,white,45,left,down,high,white_high_45_down,black_high_135_down,1,left,0.5683683,1,1,41,1,FALSE,12,1,1,1,TRUE,FALSE,high_3,0.75,-1,3,,,,,,,,,,,165,4,3.2.2021,164.9563443
468,"['low', 6]",6,white,135,right,up,low,white_low_135_up,black_low_45_up,1,right,0.17901,1,1,52,1,FALSE,8,1,1,1,TRUE,FALSE,low_6,0.75,-1,3,,,,,,,,,,,165,4,3.2.2021,164.9563443
469,"['high', 4]",4,white,135,right,up,high,white_high_135_up,black_high_45_up,1,right,0.6220569,1,1,48,1,FALSE,12,1,1,1,TRUE,FALSE,high_4,0.75,-1,3,,,,,,,,,,,165,4,3.2.2021,164.9563443
470,"['low', 4]",4,black,135,left,down,low,black_low_135_down,white_low_45_down,1,left,0.1463769,1,1,49,1,FALSE,16,1,1,1,TRUE,FALSE,low_4,0.75,-1,3,,,,,,,,,,,165,4,3.2.2021,164.9563443
471,"['high', 2]",2,black,45,right,down,high,black_high_45_down,white_high_135_down,6,right,0.0379219,1,6,46,0,TRUE,19,1,1,1,TRUE,FALSE,high_2,0.75,-1,3,,,,,,,,,,,165,4,3.2.2021,164.9563443
472,"['high', 6]",6,black,45,right,down,high,black_high_45_down,white_high_135_down,4,right,0.041722,1,4,47,0,TRUE,10,1,1,1,TRUE,FALSE,high_6,0.75,-1,3,,,,,,,,,,,165,4,3.2.2021,164.9563443
473,"['low', 3]",3,white,135,right,down,low,white_low_135_down,black_low_45_down,4,right,0.4079766,1,4,40,0,TRUE,10,1,1,1,TRUE,FALSE,low_3,0.75,-1,3,,,,,,,,,,,165,4,3.2.2021,164.9563443
474,"['high', 3]",3,white,45,left,down,high,white_high_45_down,black_high_135_down,1,left,0.4254547,1,1,42,1,FALSE,12,1,1,1,TRUE,FALSE,high_3,0.75,-1,3,,,,,,,,,,,165,4,3.2.2021,164.9563443
475,"['high', 4]",4,black,135,left,down,high,black_high_135_down,white_high_45_down,1,right,0.2139942,0,1,49,1,FALSE,12,1,1,1,TRUE,FALSE,high_4,0.75,-1,3,,,,,,,,,,,165,4,3.2.2021,164.9563443
476,"['low', 1]",1,black,135,left,up,low,black_low_135_up,white_low_45_up,5,left,0.2172585,1,5,52,1,FALSE,18,1,1,1,TRUE,FALSE,low_1,0.75,-1,3,,,,,,,,,,,165,4,3.2.2021,164.9563443
477,"['high', 1]",1,black,135,left,down,high,black_high_135_down,white_high_45_down,14,left,0.5780686,1,14,46,0,TRUE,16,1,1,1,TRUE,FALSE,high_1,0.75,-1,3,,,,,,,,,,,165,4,3.2.2021,164.9563443
478,"['high', 1]",1,white,45,left,down,high,white_high_45_down,black_high_135_down,13,left,0.1504754,1,13,47,1,TRUE,17,1,1,1,TRUE,FALSE,high_1,0.75,-1,3,,,,,,,,,,,165,4,3.2.2021,164.9563443
479,"['low', 3]",3,black,135,left,down,low,black_low_135_down,white_low_45_down,3,right,0.1501949,0,3,41,1,TRUE,11,1,1,1,TRUE,FALSE,low_3,0.75,-1,3,,,,,,,,,,,165,4,3.2.2021,164.9563443
480,"['low', 2]",2,white,45,left,up,low,white_low_45_up,black_low_135_up,1,left,0.5997327,1,1,46,1,FALSE,13,1,1,1,TRUE,FALSE,low_2,0.75,-1,3,,,,,,,,,,,165,4,3.2.2021,164.9563443
481,"['low', 6]",6,black,135,left,up,low,black_low_135_up,white_low_45_up,1,left,0.4658808,1,1,53,1,FALSE,8,1,1,1,TRUE,FALSE,low_6,0.75,-1,3,,,,,,,,,,,165,4,3.2.2021,164.9563443
482,"['low', 2]",2,black,135,left,down,low,black_low_135_down,white_low_45_down,1,left,0.1856483,1,1,47,1,FALSE,13,1,1,1,TRUE,FALSE,low_2,0.75,-1,3,,,,,,,,,,,165,4,3.2.2021,164.9563443
483,"['high', 1]",1,black,45,right,down,high,black_high_45_down,white_high_135_down,12,right,1.222738,1,12,48,1,FALSE,17,1,1,1,TRUE,FALSE,high_1,0.75,-1,3,,,,,,,,,,,165,4,3.2.2021,164.9563443
484,"['high', 2]",2,black,135,left,up,high,black_high_135_up,white_high_45_up,5,left,0.4433205,1,5,47,1,TRUE,20,1,1,1,TRUE,FALSE,high_2,0.75,-1,3,,,,,,,,,,,165,4,3.2.2021,164.9563443
485,"['high', 6]",6,black,45,right,down,high,black_high_45_down,white_high_135_down,3,right,0.265464,1,3,48,1,TRUE,11,1,1,1,TRUE,FALSE,high_6,0.75,-1,3,,,,,,,,,,,165,4,3.2.2021,164.9563443
486,"['high', 3]",3,white,135,right,down,high,white_high_135_down,black_high_45_down,1,left,1.0794867,0,1,43,1,FALSE,12,1,1,1,TRUE,FALSE,high_3,0.75,-1,3,,,,,,,,,,,165,4,3.2.2021,164.9563443
487,"['low', 2]",2,white,45,left,up,low,white_low_45_up,black_low_135_up,1,left,0.2255316,1,1,48,1,FALSE,13,1,1,1,TRUE,FALSE,low_2,0.75,-1,3,,,,,,,,,,,165,4,3.2.2021,164.9563443
488,"['low', 1]",1,black,45,right,up,low,black_low_45_up,white_low_135_up,4,right,0.2017422,1,4,53,1,FALSE,18,1,1,1,TRUE,FALSE,low_1,0.75,-1,3,,,,,,,,,,,165,4,3.2.2021,164.9563443
489,"['high', 2]",2,black,45,right,down,high,black_high_45_down,white_high_135_down,4,left,0.4425408,0,4,48,1,FALSE,20,1,1,1,TRUE,FALSE,high_2,0.75,-1,3,,,,,,,,,,,165,4,3.2.2021,164.9563443
490,"['low', 2]",2,black,135,left,up,low,black_low_135_up,white_low_45_up,1,left,0.3184809,1,1,49,1,FALSE,13,1,1,1,TRUE,FALSE,low_2,0.75,-1,3,,,,,,,,,,,165,4,3.2.2021,164.9563443
491,"['high', 3]",3,white,45,left,down,high,white_high_45_down,black_high_135_down,4,left,0.0537849,1,4,44,0,TRUE,13,1,1,1,TRUE,FALSE,high_3,0.75,-1,3,,,,,,,,,,,165,4,3.2.2021,164.9563443
492,"['low', 4]",4,white,45,left,up,low,white_low_45_up,black_low_135_up,1,right,0.2138269,0,1,50,1,FALSE,16,1,1,1,TRUE,FALSE,low_4,0.75,-1,3,,,,,,,,,,,165,4,3.2.2021,164.9563443
493,"['low', 3]",3,white,45,left,up,low,white_low_45_up,black_low_135_up,6,left,0.0515835,1,6,42,0,TRUE,12,1,1,1,TRUE,FALSE,low_3,0.75,-1,3,,,,,,,,,,,165,4,3.2.2021,164.9563443
494,"['high', 3]",3,white,45,left,down,high,white_high_45_down,black_high_135_down,3,left,0.1840936,1,3,45,1,TRUE,14,1,1,1,TRUE,FALSE,high_3,0.75,-1,3,,,,,,,,,,,165,4,3.2.2021,164.9563443
495,"['low', 4]",4,black,45,right,down,low,black_low_45_down,white_low_135_down,4,right,0.6539548,1,4,51,0,TRUE,17,1,1,1,TRUE,FALSE,low_4,0.75,-1,3,,,,,,,,,,,165,4,3.2.2021,164.9563443
496,"['high', 3]",3,white,45,left,up,high,white_high_45_up,black_high_135_up,2,left,0.0849125,1,2,46,1,FALSE,14,1,1,1,TRUE,FALSE,high_3,0.75,-1,3,,,,,,,,,,,165,4,3.2.2021,164.9563443
497,"['high', 3]",3,black,135,left,up,high,black_high_135_up,white_high_45_up,1,left,0.5303735,1,1,47,1,FALSE,14,1,1,1,TRUE,FALSE,high_3,0.75,-1,3,,,,,,,,,,,165,4,3.2.2021,164.9563443
498,"['high', 3]",3,black,45,right,up,high,black_high_45_up,white_high_135_up,1,left,0.7203661,0,1,48,1,FALSE,14,1,1,1,TRUE,FALSE,high_3,0.75,-1,3,,,,,,,,,,,165,4,3.2.2021,164.9563443
499,"['low', 6]",6,black,45,right,up,low,black_low_45_up,white_low_135_up,1,right,0.2053061,1,1,54,1,FALSE,8,1,1,1,TRUE,FALSE,low_6,0.75,-1,3,,,,,,,,,,,165,4,3.2.2021,164.9563443
500,"['high', 2]",2,white,135,right,up,high,white_high_135_up,black_high_45_up,7,right,0.0341996,1,7,49,0,TRUE,21,1,1,1,TRUE,FALSE,high_2,0.75,-1,3,,,,,,,,,,,165,4,3.2.2021,164.9563443
501,"['low', 4]",4,white,135,right,down,low,white_low_135_down,black_low_45_down,3,right,0.4415221,1,3,52,1,TRUE,18,1,1,1,TRUE,FALSE,low_4,0.75,-1,3,,,,,,,,,,,165,4,3.2.2021,164.9563443
502,"['high', 3]",3,white,135,right,down,high,white_high_135_down,black_high_45_down,4,right,0.4726085,1,4,49,0,TRUE,15,1,1,1,TRUE,FALSE,high_3,0.75,-1,3,,,,,,,,,,,165,4,3.2.2021,164.9563443
503,"['low', 4]",4,black,45,right,up,low,black_low_45_up,white_low_135_up,2,right,0.3060238,1,2,53,1,FALSE,18,1,1,1,TRUE,FALSE,low_4,0.75,-1,3,,,,,,,,,,,165,4,3.2.2021,164.9563443
504,"['high', 1]",1,black,135,left,up,high,black_high_135_up,white_high_45_up,11,left,0.5899199,1,11,49,1,FALSE,17,1,1,1,TRUE,FALSE,high_1,0.75,-1,3,,,,,,,,,,,165,4,3.2.2021,164.9563443
505,"['low', 3]",3,white,45,left,up,low,white_low_45_up,black_low_135_up,5,left,0.1848445,1,5,43,1,TRUE,13,1,1,1,TRUE,FALSE,low_3,0.75,-1,3,,,,,,,,,,,165,4,3.2.2021,164.9563443
506,"['high', 1]",1,black,135,left,down,high,black_high_135_down,white_high_45_down,10,right,0.0579758,0,10,50,1,FALSE,17,1,1,1,TRUE,FALSE,high_1,0.75,-1,3,,,,,,,,,,,165,4,3.2.2021,164.9563443
507,"['low', 1]",1,white,45,left,up,low,white_low_45_up,black_low_135_up,3,left,0.3288792,1,3,54,1,FALSE,18,1,1,1,TRUE,FALSE,low_1,0.75,-1,3,,,,,,,,,,,165,4,3.2.2021,164.9563443
508,"['low', 3]",3,black,135,left,down,low,black_low_135_down,white_low_45_down,4,left,0.149554,1,4,44,1,FALSE,13,1,1,1,TRUE,FALSE,low_3,0.75,-1,3,,,,,,,,,,,165,4,3.2.2021,164.9563443
509,"['low', 6]",6,white,45,left,down,low,white_low_45_down,black_low_135_down,1,left,0.2291558,1,1,55,1,FALSE,8,1,1,1,TRUE,FALSE,low_6,0.75,-1,3,,,,,,,,,,,165,4,3.2.2021,164.9563443
510,"['low', 6]",6,white,45,left,down,low,white_low_45_down,black_low_135_down,1,left,0.0809692,1,1,56,1,FALSE,8,1,1,1,TRUE,FALSE,low_6,0.75,-1,3,,,,,,,,,,,165,4,3.2.2021,164.9563443
511,"['high', 1]",1,black,45,right,down,high,black_high_45_down,white_high_135_down,13,left,0.3002865,0,13,51,0,TRUE,18,1,1,1,TRUE,FALSE,high_1,0.75,-1,3,,,,,,,,,,,165,4,3.2.2021,164.9563443
512,"['low', 2]",2,white,45,left,up,low,white_low_45_up,black_low_135_up,1,left,0.3765653,1,1,50,1,FALSE,13,1,1,1,TRUE,FALSE,low_2,0.75,-1,3,,,,,,,,,,,165,4,3.2.2021,164.9563443
513,"['low', 1]",1,white,45,left,down,low,white_low_45_down,black_low_135_down,2,left,0.1375122,1,2,55,1,FALSE,18,1,1,1,TRUE,FALSE,low_1,0.75,-1,3,,,,,,,,,,,165,4,3.2.2021,164.9563443
514,"['low', 4]",4,white,45,left,up,low,white_low_45_up,black_low_135_up,1,left,0.2046089,1,1,54,1,FALSE,18,1,1,1,TRUE,FALSE,low_4,0.75,-1,3,,,,,,,,,,,165,4,3.2.2021,164.9563443
515,"['high', 3]",3,black,135,left,up,high,black_high_135_up,white_high_45_up,3,right,0.3397374,0,3,50,1,TRUE,16,1,1,1,TRUE,FALSE,high_3,0.75,-1,3,,,,,,,,,,,165,4,3.2.2021,164.9563443
516,"['low', 3]",3,white,45,left,up,low,white_low_45_up,black_low_135_up,3,left,0.1558642,1,3,45,1,FALSE,13,1,1,1,TRUE,FALSE,low_3,0.75,-1,3,,,,,,,,,,,165,4,3.2.2021,164.9563443
517,"['low', 3]",3,black,135,left,up,low,black_low_135_up,white_low_45_up,2,left,0.131671,1,2,46,1,FALSE,13,1,1,1,TRUE,FALSE,low_3,0.75,-1,3,,,,,,,,,,,165,4,3.2.2021,164.9563443
518,"['high', 4]",4,black,135,left,down,high,black_high_135_down,white_high_45_down,4,left,0.1368761,1,4,50,0,TRUE,13,1,1,1,TRUE,FALSE,high_4,0.75,-1,3,,,,,,,,,,,165,4,3.2.2021,164.9563443
519,"['low', 4]",4,black,45,right,up,low,black_low_45_up,white_low_135_up,1,right,0.3246996,1,1,55,1,FALSE,18,1,1,1,TRUE,FALSE,low_4,0.75,-1,3,,,,,,,,,,,165,4,3.2.2021,164.9563443
520,"['low', 2]",2,black,45,right,up,low,black_low_45_up,white_low_135_up,1,left,0.1468083,0,1,51,1,FALSE,13,1,1,1,TRUE,FALSE,low_2,0.75,-1,3,,,,,,,,,,,165,4,3.2.2021,164.9563443
521,"['high', 6]",6,white,45,left,up,high,white_high_45_up,black_high_135_up,2,right,0.1888554,0,2,49,1,FALSE,11,1,1,1,TRUE,FALSE,high_6,0.75,-1,3,,,,,,,,,,,165,4,3.2.2021,164.9563443
522,"['high', 4]",4,white,135,right,down,high,white_high_135_down,black_high_45_down,3,right,0.0152997,1,3,51,1,TRUE,14,1,1,1,TRUE,FALSE,high_4,0.75,-1,3,,,,,,,,,,,165,4,3.2.2021,164.9563443
523,"['high', 4]",4,white,135,right,down,high,white_high_135_down,black_high_45_down,2,right,0.1409319,1,2,52,1,FALSE,14,1,1,1,TRUE,FALSE,high_4,0.75,-1,3,,,,,,,,,,,165,4,3.2.2021,164.9563443
524,"['low', 6]",6,black,45,right,up,low,black_low_45_up,white_low_135_up,1,right,0.3835475,1,1,57,1,FALSE,8,1,1,1,TRUE,FALSE,low_6,0.75,-1,3,,,,,,,,,,,165,4,3.2.2021,164.9563443
525,"['low', 6]",6,black,45,right,down,low,black_low_45_down,white_low_135_down,1,right,0.1047532,1,1,58,1,FALSE,8,1,1,1,TRUE,FALSE,low_6,0.75,-1,3,,,,,,,,,,,165,4,3.2.2021,164.9563443
526,"['high', 2]",2,black,45,right,up,high,black_high_45_up,white_high_135_up,6,left,0.1772974,0,6,50,1,TRUE,22,1,1,1,TRUE,FALSE,high_2,0.75,-1,3,,,,,,,,,,,165,4,3.2.2021,164.9563443
527,"['low', 4]",4,white,135,right,up,low,white_low_135_up,black_low_45_up,1,right,0.1851413,1,1,56,1,FALSE,18,1,1,1,TRUE,FALSE,low_4,0.75,-1,3,,,,,,,,,,,165,4,3.2.2021,164.9563443
528,"['low', 1]",1,black,45,right,down,low,black_low_45_down,white_low_135_down,1,left,1.1730559,0,1,56,1,FALSE,18,1,1,1,TRUE,FALSE,low_1,0.75,-1,3,,,,,,,,,,,165,4,3.2.2021,164.9563443
529,"['high', 6]",6,white,135,right,up,high,white_high_135_up,black_high_45_up,5,right,0.2219763,1,5,50,0,TRUE,12,1,1,1,TRUE,FALSE,high_6,0.75,-1,3,,,,,,,,,,,165,4,3.2.2021,164.9563443
530,"['low', 3]",3,black,135,left,up,low,black_low_135_up,white_low_45_up,1,left,0.3908788,1,1,47,1,FALSE,13,1,1,1,TRUE,FALSE,low_3,0.75,-1,3,,,,,,,,,,,165,4,3.2.2021,164.9563443
531,"['high', 6]",6,white,45,left,up,high,white_high_45_up,black_high_135_up,4,left,0.0199674,1,4,51,1,TRUE,13,1,1,1,TRUE,FALSE,high_6,0.75,-1,3,,,,,,,,,,,165,4,3.2.2021,164.9563443
532,"['high', 1]",1,black,45,right,up,high,black_high_45_up,white_high_135_up,16,left,0.3661438,0,16,52,0,FALSE,18,1,1,1,TRUE,FALSE,high_1,0.75,-1,3,,,,,,,,,,,165,4,3.2.2021,164.9563443
533,"['low', 4]",4,white,135,right,down,low,white_low_135_down,black_low_45_down,1,right,0.5865159,1,1,57,1,FALSE,18,1,1,1,TRUE,FALSE,low_4,0.75,-1,3,,,,,,,,,,,165,4,3.2.2021,164.9563443
534,"['low', 1]",1,black,45,right,up,low,black_low_45_up,white_low_135_up,4,right,0.3082407,1,4,57,0,TRUE,19,1,1,1,TRUE,FALSE,low_1,0.75,-1,3,,,,,,,,,,,165,4,3.2.2021,164.9563443
535,"['high', 1]",1,black,135,left,down,high,black_high_135_down,white_high_45_down,19,left,0.3672214,1,19,53,0,FALSE,18,1,1,1,TRUE,FALSE,high_1,0.75,-1,3,,,,,,,,,,,165,4,3.2.2021,164.9563443
536,"['high', 6]",6,white,135,right,up,high,white_high_135_up,black_high_45_up,3,right,0.0370534,1,3,52,1,FALSE,13,1,1,1,TRUE,FALSE,high_6,0.75,-1,3,,,,,,,,,,,165,4,3.2.2021,164.9563443
