trial_number,trial_type,cycle_number,first_color,first_orientation,correct_response,visual_field,spatial_frequency,first_stim,second_stim,stimulus_frame_duration,answer,rt,accuracy,staircase_dv,staircase_trial_num,staircase_previous_correct,staircase_reversal,staircase_reversal_num,staircase_phase,staircase_step_size,staircase_powers_law,staircase_siam,staircase_over,staircase_name,staircase_conv_p,staircase_step_hit,staircase_step_miss,threshold_low1,threshold_low2,threshold_low3,threshold_low4,threshold_low6,threshold_high1,threshold_high2,threshold_high3,threshold_high4,threshold_high6,frame_rate,participant,psychopyVersion,frame_rate_detected
0,"['high', 1]",1,white,45,left,down,high,white_high_45_down,black_high_135_down,12,left,0.8339307,1,12,0,None,FALSE,0,0,1,1,TRUE,FALSE,high_1,0.75,-1,3,,,,,,,,,,,165,3,3.2.2021,164.8622493
1,"['low', 3]",3,black,135,left,down,low,black_low_135_down,white_low_45_down,3,left,0.4181026,1,3,0,None,FALSE,0,0,1,1,TRUE,FALSE,low_3,0.75,-1,3,,,,,,,,,,,165,3,3.2.2021,164.8622493
2,"['low', 4]",4,black,45,right,up,low,black_low_45_up,white_low_135_up,3,right,0.410227,1,3,0,None,FALSE,0,0,1,1,TRUE,FALSE,low_4,0.75,-1,3,,,,,,,,,,,165,3,3.2.2021,164.8622493
3,"['high', 1]",1,white,135,right,down,high,white_high_135_down,black_high_45_down,11,right,1.4424444,1,11,1,1,FALSE,0,0,1,1,TRUE,FALSE,high_1,0.75,-1,3,,,,,,,,,,,165,3,3.2.2021,164.8622493
4,"['low', 2]",2,white,135,right,up,low,white_low_135_up,black_low_45_up,4,right,0.3113187,1,4,0,None,FALSE,0,0,1,1,TRUE,FALSE,low_2,0.75,-1,3,,,,,,,,,,,165,3,3.2.2021,164.8622493
5,"['low', 1]",1,black,135,left,down,low,black_low_135_down,white_low_45_down,8,left,0.2719343,1,8,0,None,FALSE,0,0,1,1,TRUE,FALSE,low_1,0.75,-1,3,,,,,,,,,,,165,3,3.2.2021,164.8622493
6,"['high', 3]",3,black,135,left,up,high,black_high_135_up,white_high_45_up,8,left,0.7466951,1,8,0,None,FALSE,0,0,1,1,TRUE,FALSE,high_3,0.75,-1,3,,,,,,,,,,,165,3,3.2.2021,164.8622493
7,"['high', 6]",6,black,45,right,up,high,black_high_45_up,white_high_135_up,8,left,0.4167364,0,8,0,None,FALSE,0,0,1,1,TRUE,FALSE,high_6,0.75,-1,3,,,,,,,,,,,165,3,3.2.2021,164.8622493
8,"['high', 6]",6,white,135,right,up,high,white_high_135_up,black_high_45_up,11,right,0.2375451,1,11,1,0,FALSE,0,0,1,1,TRUE,FALSE,high_6,0.75,-1,3,,,,,,,,,,,165,3,3.2.2021,164.8622493
9,"['low', 3]",3,white,45,left,down,low,white_low_45_down,black_low_135_down,2,left,0.2502472,1,2,1,1,FALSE,0,0,1,1,TRUE,FALSE,low_3,0.75,-1,3,,,,,,,,,,,165,3,3.2.2021,164.8622493
10,"['low', 1]",1,black,135,left,down,low,black_low_135_down,white_low_45_down,7,left,0.3658362,1,7,1,1,FALSE,0,0,1,1,TRUE,FALSE,low_1,0.75,-1,3,,,,,,,,,,,165,3,3.2.2021,164.8622493
11,"['low', 4]",4,white,45,left,down,low,white_low_45_down,black_low_135_down,2,left,0.2017423,1,2,1,1,FALSE,0,0,1,1,TRUE,FALSE,low_4,0.75,-1,3,,,,,,,,,,,165,3,3.2.2021,164.8622493
12,"['low', 6]",6,white,45,left,down,low,white_low_45_down,black_low_135_down,3,left,0.013079,1,3,0,None,FALSE,0,0,1,1,TRUE,FALSE,low_6,0.75,-1,3,,,,,,,,,,,165,3,3.2.2021,164.8622493
13,"['low', 4]",4,black,45,right,down,low,black_low_45_down,white_low_135_down,1,left,0.2048335,0,1,2,1,FALSE,0,0,1,1,TRUE,FALSE,low_4,0.75,-1,3,,,,,,,,,,,165,3,3.2.2021,164.8622493
14,"['low', 6]",6,white,135,right,up,low,white_low_135_up,black_low_45_up,2,right,0.1137575,1,2,1,1,FALSE,0,0,1,1,TRUE,FALSE,low_6,0.75,-1,3,,,,,,,,,,,165,3,3.2.2021,164.8622493
15,"['high', 2]",2,black,135,left,up,high,black_high_135_up,white_high_45_up,8,right,1.2169894,0,8,0,None,FALSE,0,0,1,1,TRUE,FALSE,high_2,0.75,-1,3,,,,,,,,,,,165,3,3.2.2021,164.8622493
16,"['low', 3]",3,white,135,right,up,low,white_low_135_up,black_low_45_up,1,right,0.4167658,1,1,2,1,FALSE,0,0,1,1,TRUE,FALSE,low_3,0.75,-1,3,,,,,,,,,,,165,3,3.2.2021,164.8622493
17,"['low', 6]",6,black,135,left,up,low,black_low_135_up,white_low_45_up,1,left,0.1939909,1,1,2,1,FALSE,0,0,1,1,TRUE,FALSE,low_6,0.75,-1,3,,,,,,,,,,,165,3,3.2.2021,164.8622493
18,"['low', 6]",6,white,45,left,down,low,white_low_45_down,black_low_135_down,1,left,0.2719851,1,1,3,1,FALSE,0,0,1,1,TRUE,FALSE,low_6,0.75,-1,3,,,,,,,,,,,165,3,3.2.2021,164.8622493
19,"['high', 4]",4,white,135,right,down,high,white_high_135_down,black_high_45_down,8,right,0.110234,1,8,0,None,FALSE,0,0,1,1,TRUE,FALSE,high_4,0.75,-1,3,,,,,,,,,,,165,3,3.2.2021,164.8622493
20,"['high', 1]",1,white,135,right,up,high,white_high_135_up,black_high_45_up,10,right,1.9313981,1,10,2,1,FALSE,0,0,1,1,TRUE,FALSE,high_1,0.75,-1,3,,,,,,,,,,,165,3,3.2.2021,164.8622493
21,"['high', 1]",1,black,45,right,down,high,black_high_45_down,white_high_135_down,9,left,0.2298133,0,9,3,1,FALSE,0,0,1,1,TRUE,FALSE,high_1,0.75,-1,3,,,,,,,,,,,165,3,3.2.2021,164.8622493
22,"['low', 2]",2,black,45,right,down,low,black_low_45_down,white_low_135_down,3,left,0.251017,0,3,1,1,FALSE,0,0,1,1,TRUE,FALSE,low_2,0.75,-1,3,,,,,,,,,,,165,3,3.2.2021,164.8622493
23,"['low', 3]",3,white,135,right,up,low,white_low_135_up,black_low_45_up,1,left,0.3903894,0,1,3,1,FALSE,0,0,1,1,TRUE,FALSE,low_3,0.75,-1,3,,,,,,,,,,,165,3,3.2.2021,164.8622493
24,"['high', 6]",6,white,45,left,up,high,white_high_45_up,black_high_135_up,10,left,0.2249618,1,10,2,1,TRUE,1,0,1,1,TRUE,FALSE,high_6,0.75,-1,3,,,,,,,,,,,165,3,3.2.2021,164.8622493
25,"['low', 1]",1,white,135,right,up,low,white_low_135_up,black_low_45_up,6,right,0.2148488,1,6,2,1,FALSE,0,0,1,1,TRUE,FALSE,low_1,0.75,-1,3,,,,,,,,,,,165,3,3.2.2021,164.8622493
26,"['low', 2]",2,white,45,left,down,low,white_low_45_down,black_low_135_down,6,left,0.0316429,1,6,2,0,TRUE,1,0,1,1,TRUE,FALSE,low_2,0.75,-1,3,,,,,,,,,,,165,3,3.2.2021,164.8622493
27,"['low', 1]",1,black,45,right,up,low,black_low_45_up,white_low_135_up,5,left,0.268248,0,5,3,1,FALSE,0,0,1,1,TRUE,FALSE,low_1,0.75,-1,3,,,,,,,,,,,165,3,3.2.2021,164.8622493
28,"['low', 6]",6,black,45,right,up,low,black_low_45_up,white_low_135_up,1,right,0.2039349,1,1,4,1,FALSE,0,0,1,1,TRUE,FALSE,low_6,0.75,-1,3,,,,,,,,,,,165,3,3.2.2021,164.8622493
29,"['high', 4]",4,black,135,left,up,high,black_high_135_up,white_high_45_up,7,left,0.3132978,1,7,1,1,FALSE,0,0,1,1,TRUE,FALSE,high_4,0.75,-1,3,,,,,,,,,,,165,3,3.2.2021,164.8622493
30,"['low', 6]",6,black,135,left,up,low,black_low_135_up,white_low_45_up,1,left,0.0476993,1,1,5,1,FALSE,0,0,1,1,TRUE,FALSE,low_6,0.75,-1,3,,,,,,,,,,,165,3,3.2.2021,164.8622493
31,"['high', 2]",2,black,135,left,down,high,black_high_135_down,white_high_45_down,11,right,0.3736078,0,11,1,0,FALSE,0,0,1,1,TRUE,FALSE,high_2,0.75,-1,3,,,,,,,,,,,165,3,3.2.2021,164.8622493
32,"['high', 1]",1,white,45,left,up,high,white_high_45_up,black_high_135_up,12,left,0.234164,1,12,4,0,TRUE,1,0,1,1,TRUE,FALSE,high_1,0.75,-1,3,,,,,,,,,,,165,3,3.2.2021,164.8622493
33,"['high', 2]",2,black,45,right,up,high,black_high_45_up,white_high_135_up,14,left,0.1351354,0,14,2,0,FALSE,0,0,1,1,TRUE,FALSE,high_2,0.75,-1,3,,,,,,,,,,,165,3,3.2.2021,164.8622493
34,"['low', 2]",2,black,45,right,down,low,black_low_45_down,white_low_135_down,5,left,0.1301392,0,5,3,1,TRUE,2,0,1,1,TRUE,FALSE,low_2,0.75,-1,3,,,,,,,,,,,165,3,3.2.2021,164.8622493
35,"['high', 6]",6,black,135,left,down,high,black_high_135_down,white_high_45_down,9,left,0.2612795,1,9,3,1,FALSE,1,0,1,1,TRUE,FALSE,high_6,0.75,-1,3,,,,,,,,,,,165,3,3.2.2021,164.8622493
36,"['high', 6]",6,white,135,right,up,high,white_high_135_up,black_high_45_up,8,right,0.4882409,1,8,4,1,FALSE,1,0,1,1,TRUE,FALSE,high_6,0.75,-1,3,,,,,,,,,,,165,3,3.2.2021,164.8622493
37,"['low', 2]",2,black,135,left,down,low,black_low_135_down,white_low_45_down,8,left,0.0267813,1,8,4,0,TRUE,3,0,1,1,TRUE,FALSE,low_2,0.75,-1,3,,,,,,,,,,,165,3,3.2.2021,164.8622493
38,"['low', 3]",3,white,45,left,down,low,white_low_45_down,black_low_135_down,4,left,0.3728794,1,4,4,0,TRUE,1,0,1,1,TRUE,FALSE,low_3,0.75,-1,3,,,,,,,,,,,165,3,3.2.2021,164.8622493
39,"['high', 3]",3,white,45,left,up,high,white_high_45_up,black_high_135_up,7,left,0.4615358,1,7,1,1,FALSE,0,0,1,1,TRUE,FALSE,high_3,0.75,-1,3,,,,,,,,,,,165,3,3.2.2021,164.8622493
40,"['low', 2]",2,black,45,right,up,low,black_low_45_up,white_low_135_up,7,right,0.3361399,1,7,5,1,TRUE,4,0,1,1,TRUE,FALSE,low_2,0.75,-1,3,,,,,,,,,,,165,3,3.2.2021,164.8622493
41,"['low', 6]",6,black,45,right,down,low,black_low_45_down,white_low_135_down,1,left,0.2119843,0,1,6,1,FALSE,0,0,1,1,TRUE,FALSE,low_6,0.75,-1,3,,,,,,,,,,,165,3,3.2.2021,164.8622493
42,"['high', 1]",1,black,135,left,up,high,black_high_135_up,white_high_45_up,11,right,1.3085096,0,11,5,1,TRUE,2,0,1,1,TRUE,FALSE,high_1,0.75,-1,3,,,,,,,,,,,165,3,3.2.2021,164.8622493
43,"['high', 6]",6,white,135,right,up,high,white_high_135_up,black_high_45_up,7,right,0.1574544,1,7,5,1,FALSE,1,0,1,1,TRUE,FALSE,high_6,0.75,-1,3,,,,,,,,,,,165,3,3.2.2021,164.8622493
44,"['low', 1]",1,white,135,right,up,low,white_low_135_up,black_low_45_up,8,left,0.2989721,0,8,4,0,TRUE,1,0,1,1,TRUE,FALSE,low_1,0.75,-1,3,,,,,,,,,,,165,3,3.2.2021,164.8622493
45,"['low', 3]",3,black,135,left,down,low,black_low_135_down,white_low_45_down,3,left,0.2069398,1,3,5,1,TRUE,2,0,1,1,TRUE,FALSE,low_3,0.75,-1,3,,,,,,,,,,,165,3,3.2.2021,164.8622493
46,"['low', 1]",1,white,45,left,up,low,white_low_45_up,black_low_135_up,11,left,0.1760632,1,11,5,0,FALSE,1,0,1,1,TRUE,FALSE,low_1,0.75,-1,3,,,,,,,,,,,165,3,3.2.2021,164.8622493
47,"['low', 2]",2,white,45,left,down,low,white_low_45_down,black_low_135_down,6,left,0.2200709,1,6,6,1,FALSE,4,0,1,1,TRUE,FALSE,low_2,0.75,-1,3,,,,,,,,,,,165,3,3.2.2021,164.8622493
48,"['high', 2]",2,black,135,left,down,high,black_high_135_down,white_high_45_down,17,left,0.6631058,1,17,3,0,FALSE,0,0,1,1,TRUE,FALSE,high_2,0.75,-1,3,,,,,,,,,,,165,3,3.2.2021,164.8622493
49,"['high', 3]",3,black,135,left,down,high,black_high_135_down,white_high_45_down,6,left,0.1634101,1,6,2,1,FALSE,0,0,1,1,TRUE,FALSE,high_3,0.75,-1,3,,,,,,,,,,,165,3,3.2.2021,164.8622493
50,"['high', 4]",4,black,45,right,up,high,black_high_45_up,white_high_135_up,6,left,0.2979526,0,6,2,1,FALSE,0,0,1,1,TRUE,FALSE,high_4,0.75,-1,3,,,,,,,,,,,165,3,3.2.2021,164.8622493
51,"['high', 4]",4,white,45,left,down,high,white_high_45_down,black_high_135_down,9,left,0.4328364,1,9,3,0,TRUE,1,0,1,1,TRUE,FALSE,high_4,0.75,-1,3,,,,,,,,,,,165,3,3.2.2021,164.8622493
52,"['high', 1]",1,black,45,right,down,high,black_high_45_down,white_high_135_down,14,right,0.2930236,1,14,6,0,TRUE,3,0,1,1,TRUE,FALSE,high_1,0.75,-1,3,,,,,,,,,,,165,3,3.2.2021,164.8622493
53,"['low', 3]",3,white,135,right,down,low,white_low_135_down,black_low_45_down,2,left,0.2265248,0,2,6,1,FALSE,2,0,1,1,TRUE,FALSE,low_3,0.75,-1,3,,,,,,,,,,,165,3,3.2.2021,164.8622493
54,"['high', 6]",6,white,45,left,down,high,white_high_45_down,black_high_135_down,6,left,0.6437505,1,6,6,1,FALSE,1,0,1,1,TRUE,FALSE,high_6,0.75,-1,3,,,,,,,,,,,165,3,3.2.2021,164.8622493
55,"['low', 4]",4,black,45,right,up,low,black_low_45_up,white_low_135_up,4,right,0.1448992,1,4,3,0,TRUE,1,0,1,1,TRUE,FALSE,low_4,0.75,-1,3,,,,,,,,,,,165,3,3.2.2021,164.8622493
56,"['high', 3]",3,black,135,left,down,high,black_high_135_down,white_high_45_down,5,left,0.3314008,1,5,3,1,FALSE,0,0,1,1,TRUE,FALSE,high_3,0.75,-1,3,,,,,,,,,,,165,3,3.2.2021,164.8622493
57,"['low', 1]",1,white,135,right,down,low,white_low_135_down,black_low_45_down,10,right,0.1284528,1,10,6,1,TRUE,2,0,1,1,TRUE,FALSE,low_1,0.75,-1,3,,,,,,,,,,,165,3,3.2.2021,164.8622493
58,"['low', 4]",4,white,45,left,up,low,white_low_45_up,black_low_135_up,3,left,0.0833891,1,3,4,1,TRUE,2,0,1,1,TRUE,FALSE,low_4,0.75,-1,3,,,,,,,,,,,165,3,3.2.2021,164.8622493
59,"['high', 1]",1,black,45,right,up,high,black_high_45_up,white_high_135_up,13,left,0.1787832,0,13,7,1,TRUE,4,0,1,1,TRUE,FALSE,high_1,0.75,-1,3,,,,,,,,,,,165,3,3.2.2021,164.8622493
60,"['high', 1]",1,white,45,left,down,high,white_high_45_down,black_high_135_down,16,left,0.0838723,1,16,8,0,TRUE,5,1,1,1,TRUE,FALSE,high_1,0.75,-1,3,,,,,,,,,,,165,3,3.2.2021,164.8622493
61,"['low', 4]",4,white,45,left,up,low,white_low_45_up,black_low_135_up,2,left,0.0961682,1,2,5,1,FALSE,2,0,1,1,TRUE,FALSE,low_4,0.75,-1,3,,,,,,,,,,,165,3,3.2.2021,164.8622493
62,"['low', 6]",6,white,45,left,down,low,white_low_45_down,black_low_135_down,4,left,0.4768301,1,4,7,0,TRUE,1,0,1,1,TRUE,FALSE,low_6,0.75,-1,3,,,,,,,,,,,165,3,3.2.2021,164.8622493
63,"['high', 4]",4,black,135,left,up,high,black_high_135_up,white_high_45_up,8,left,0.1027574,1,8,4,1,TRUE,2,0,1,1,TRUE,FALSE,high_4,0.75,-1,3,,,,,,,,,,,165,3,3.2.2021,164.8622493
64,"['low', 6]",6,white,135,right,down,low,white_low_135_down,black_low_45_down,3,right,0.0287939,1,3,8,1,TRUE,2,0,1,1,TRUE,FALSE,low_6,0.75,-1,3,,,,,,,,,,,165,3,3.2.2021,164.8622493
65,"['low', 4]",4,white,135,right,up,low,white_low_135_up,black_low_45_up,1,left,0.1930546,0,1,6,1,FALSE,2,0,1,1,TRUE,FALSE,low_4,0.75,-1,3,,,,,,,,,,,165,3,3.2.2021,164.8622493
66,"['low', 2]",2,black,45,right,down,low,black_low_45_down,white_low_135_down,5,left,0.1412447,0,5,7,1,FALSE,4,0,1,1,TRUE,FALSE,low_2,0.75,-1,3,,,,,,,,,,,165,3,3.2.2021,164.8622493
67,"['low', 6]",6,black,135,left,down,low,black_low_135_down,white_low_45_down,2,left,0.2084074,1,2,9,1,FALSE,2,0,1,1,TRUE,FALSE,low_6,0.75,-1,3,,,,,,,,,,,165,3,3.2.2021,164.8622493
68,"['low', 1]",1,white,45,left,up,low,white_low_45_up,black_low_135_up,9,left,0.3163411,1,9,7,1,FALSE,2,0,1,1,TRUE,FALSE,low_1,0.75,-1,3,,,,,,,,,,,165,3,3.2.2021,164.8622493
69,"['low', 3]",3,black,45,right,up,low,black_low_45_up,white_low_135_up,5,right,0.1636462,1,5,7,0,TRUE,3,0,1,1,TRUE,FALSE,low_3,0.75,-1,3,,,,,,,,,,,165,3,3.2.2021,164.8622493
70,"['low', 1]",1,black,45,right,up,low,black_low_45_up,white_low_135_up,8,left,0.249169,0,8,8,1,FALSE,2,0,1,1,TRUE,FALSE,low_1,0.75,-1,3,,,,,,,,,,,165,3,3.2.2021,164.8622493
71,"['high', 6]",6,black,45,right,up,high,black_high_45_up,white_high_135_up,5,right,0.0950148,1,5,7,1,FALSE,1,0,1,1,TRUE,FALSE,high_6,0.75,-1,3,,,,,,,,,,,165,3,3.2.2021,164.8622493
72,"['high', 4]",4,black,135,left,up,high,black_high_135_up,white_high_45_up,7,left,0.386634,1,7,5,1,FALSE,2,0,1,1,TRUE,FALSE,high_4,0.75,-1,3,,,,,,,,,,,165,3,3.2.2021,164.8622493
73,"['high', 4]",4,white,45,left,down,high,white_high_45_down,black_high_135_down,6,left,0.1258825,1,6,6,1,FALSE,2,0,1,1,TRUE,FALSE,high_4,0.75,-1,3,,,,,,,,,,,165,3,3.2.2021,164.8622493
74,"['high', 6]",6,white,45,left,down,high,white_high_45_down,black_high_135_down,4,left,0.1065187,1,4,8,1,FALSE,1,0,1,1,TRUE,FALSE,high_6,0.75,-1,3,,,,,,,,,,,165,3,3.2.2021,164.8622493
75,"['low', 1]",1,white,45,left,down,low,white_low_45_down,black_low_135_down,11,left,0.2437329,1,11,9,0,TRUE,3,0,1,1,TRUE,FALSE,low_1,0.75,-1,3,,,,,,,,,,,165,3,3.2.2021,164.8622493
76,"['low', 1]",1,black,135,left,down,low,black_low_135_down,white_low_45_down,10,left,0.0344245,1,10,10,1,TRUE,4,0,1,1,TRUE,FALSE,low_1,0.75,-1,3,,,,,,,,,,,165,3,3.2.2021,164.8622493
77,"['low', 1]",1,white,45,left,up,low,white_low_45_up,black_low_135_up,9,left,0.753936,1,9,11,1,FALSE,4,0,1,1,TRUE,FALSE,low_1,0.75,-1,3,,,,,,,,,,,165,3,3.2.2021,164.8622493
78,"['high', 6]",6,black,135,left,up,high,black_high_135_up,white_high_45_up,3,left,0.5306705,1,3,9,1,FALSE,1,0,1,1,TRUE,FALSE,high_6,0.75,-1,3,,,,,,,,,,,165,3,3.2.2021,164.8622493
79,"['low', 4]",4,white,135,right,down,low,white_low_135_down,black_low_45_down,4,right,0.0843542,1,4,7,0,TRUE,3,0,1,1,TRUE,FALSE,low_4,0.75,-1,3,,,,,,,,,,,165,3,3.2.2021,164.8622493
80,"['low', 2]",2,black,45,right,down,low,black_low_45_down,white_low_135_down,8,right,0.1443082,1,8,8,0,TRUE,5,1,1,1,TRUE,FALSE,low_2,0.75,-1,3,,,,,,,,,,,165,3,3.2.2021,164.8622493
81,"['low', 6]",6,black,45,right,down,low,black_low_45_down,white_low_135_down,1,right,0.2720873,1,1,10,1,FALSE,2,0,1,1,TRUE,FALSE,low_6,0.75,-1,3,,,,,,,,,,,165,3,3.2.2021,164.8622493
82,"['low', 6]",6,black,45,right,down,low,black_low_45_down,white_low_135_down,1,right,4.6012618,1,1,11,1,FALSE,2,0,1,1,TRUE,FALSE,low_6,0.75,-1,3,,,,,,,,,,,165,3,3.2.2021,164.8622493
83,"['low', 1]",1,black,135,left,down,low,black_low_135_down,white_low_45_down,8,left,0.195145,1,8,12,1,FALSE,4,0,1,1,TRUE,FALSE,low_1,0.75,-1,3,,,,,,,,,,,165,3,3.2.2021,164.8622493
84,"['high', 2]",2,white,135,right,down,high,white_high_135_down,black_high_45_down,16,right,0.2229939,1,16,4,1,TRUE,1,0,1,1,TRUE,FALSE,high_2,0.75,-1,3,,,,,,,,,,,165,3,3.2.2021,164.8622493
85,"['low', 3]",3,black,135,left,down,low,black_low_135_down,white_low_45_down,4,left,0.0571489,1,4,8,1,TRUE,4,0,1,1,TRUE,FALSE,low_3,0.75,-1,3,,,,,,,,,,,165,3,3.2.2021,164.8622493
86,"['low', 4]",4,white,135,right,up,low,white_low_135_up,black_low_45_up,3,right,0.4137566,1,3,8,1,TRUE,4,0,1,1,TRUE,FALSE,low_4,0.75,-1,3,,,,,,,,,,,165,3,3.2.2021,164.8622493
87,"['low', 6]",6,white,135,right,down,low,white_low_135_down,black_low_45_down,1,right,0.1498296,1,1,12,1,FALSE,2,0,1,1,TRUE,FALSE,low_6,0.75,-1,3,,,,,,,,,,,165,3,3.2.2021,164.8622493
88,"['high', 3]",3,black,135,left,down,high,black_high_135_down,white_high_45_down,4,left,0.3123683,1,4,4,1,FALSE,0,0,1,1,TRUE,FALSE,high_3,0.75,-1,3,,,,,,,,,,,165,3,3.2.2021,164.8622493
89,"['low', 6]",6,white,45,left,up,low,white_low_45_up,black_low_135_up,1,left,0.2462037,1,1,13,1,FALSE,2,0,1,1,TRUE,FALSE,low_6,0.75,-1,3,,,,,,,,,,,165,3,3.2.2021,164.8622493
90,"['high', 1]",1,black,45,right,up,high,black_high_45_up,white_high_135_up,15,right,0.4145209,1,15,9,1,TRUE,6,1,1,1,TRUE,FALSE,high_1,0.75,-1,3,,,,,,,,,,,165,3,3.2.2021,164.8622493
91,"['high', 4]",4,white,135,right,up,high,white_high_135_up,black_high_45_up,5,left,1.3210507,0,5,7,1,FALSE,2,0,1,1,TRUE,FALSE,high_4,0.75,-1,3,,,,,,,,,,,165,3,3.2.2021,164.8622493
92,"['low', 3]",3,black,135,left,up,low,black_low_135_up,white_low_45_up,3,left,0.1927679,1,3,9,1,FALSE,4,0,1,1,TRUE,FALSE,low_3,0.75,-1,3,,,,,,,,,,,165,3,3.2.2021,164.8622493
93,"['high', 1]",1,white,45,left,down,high,white_high_45_down,black_high_135_down,14,left,0.0160622,1,14,10,1,FALSE,6,1,1,1,TRUE,FALSE,high_1,0.75,-1,3,,,,,,,,,,,165,3,3.2.2021,164.8622493
94,"['high', 2]",2,black,135,left,up,high,black_high_135_up,white_high_45_up,15,left,0.3929738,1,15,5,1,FALSE,1,0,1,1,TRUE,FALSE,high_2,0.75,-1,3,,,,,,,,,,,165,3,3.2.2021,164.8622493
95,"['high', 4]",4,black,45,right,down,high,black_high_45_down,white_high_135_down,8,left,0.5036261,0,8,8,0,TRUE,3,0,1,1,TRUE,FALSE,high_4,0.75,-1,3,,,,,,,,,,,165,3,3.2.2021,164.8622493
96,"['high', 6]",6,white,45,left,up,high,white_high_45_up,black_high_135_up,2,left,0.3253873,1,2,10,1,FALSE,1,0,1,1,TRUE,FALSE,high_6,0.75,-1,3,,,,,,,,,,,165,3,3.2.2021,164.8622493
97,"['low', 3]",3,white,135,right,up,low,white_low_135_up,black_low_45_up,2,left,0.2264349,0,2,10,1,FALSE,4,0,1,1,TRUE,FALSE,low_3,0.75,-1,3,,,,,,,,,,,165,3,3.2.2021,164.8622493
98,"['low', 2]",2,black,45,right,down,low,black_low_45_down,white_low_135_down,7,right,0.1355877,1,7,9,1,TRUE,6,1,1,1,TRUE,FALSE,low_2,0.75,-1,3,,,,,,,,,,,165,3,3.2.2021,164.8622493
99,"['high', 6]",6,white,135,right,down,high,white_high_135_down,black_high_45_down,1,right,0.6546202,1,1,11,1,FALSE,1,0,1,1,TRUE,FALSE,high_6,0.75,-1,3,,,,,,,,,,,165,3,3.2.2021,164.8622493
100,"['low', 4]",4,black,45,right,down,low,black_low_45_down,white_low_135_down,2,right,0.6158311,1,2,9,1,FALSE,4,0,1,1,TRUE,FALSE,low_4,0.75,-1,3,,,,,,,,,,,165,3,3.2.2021,164.8622493
101,"['low', 4]",4,white,135,right,up,low,white_low_135_up,black_low_45_up,1,left,1.1083581,0,1,10,1,FALSE,4,0,1,1,TRUE,FALSE,low_4,0.75,-1,3,,,,,,,,,,,165,3,3.2.2021,164.8622493
102,"['low', 1]",1,black,45,right,up,low,black_low_45_up,white_low_135_up,7,right,0.977296,1,7,13,1,FALSE,4,0,1,1,TRUE,FALSE,low_1,0.75,-1,3,,,,,,,,,,,165,3,3.2.2021,164.8622493
103,"['low', 6]",6,white,45,left,down,low,white_low_45_down,black_low_135_down,1,left,0.3493229,1,1,14,1,FALSE,2,0,1,1,TRUE,FALSE,low_6,0.75,-1,3,,,,,,,,,,,165,3,3.2.2021,164.8622493
104,"['low', 1]",1,black,135,left,up,low,black_low_135_up,white_low_45_up,6,left,0.267703,1,6,14,1,FALSE,4,0,1,1,TRUE,FALSE,low_1,0.75,-1,3,,,,,,,,,,,165,3,3.2.2021,164.8622493
105,"['low', 6]",6,white,135,right,up,low,white_low_135_up,black_low_45_up,1,right,0.2743425,1,1,15,1,FALSE,2,0,1,1,TRUE,FALSE,low_6,0.75,-1,3,,,,,,,,,,,165,3,3.2.2021,164.8622493
106,"['low', 6]",6,white,45,left,down,low,white_low_45_down,black_low_135_down,1,left,0.7574701,1,1,16,1,FALSE,2,0,1,1,TRUE,FALSE,low_6,0.75,-1,3,,,,,,,,,,,165,3,3.2.2021,164.8622493
107,"['low', 2]",2,white,45,left,up,low,white_low_45_up,black_low_135_up,6,left,0.2756135,1,6,10,1,FALSE,6,1,1,1,TRUE,FALSE,low_2,0.75,-1,3,,,,,,,,,,,165,3,3.2.2021,164.8622493
108,"['high', 2]",2,black,45,right,down,high,black_high_45_down,white_high_135_down,14,left,0.3411779,0,14,6,1,FALSE,1,0,1,1,TRUE,FALSE,high_2,0.75,-1,3,,,,,,,,,,,165,3,3.2.2021,164.8622493
109,"['high', 3]",3,black,45,right,up,high,black_high_45_up,white_high_135_up,3,left,0.7697793,0,3,5,1,FALSE,0,0,1,1,TRUE,FALSE,high_3,0.75,-1,3,,,,,,,,,,,165,3,3.2.2021,164.8622493
110,"['high', 4]",4,white,45,left,down,high,white_high_45_down,black_high_135_down,11,left,0.2347794,1,11,9,0,FALSE,3,0,1,1,TRUE,FALSE,high_4,0.75,-1,3,,,,,,,,,,,165,3,3.2.2021,164.8622493
111,"['high', 6]",6,black,135,left,up,high,black_high_135_up,white_high_45_up,1,left,2.7700173,1,1,12,1,FALSE,1,0,1,1,TRUE,FALSE,high_6,0.75,-1,3,,,,,,,,,,,165,3,3.2.2021,164.8622493
112,"['high', 1]",1,black,45,right,up,high,black_high_45_up,white_high_135_up,13,left,0.2005522,0,13,11,1,FALSE,6,1,1,1,TRUE,FALSE,high_1,0.75,-1,3,,,,,,,,,,,165,3,3.2.2021,164.8622493
113,"['high', 6]",6,white,135,right,up,high,white_high_135_up,black_high_45_up,1,right,0.2882623,1,1,13,1,FALSE,1,0,1,1,TRUE,FALSE,high_6,0.75,-1,3,,,,,,,,,,,165,3,3.2.2021,164.8622493
114,"['high', 3]",3,black,135,left,down,high,black_high_135_down,white_high_45_down,6,left,0.2964585,1,6,6,0,TRUE,1,0,1,1,TRUE,FALSE,high_3,0.75,-1,3,,,,,,,,,,,165,3,3.2.2021,164.8622493
115,"['low', 6]",6,black,45,right,up,low,black_low_45_up,white_low_135_up,1,right,1.4638478,1,1,17,1,FALSE,2,0,1,1,TRUE,FALSE,low_6,0.75,-1,3,,,,,,,,,,,165,3,3.2.2021,164.8622493
116,"['high', 1]",1,white,45,left,up,high,white_high_45_up,black_high_135_up,16,right,0.5554323,0,16,12,0,TRUE,7,1,1,1,TRUE,FALSE,high_1,0.75,-1,3,,,,,,,,,,,165,3,3.2.2021,164.8622493
117,"['low', 2]",2,black,135,left,down,low,black_low_135_down,white_low_45_down,5,left,0.2661986,1,5,11,1,FALSE,6,1,1,1,TRUE,FALSE,low_2,0.75,-1,3,,,,,,,,,,,165,3,3.2.2021,164.8622493
118,"['low', 6]",6,black,45,right,down,low,black_low_45_down,white_low_135_down,1,right,0.5653714,1,1,18,1,FALSE,2,0,1,1,TRUE,FALSE,low_6,0.75,-1,3,,,,,,,,,,,165,3,3.2.2021,164.8622493
119,"['low', 3]",3,white,135,right,down,low,white_low_135_down,black_low_45_down,5,left,0.1278901,0,5,11,0,TRUE,5,1,1,1,TRUE,FALSE,low_3,0.75,-1,3,,,,,,,,,,,165,3,3.2.2021,164.8622493
120,"['high', 6]",6,black,45,right,up,high,black_high_45_up,white_high_135_up,1,left,0.1295699,0,1,14,1,FALSE,1,0,1,1,TRUE,FALSE,high_6,0.75,-1,3,,,,,,,,,,,165,3,3.2.2021,164.8622493
121,"['high', 3]",3,white,135,right,up,high,white_high_135_up,black_high_45_up,5,left,0.8461709,0,5,7,1,TRUE,2,0,1,1,TRUE,FALSE,high_3,0.75,-1,3,,,,,,,,,,,165,3,3.2.2021,164.8622493
122,"['low', 6]",6,black,45,right,down,low,black_low_45_down,white_low_135_down,1,left,0.292078,0,1,19,1,FALSE,2,0,1,1,TRUE,FALSE,low_6,0.75,-1,3,,,,,,,,,,,165,3,3.2.2021,164.8622493
123,"['low', 4]",4,black,45,right,up,low,black_low_45_up,white_low_135_up,4,left,0.2901671,0,4,11,0,TRUE,5,1,1,1,TRUE,FALSE,low_4,0.75,-1,3,,,,,,,,,,,165,3,3.2.2021,164.8622493
124,"['high', 1]",1,white,45,left,up,high,white_high_45_up,black_high_135_up,19,left,0.3271222,1,19,13,0,FALSE,7,1,1,1,TRUE,FALSE,high_1,0.75,-1,3,,,,,,,,,,,165,3,3.2.2021,164.8622493
125,"['high', 2]",2,black,45,right,up,high,black_high_45_up,white_high_135_up,17,right,0.7471087,1,17,7,0,TRUE,2,0,1,1,TRUE,FALSE,high_2,0.75,-1,3,,,,,,,,,,,165,3,3.2.2021,164.8622493
126,"['high', 4]",4,white,45,left,up,high,white_high_45_up,black_high_135_up,10,left,0.0696496,1,10,10,1,TRUE,4,0,1,1,TRUE,FALSE,high_4,0.75,-1,3,,,,,,,,,,,165,3,3.2.2021,164.8622493
127,"['low', 4]",4,white,135,right,up,low,white_low_135_up,black_low_45_up,7,right,0.1818018,1,7,12,0,FALSE,5,1,1,1,TRUE,FALSE,low_4,0.75,-1,3,,,,,,,,,,,165,3,3.2.2021,164.8622493
128,"['low', 4]",4,black,135,left,down,low,black_low_135_down,white_low_45_down,6,left,0.1718564,1,6,13,1,TRUE,6,1,1,1,TRUE,FALSE,low_4,0.75,-1,3,,,,,,,,,,,165,3,3.2.2021,164.8622493
129,"['low', 1]",1,white,135,right,down,low,white_low_135_down,black_low_45_down,5,right,1.594138,1,5,15,1,FALSE,4,0,1,1,TRUE,FALSE,low_1,0.75,-1,3,,,,,,,,,,,165,3,3.2.2021,164.8622493
130,"['high', 1]",1,black,45,right,up,high,black_high_45_up,white_high_135_up,18,right,0.8073744,1,18,14,1,TRUE,8,1,1,1,TRUE,FALSE,high_1,0.75,-1,3,,,,,,,,,,,165,3,3.2.2021,164.8622493
131,"['low', 1]",1,white,135,right,up,low,white_low_135_up,black_low_45_up,4,left,0.7248479,0,4,16,1,FALSE,4,0,1,1,TRUE,FALSE,low_1,0.75,-1,3,,,,,,,,,,,165,3,3.2.2021,164.8622493
132,"['high', 4]",4,black,135,left,up,high,black_high_135_up,white_high_45_up,9,left,2.2877426,1,9,11,1,FALSE,4,0,1,1,TRUE,FALSE,high_4,0.75,-1,3,,,,,,,,,,,165,3,3.2.2021,164.8622493
133,"['high', 3]",3,white,135,right,down,high,white_high_135_down,black_high_45_down,8,right,1.2726366,1,8,8,0,TRUE,3,0,1,1,TRUE,FALSE,high_3,0.75,-1,3,,,,,,,,,,,165,3,3.2.2021,164.8622493
134,"['high', 6]",6,white,45,left,up,high,white_high_45_up,black_high_135_up,4,left,1.1693654,1,4,15,0,TRUE,2,0,1,1,TRUE,FALSE,high_6,0.75,-1,3,,,,,,,,,,,165,3,3.2.2021,164.8622493
135,"['low', 4]",4,black,45,right,down,low,black_low_45_down,white_low_135_down,5,left,0.3422429,0,5,14,1,FALSE,6,1,1,1,TRUE,FALSE,low_4,0.75,-1,3,,,,,,,,,,,165,3,3.2.2021,164.8622493
136,"['low', 1]",1,white,45,left,up,low,white_low_45_up,black_low_135_up,7,left,0.6854272,1,7,17,0,TRUE,5,1,1,1,TRUE,FALSE,low_1,0.75,-1,3,,,,,,,,,,,165,3,3.2.2021,164.8622493
137,"['high', 4]",4,white,45,left,up,high,white_high_45_up,black_high_135_up,8,left,1.3295563,1,8,12,1,FALSE,4,0,1,1,TRUE,FALSE,high_4,0.75,-1,3,,,,,,,,,,,165,3,3.2.2021,164.8622493
138,"['low', 1]",1,black,135,left,down,low,black_low_135_down,white_low_45_down,6,left,0.240501,1,6,18,1,TRUE,6,1,1,1,TRUE,FALSE,low_1,0.75,-1,3,,,,,,,,,,,165,3,3.2.2021,164.8622493
139,"['high', 2]",2,white,45,left,up,high,white_high_45_up,black_high_135_up,16,left,0.1162563,1,16,8,1,TRUE,3,0,1,1,TRUE,FALSE,high_2,0.75,-1,3,,,,,,,,,,,165,3,3.2.2021,164.8622493
140,"['high', 1]",1,white,45,left,down,high,white_high_45_down,black_high_135_down,17,left,0.4428319,1,17,15,1,FALSE,8,1,1,1,TRUE,FALSE,high_1,0.75,-1,3,,,,,,,,,,,165,3,3.2.2021,164.8622493
141,"['low', 1]",1,white,135,right,up,low,white_low_135_up,black_low_45_up,5,left,0.3084367,0,5,19,1,FALSE,6,1,1,1,TRUE,FALSE,low_1,0.75,-1,3,,,,,,,,,,,165,3,3.2.2021,164.8622493
142,"['low', 3]",3,white,135,right,up,low,white_low_135_up,black_low_45_up,8,right,0.1851687,1,8,12,0,FALSE,5,1,1,1,TRUE,FALSE,low_3,0.75,-1,3,,,,,,,,,,,165,3,3.2.2021,164.8622493
143,"['low', 2]",2,black,135,left,down,low,black_low_135_down,white_low_45_down,4,left,0.1462483,1,4,12,1,FALSE,6,1,1,1,TRUE,FALSE,low_2,0.75,-1,3,,,,,,,,,,,165,3,3.2.2021,164.8622493
144,"['low', 2]",2,white,45,left,down,low,white_low_45_down,black_low_135_down,3,left,0.1698001,1,3,13,1,FALSE,6,1,1,1,TRUE,FALSE,low_2,0.75,-1,3,,,,,,,,,,,165,3,3.2.2021,164.8622493
145,"['high', 6]",6,black,135,left,down,high,black_high_135_down,white_high_45_down,3,left,0.2018542,1,3,16,1,TRUE,3,0,1,1,TRUE,FALSE,high_6,0.75,-1,3,,,,,,,,,,,165,3,3.2.2021,164.8622493
146,"['low', 1]",1,white,135,right,up,low,white_low_135_up,black_low_45_up,8,right,0.0927894,1,8,20,0,TRUE,7,1,1,1,TRUE,FALSE,low_1,0.75,-1,3,,,,,,,,,,,165,3,3.2.2021,164.8622493
147,"['high', 6]",6,white,135,right,up,high,white_high_135_up,black_high_45_up,2,left,0.2491251,0,2,17,1,FALSE,3,0,1,1,TRUE,FALSE,high_6,0.75,-1,3,,,,,,,,,,,165,3,3.2.2021,164.8622493
148,"['high', 1]",1,white,45,left,down,high,white_high_45_down,black_high_135_down,16,left,0.2260733,1,16,16,1,FALSE,8,1,1,1,TRUE,FALSE,high_1,0.75,-1,3,,,,,,,,,,,165,3,3.2.2021,164.8622493
149,"['high', 1]",1,white,45,left,down,high,white_high_45_down,black_high_135_down,15,left,0.2505172,1,15,17,1,FALSE,8,1,1,1,TRUE,FALSE,high_1,0.75,-1,3,,,,,,,,,,,165,3,3.2.2021,164.8622493
150,"['high', 6]",6,white,45,left,up,high,white_high_45_up,black_high_135_up,5,left,0.3428727,1,5,18,0,TRUE,4,0,1,1,TRUE,FALSE,high_6,0.75,-1,3,,,,,,,,,,,165,3,3.2.2021,164.8622493
151,"['low', 1]",1,white,135,right,up,low,white_low_135_up,black_low_45_up,7,right,0.1045302,1,7,21,1,TRUE,8,1,1,1,TRUE,FALSE,low_1,0.75,-1,3,,,,,,,,,,,165,3,3.2.2021,164.8622493
152,"['low', 2]",2,white,45,left,up,low,white_low_45_up,black_low_135_up,2,left,0.0622625,1,2,14,1,FALSE,6,1,1,1,TRUE,FALSE,low_2,0.75,-1,3,,,,,,,,,,,165,3,3.2.2021,164.8622493
153,"['high', 6]",6,black,45,right,down,high,black_high_45_down,white_high_135_down,4,right,0.4107765,1,4,19,1,TRUE,5,1,1,1,TRUE,FALSE,high_6,0.75,-1,3,,,,,,,,,,,165,3,3.2.2021,164.8622493
154,"['high', 4]",4,white,135,right,down,high,white_high_135_down,black_high_45_down,7,right,0.2073424,1,7,13,1,FALSE,4,0,1,1,TRUE,FALSE,high_4,0.75,-1,3,,,,,,,,,,,165,3,3.2.2021,164.8622493
155,"['low', 6]",6,black,45,right,up,low,black_low_45_up,white_low_135_up,4,right,0.2669753,1,4,20,0,TRUE,3,0,1,1,TRUE,FALSE,low_6,0.75,-1,3,,,,,,,,,,,165,3,3.2.2021,164.8622493
156,"['high', 3]",3,black,135,left,up,high,black_high_135_up,white_high_45_up,7,left,0.5129727,1,7,9,1,TRUE,4,0,1,1,TRUE,FALSE,high_3,0.75,-1,3,,,,,,,,,,,165,3,3.2.2021,164.8622493
157,"['high', 1]",1,black,45,right,down,high,black_high_45_down,white_high_135_down,14,right,1.2736957,1,14,18,1,FALSE,8,1,1,1,TRUE,FALSE,high_1,0.75,-1,3,,,,,,,,,,,165,3,3.2.2021,164.8622493
158,"['low', 1]",1,black,135,left,down,low,black_low_135_down,white_low_45_down,6,left,0.2001476,1,6,22,1,FALSE,8,1,1,1,TRUE,FALSE,low_1,0.75,-1,3,,,,,,,,,,,165,3,3.2.2021,164.8622493
159,"['high', 4]",4,black,45,right,up,high,black_high_45_up,white_high_135_up,6,right,0.2126842,1,6,14,1,FALSE,4,0,1,1,TRUE,FALSE,high_4,0.75,-1,3,,,,,,,,,,,165,3,3.2.2021,164.8622493
160,"['high', 2]",2,white,135,right,down,high,white_high_135_down,black_high_45_down,15,right,0.0607336,1,15,9,1,FALSE,3,0,1,1,TRUE,FALSE,high_2,0.75,-1,3,,,,,,,,,,,165,3,3.2.2021,164.8622493
161,"['high', 6]",6,white,135,right,up,high,white_high_135_up,black_high_45_up,3,right,0.1515613,1,3,20,1,FALSE,5,1,1,1,TRUE,FALSE,high_6,0.75,-1,3,,,,,,,,,,,165,3,3.2.2021,164.8622493
162,"['high', 4]",4,black,45,right,up,high,black_high_45_up,white_high_135_up,5,right,0.1769079,1,5,15,1,FALSE,4,0,1,1,TRUE,FALSE,high_4,0.75,-1,3,,,,,,,,,,,165,3,3.2.2021,164.8622493
163,"['low', 4]",4,black,135,left,down,low,black_low_135_down,white_low_45_down,8,left,0.1013441,1,8,15,0,TRUE,7,1,1,1,TRUE,FALSE,low_4,0.75,-1,3,,,,,,,,,,,165,3,3.2.2021,164.8622493
164,"['low', 1]",1,white,45,left,down,low,white_low_45_down,black_low_135_down,5,left,0.3186505,1,5,23,1,FALSE,8,1,1,1,TRUE,FALSE,low_1,0.75,-1,3,,,,,,,,,,,165,3,3.2.2021,164.8622493
165,"['high', 4]",4,white,45,left,down,high,white_high_45_down,black_high_135_down,4,right,0.9042646,0,4,16,1,FALSE,4,0,1,1,TRUE,FALSE,high_4,0.75,-1,3,,,,,,,,,,,165,3,3.2.2021,164.8622493
166,"['high', 4]",4,black,135,left,down,high,black_high_135_down,white_high_45_down,7,left,0.1745067,1,7,17,0,TRUE,5,1,1,1,TRUE,FALSE,high_4,0.75,-1,3,,,,,,,,,,,165,3,3.2.2021,164.8622493
167,"['low', 2]",2,black,135,left,down,low,black_low_135_down,white_low_45_down,1,left,1.2187409,1,1,15,1,FALSE,6,1,1,1,TRUE,FALSE,low_2,0.75,-1,3,,,,,,,,,,,165,3,3.2.2021,164.8622493
168,"['high', 6]",6,black,45,right,up,high,black_high_45_up,white_high_135_up,2,right,0.8837094,1,2,21,1,FALSE,5,1,1,1,TRUE,FALSE,high_6,0.75,-1,3,,,,,,,,,,,165,3,3.2.2021,164.8622493
169,"['high', 1]",1,black,135,left,down,high,black_high_135_down,white_high_45_down,13,left,2.0598962,1,13,19,1,FALSE,8,1,1,1,TRUE,FALSE,high_1,0.75,-1,3,,,,,,,,,,,165,3,3.2.2021,164.8622493
170,"['high', 2]",2,white,45,left,down,high,white_high_45_down,black_high_135_down,14,left,0.2219187,1,14,10,1,FALSE,3,0,1,1,TRUE,FALSE,high_2,0.75,-1,3,,,,,,,,,,,165,3,3.2.2021,164.8622493
171,"['high', 1]",1,white,135,right,down,high,white_high_135_down,black_high_45_down,12,right,0.2863498,1,12,20,1,FALSE,8,1,1,1,TRUE,FALSE,high_1,0.75,-1,3,,,,,,,,,,,165,3,3.2.2021,164.8622493
172,"['low', 2]",2,white,45,left,down,low,white_low_45_down,black_low_135_down,1,left,0.2960331,1,1,16,1,FALSE,6,1,1,1,TRUE,FALSE,low_2,0.75,-1,3,,,,,,,,,,,165,3,3.2.2021,164.8622493
173,"['low', 6]",6,black,45,right,up,low,black_low_45_up,white_low_135_up,3,right,0.2238647,1,3,21,1,TRUE,4,0,1,1,TRUE,FALSE,low_6,0.75,-1,3,,,,,,,,,,,165,3,3.2.2021,164.8622493
174,"['high', 4]",4,white,45,left,down,high,white_high_45_down,black_high_135_down,6,left,0.0442128,1,6,18,1,TRUE,6,1,1,1,TRUE,FALSE,high_4,0.75,-1,3,,,,,,,,,,,165,3,3.2.2021,164.8622493
175,"['low', 6]",6,black,45,right,up,low,black_low_45_up,white_low_135_up,2,right,0.184519,1,2,22,1,FALSE,4,0,1,1,TRUE,FALSE,low_6,0.75,-1,3,,,,,,,,,,,165,3,3.2.2021,164.8622493
176,"['low', 2]",2,white,135,right,down,low,white_low_135_down,black_low_45_down,1,right,0.6513441,1,1,17,1,FALSE,6,1,1,1,TRUE,FALSE,low_2,0.75,-1,3,,,,,,,,,,,165,3,3.2.2021,164.8622493
177,"['high', 1]",1,white,45,left,down,high,white_high_45_down,black_high_135_down,11,left,0.0479635,1,11,21,1,FALSE,8,1,1,1,TRUE,FALSE,high_1,0.75,-1,3,,,,,,,,,,,165,3,3.2.2021,164.8622493
178,"['high', 4]",4,black,45,right,up,high,black_high_45_up,white_high_135_up,5,right,0.2278142,1,5,19,1,FALSE,6,1,1,1,TRUE,FALSE,high_4,0.75,-1,3,,,,,,,,,,,165,3,3.2.2021,164.8622493
179,"['low', 1]",1,black,135,left,down,low,black_low_135_down,white_low_45_down,4,right,0.2692064,0,4,24,1,FALSE,8,1,1,1,TRUE,FALSE,low_1,0.75,-1,3,,,,,,,,,,,165,3,3.2.2021,164.8622493
180,"['low', 4]",4,white,45,left,down,low,white_low_45_down,black_low_135_down,7,left,0.0411217,1,7,16,1,TRUE,8,1,1,1,TRUE,FALSE,low_4,0.75,-1,3,,,,,,,,,,,165,3,3.2.2021,164.8622493
181,"['high', 6]",6,white,135,right,up,high,white_high_135_up,black_high_45_up,1,left,0.1118073,0,1,22,1,FALSE,5,1,1,1,TRUE,FALSE,high_6,0.75,-1,3,,,,,,,,,,,165,3,3.2.2021,164.8622493
182,"['low', 3]",3,white,135,right,down,low,white_low_135_down,black_low_45_down,7,right,0.0476403,1,7,13,1,TRUE,6,1,1,1,TRUE,FALSE,low_3,0.75,-1,3,,,,,,,,,,,165,3,3.2.2021,164.8622493
183,"['low', 1]",1,black,45,right,down,low,black_low_45_down,white_low_135_down,7,left,0.0709999,0,7,25,0,TRUE,9,1,1,1,TRUE,FALSE,low_1,0.75,-1,3,,,,,,,,,,,165,3,3.2.2021,164.8622493
184,"['low', 1]",1,black,135,left,up,low,black_low_135_up,white_low_45_up,10,left,0.6860377,1,10,26,0,FALSE,9,1,1,1,TRUE,FALSE,low_1,0.75,-1,3,,,,,,,,,,,165,3,3.2.2021,164.8622493
185,"['high', 4]",4,white,45,left,up,high,white_high_45_up,black_high_135_up,4,right,0.2549252,0,4,20,1,FALSE,6,1,1,1,TRUE,FALSE,high_4,0.75,-1,3,,,,,,,,,,,165,3,3.2.2021,164.8622493
186,"['low', 3]",3,white,45,left,down,low,white_low_45_down,black_low_135_down,6,left,0.0732263,1,6,14,1,FALSE,6,1,1,1,TRUE,FALSE,low_3,0.75,-1,3,,,,,,,,,,,165,3,3.2.2021,164.8622493
187,"['low', 2]",2,black,45,right,up,low,black_low_45_up,white_low_135_up,1,left,1.8601964,0,1,18,1,FALSE,6,1,1,1,TRUE,FALSE,low_2,0.75,-1,3,,,,,,,,,,,165,3,3.2.2021,164.8622493
188,"['high', 4]",4,black,135,left,up,high,black_high_135_up,white_high_45_up,7,left,0.0277215,1,7,21,0,TRUE,7,1,1,1,TRUE,FALSE,high_4,0.75,-1,3,,,,,,,,,,,165,3,3.2.2021,164.8622493
189,"['low', 4]",4,white,45,left,down,low,white_low_45_down,black_low_135_down,6,left,0.7362138,1,6,17,1,FALSE,8,1,1,1,TRUE,FALSE,low_4,0.75,-1,3,,,,,,,,,,,165,3,3.2.2021,164.8622493
190,"['low', 2]",2,white,135,right,up,low,white_low_135_up,black_low_45_up,4,right,0.0414058,1,4,19,0,TRUE,7,1,1,1,TRUE,FALSE,low_2,0.75,-1,3,,,,,,,,,,,165,3,3.2.2021,164.8622493
191,"['low', 2]",2,black,135,left,down,low,black_low_135_down,white_low_45_down,3,left,0.0783149,1,3,20,1,TRUE,8,1,1,1,TRUE,FALSE,low_2,0.75,-1,3,,,,,,,,,,,165,3,3.2.2021,164.8622493
192,"['low', 2]",2,black,45,right,down,low,black_low_45_down,white_low_135_down,2,right,0.196773,1,2,21,1,FALSE,8,1,1,1,TRUE,FALSE,low_2,0.75,-1,3,,,,,,,,,,,165,3,3.2.2021,164.8622493
193,"['high', 3]",3,white,45,left,up,high,white_high_45_up,black_high_135_up,6,left,1.0102821,1,6,10,1,FALSE,4,0,1,1,TRUE,FALSE,high_3,0.75,-1,3,,,,,,,,,,,165,3,3.2.2021,164.8622493
194,"['low', 1]",1,white,45,left,down,low,white_low_45_down,black_low_135_down,9,left,1.8607147,1,9,27,1,TRUE,10,1,1,1,TRUE,FALSE,low_1,0.75,-1,3,,,,,,,,,,,165,3,3.2.2021,164.8622493
195,"['low', 1]",1,black,45,right,down,low,black_low_45_down,white_low_135_down,8,left,2.0088766,0,8,28,1,FALSE,10,1,1,1,TRUE,FALSE,low_1,0.75,-1,3,,,,,,,,,,,165,3,3.2.2021,164.8622493
196,"['high', 4]",4,black,135,left,up,high,black_high_135_up,white_high_45_up,6,left,0.1545479,1,6,22,1,TRUE,8,1,1,1,TRUE,FALSE,high_4,0.75,-1,3,,,,,,,,,,,165,3,3.2.2021,164.8622493
197,"['low', 4]",4,black,45,right,down,low,black_low_45_down,white_low_135_down,5,right,0.1711967,1,5,18,1,FALSE,8,1,1,1,TRUE,FALSE,low_4,0.75,-1,3,,,,,,,,,,,165,3,3.2.2021,164.8622493
198,"['low', 3]",3,white,45,left,up,low,white_low_45_up,black_low_135_up,5,left,0.3874393,1,5,15,1,FALSE,6,1,1,1,TRUE,FALSE,low_3,0.75,-1,3,,,,,,,,,,,165,3,3.2.2021,164.8622493
199,"['low', 2]",2,black,45,right,down,low,black_low_45_down,white_low_135_down,1,left,0.5518112,0,1,22,1,FALSE,8,1,1,1,TRUE,FALSE,low_2,0.75,-1,3,,,,,,,,,,,165,3,3.2.2021,164.8622493
200,"['low', 3]",3,white,45,left,up,low,white_low_45_up,black_low_135_up,4,left,0.1869627,1,4,16,1,FALSE,6,1,1,1,TRUE,FALSE,low_3,0.75,-1,3,,,,,,,,,,,165,3,3.2.2021,164.8622493
201,"['high', 1]",1,white,135,right,down,high,white_high_135_down,black_high_45_down,10,left,0.6105915,0,10,22,1,FALSE,8,1,1,1,TRUE,FALSE,high_1,0.75,-1,3,,,,,,,,,,,165,3,3.2.2021,164.8622493
202,"['high', 6]",6,white,45,left,down,high,white_high_45_down,black_high_135_down,4,right,2.6232805,0,4,23,0,TRUE,6,1,1,1,TRUE,FALSE,high_6,0.75,-1,3,,,,,,,,,,,165,3,3.2.2021,164.8622493
203,"['low', 2]",2,white,135,right,down,low,white_low_135_down,black_low_45_down,4,left,0.2632857,0,4,23,0,TRUE,9,1,1,1,TRUE,FALSE,low_2,0.75,-1,3,,,,,,,,,,,165,3,3.2.2021,164.8622493
204,"['high', 2]",2,white,135,right,down,high,white_high_135_down,black_high_45_down,13,right,0.0502746,1,13,11,1,FALSE,3,0,1,1,TRUE,FALSE,high_2,0.75,-1,3,,,,,,,,,,,165,3,3.2.2021,164.8622493
205,"['high', 3]",3,white,45,left,down,high,white_high_45_down,black_high_135_down,5,left,1.2312667,1,5,11,1,FALSE,4,0,1,1,TRUE,FALSE,high_3,0.75,-1,3,,,,,,,,,,,165,3,3.2.2021,164.8622493
206,"['low', 6]",6,white,135,right,down,low,white_low_135_down,black_low_45_down,1,right,0.2821497,1,1,23,1,FALSE,4,0,1,1,TRUE,FALSE,low_6,0.75,-1,3,,,,,,,,,,,165,3,3.2.2021,164.8622493
207,"['high', 4]",4,black,45,right,up,high,black_high_45_up,white_high_135_up,5,left,0.3203489,0,5,23,1,FALSE,8,1,1,1,TRUE,FALSE,high_4,0.75,-1,3,,,,,,,,,,,165,3,3.2.2021,164.8622493
208,"['low', 6]",6,black,45,right,down,low,black_low_45_down,white_low_135_down,1,right,0.1324019,1,1,24,1,FALSE,4,0,1,1,TRUE,FALSE,low_6,0.75,-1,3,,,,,,,,,,,165,3,3.2.2021,164.8622493
209,"['low', 3]",3,white,135,right,up,low,white_low_135_up,black_low_45_up,3,right,0.0880264,1,3,17,1,FALSE,6,1,1,1,TRUE,FALSE,low_3,0.75,-1,3,,,,,,,,,,,165,3,3.2.2021,164.8622493
210,"['low', 1]",1,black,45,right,down,low,black_low_45_down,white_low_135_down,11,left,0.7528028,0,11,29,0,TRUE,11,1,1,1,TRUE,FALSE,low_1,0.75,-1,3,,,,,,,,,,,165,3,3.2.2021,164.8622493
211,"['high', 4]",4,white,135,right,down,high,white_high_135_down,black_high_45_down,8,right,0.0258471,1,8,24,0,TRUE,9,1,1,1,TRUE,FALSE,high_4,0.75,-1,3,,,,,,,,,,,165,3,3.2.2021,164.8622493
212,"['low', 4]",4,black,45,right,down,low,black_low_45_down,white_low_135_down,4,right,0.0117979,1,4,19,1,FALSE,8,1,1,1,TRUE,FALSE,low_4,0.75,-1,3,,,,,,,,,,,165,3,3.2.2021,164.8622493
213,"['high', 2]",2,white,45,left,up,high,white_high_45_up,black_high_135_up,12,left,0.2149256,1,12,12,1,FALSE,3,0,1,1,TRUE,FALSE,high_2,0.75,-1,3,,,,,,,,,,,165,3,3.2.2021,164.8622493
214,"['low', 4]",4,white,45,left,down,low,white_low_45_down,black_low_135_down,3,left,0.0667137,1,3,20,1,FALSE,8,1,1,1,TRUE,FALSE,low_4,0.75,-1,3,,,,,,,,,,,165,3,3.2.2021,164.8622493
215,"['low', 6]",6,black,45,right,up,low,black_low_45_up,white_low_135_up,1,left,0.4885211,0,1,25,1,FALSE,4,0,1,1,TRUE,FALSE,low_6,0.75,-1,3,,,,,,,,,,,165,3,3.2.2021,164.8622493
216,"['low', 1]",1,black,135,left,up,low,black_low_135_up,white_low_45_up,14,right,0.6673807,0,14,30,0,FALSE,11,1,1,1,TRUE,FALSE,low_1,0.75,-1,3,,,,,,,,,,,165,3,3.2.2021,164.8622493
217,"['low', 1]",1,white,45,left,up,low,white_low_45_up,black_low_135_up,17,left,1.415937,1,17,31,0,FALSE,11,1,1,1,TRUE,FALSE,low_1,0.75,-1,3,,,,,,,,,,,165,3,3.2.2021,164.8622493
218,"['high', 6]",6,black,135,left,down,high,black_high_135_down,white_high_45_down,7,right,0.3676285,0,7,24,0,FALSE,6,1,1,1,TRUE,FALSE,high_6,0.75,-1,3,,,,,,,,,,,165,3,3.2.2021,164.8622493
219,"['high', 3]",3,white,135,right,down,high,white_high_135_down,black_high_45_down,4,left,0.1858871,0,4,12,1,FALSE,4,0,1,1,TRUE,FALSE,high_3,0.75,-1,3,,,,,,,,,,,165,3,3.2.2021,164.8622493
220,"['low', 6]",6,black,45,right,up,low,black_low_45_up,white_low_135_up,4,right,0.4644482,1,4,26,0,TRUE,5,1,1,1,TRUE,FALSE,low_6,0.75,-1,3,,,,,,,,,,,165,3,3.2.2021,164.8622493
221,"['low', 2]",2,white,135,right,down,low,white_low_135_down,black_low_45_down,7,right,0.0085141,1,7,24,0,FALSE,9,1,1,1,TRUE,FALSE,low_2,0.75,-1,3,,,,,,,,,,,165,3,3.2.2021,164.8622493
222,"['low', 1]",1,white,135,right,up,low,white_low_135_up,black_low_45_up,16,right,0.1312472,1,16,32,1,TRUE,12,1,1,1,TRUE,FALSE,low_1,0.75,-1,3,,,,,,,,,,,165,3,3.2.2021,164.8622493
223,"['low', 6]",6,white,45,left,down,low,white_low_45_down,black_low_135_down,3,left,0.0391399,1,3,27,1,TRUE,6,1,1,1,TRUE,FALSE,low_6,0.75,-1,3,,,,,,,,,,,165,3,3.2.2021,164.8622493
224,"['high', 2]",2,white,135,right,down,high,white_high_135_down,black_high_45_down,11,right,0.0754386,1,11,13,1,FALSE,3,0,1,1,TRUE,FALSE,high_2,0.75,-1,3,,,,,,,,,,,165,3,3.2.2021,164.8622493
225,"['low', 3]",3,white,135,right,down,low,white_low_135_down,black_low_45_down,2,right,0.1330232,1,2,18,1,FALSE,6,1,1,1,TRUE,FALSE,low_3,0.75,-1,3,,,,,,,,,,,165,3,3.2.2021,164.8622493
226,"['high', 4]",4,white,45,left,up,high,white_high_45_up,black_high_135_up,7,left,0.6817934,1,7,25,1,TRUE,10,1,1,1,TRUE,FALSE,high_4,0.75,-1,3,,,,,,,,,,,165,3,3.2.2021,164.8622493
227,"['low', 6]",6,black,45,right,up,low,black_low_45_up,white_low_135_up,2,right,0.0270944,1,2,28,1,FALSE,6,1,1,1,TRUE,FALSE,low_6,0.75,-1,3,,,,,,,,,,,165,3,3.2.2021,164.8622493
228,"['high', 4]",4,white,45,left,down,high,white_high_45_down,black_high_135_down,6,left,0.1936143,1,6,26,1,FALSE,10,1,1,1,TRUE,FALSE,high_4,0.75,-1,3,,,,,,,,,,,165,3,3.2.2021,164.8622493
229,"['high', 6]",6,white,135,right,up,high,white_high_135_up,black_high_45_up,10,right,0.3044694,1,10,25,0,FALSE,6,1,1,1,TRUE,FALSE,high_6,0.75,-1,3,,,,,,,,,,,165,3,3.2.2021,164.8622493
230,"['low', 2]",2,white,135,right,down,low,white_low_135_down,black_low_45_down,6,right,0.1420052,1,6,25,1,TRUE,10,1,1,1,TRUE,FALSE,low_2,0.75,-1,3,,,,,,,,,,,165,3,3.2.2021,164.8622493
231,"['low', 3]",3,white,45,left,up,low,white_low_45_up,black_low_135_up,1,left,0.2989285,1,1,19,1,FALSE,6,1,1,1,TRUE,FALSE,low_3,0.75,-1,3,,,,,,,,,,,165,3,3.2.2021,164.8622493
232,"['low', 2]",2,white,135,right,down,low,white_low_135_down,black_low_45_down,5,right,0.0116639,1,5,26,1,FALSE,10,1,1,1,TRUE,FALSE,low_2,0.75,-1,3,,,,,,,,,,,165,3,3.2.2021,164.8622493
233,"['low', 3]",3,white,135,right,down,low,white_low_135_down,black_low_45_down,1,right,0.5123904,1,1,20,1,FALSE,6,1,1,1,TRUE,FALSE,low_3,0.75,-1,3,,,,,,,,,,,165,3,3.2.2021,164.8622493
234,"['high', 1]",1,black,135,left,up,high,black_high_135_up,white_high_45_up,13,left,2.9452157,1,13,23,0,TRUE,9,1,1,1,TRUE,FALSE,high_1,0.75,-1,3,,,,,,,,,,,165,3,3.2.2021,164.8622493
235,"['high', 1]",1,black,45,right,up,high,black_high_45_up,white_high_135_up,12,right,0.5597039,1,12,24,1,TRUE,10,1,1,1,TRUE,FALSE,high_1,0.75,-1,3,,,,,,,,,,,165,3,3.2.2021,164.8622493
236,"['high', 3]",3,black,45,right,down,high,black_high_45_down,white_high_135_down,7,right,0.5600114,1,7,13,0,TRUE,5,1,1,1,TRUE,FALSE,high_3,0.75,-1,3,,,,,,,,,,,165,3,3.2.2021,164.8622493
237,"['high', 3]",3,black,135,left,up,high,black_high_135_up,white_high_45_up,6,right,0.4679344,0,6,14,1,TRUE,6,1,1,1,TRUE,FALSE,high_3,0.75,-1,3,,,,,,,,,,,165,3,3.2.2021,164.8622493
238,"['low', 4]",4,black,45,right,down,low,black_low_45_down,white_low_135_down,2,right,0.0741724,1,2,21,1,FALSE,8,1,1,1,TRUE,FALSE,low_4,0.75,-1,3,,,,,,,,,,,165,3,3.2.2021,164.8622493
239,"['high', 4]",4,black,45,right,down,high,black_high_45_down,white_high_135_down,5,right,0.854669,1,5,27,1,FALSE,10,1,1,1,TRUE,FALSE,high_4,0.75,-1,3,,,,,,,,,,,165,3,3.2.2021,164.8622493
240,"['low', 4]",4,black,45,right,up,low,black_low_45_up,white_low_135_up,1,right,0.1910475,1,1,22,1,FALSE,8,1,1,1,TRUE,FALSE,low_4,0.75,-1,3,,,,,,,,,,,165,3,3.2.2021,164.8622493
241,"['high', 4]",4,white,45,left,up,high,white_high_45_up,black_high_135_up,4,right,0.3921833,0,4,28,1,FALSE,10,1,1,1,TRUE,FALSE,high_4,0.75,-1,3,,,,,,,,,,,165,3,3.2.2021,164.8622493
242,"['high', 1]",1,white,45,left,down,high,white_high_45_down,black_high_135_down,11,left,0.1797797,1,11,25,1,FALSE,10,1,1,1,TRUE,FALSE,high_1,0.75,-1,3,,,,,,,,,,,165,3,3.2.2021,164.8622493
243,"['high', 1]",1,white,135,right,up,high,white_high_135_up,black_high_45_up,10,right,0.5670389,1,10,26,1,FALSE,10,1,1,1,TRUE,FALSE,high_1,0.75,-1,3,,,,,,,,,,,165,3,3.2.2021,164.8622493
244,"['high', 6]",6,white,135,right,up,high,white_high_135_up,black_high_45_up,9,right,0.3853463,1,9,26,1,TRUE,7,1,1,1,TRUE,FALSE,high_6,0.75,-1,3,,,,,,,,,,,165,3,3.2.2021,164.8622493
245,"['high', 1]",1,black,135,left,down,high,black_high_135_down,white_high_45_down,9,left,0.101632,1,9,27,1,FALSE,10,1,1,1,TRUE,FALSE,high_1,0.75,-1,3,,,,,,,,,,,165,3,3.2.2021,164.8622493
246,"['high', 2]",2,black,45,right,down,high,black_high_45_down,white_high_135_down,10,left,0.6964799,0,10,14,1,FALSE,3,0,1,1,TRUE,FALSE,high_2,0.75,-1,3,,,,,,,,,,,165,3,3.2.2021,164.8622493
247,"['low', 1]",1,black,45,right,down,low,black_low_45_down,white_low_135_down,15,right,0.6733777,1,15,33,1,FALSE,12,1,1,1,TRUE,FALSE,low_1,0.75,-1,3,,,,,,,,,,,165,3,3.2.2021,164.8622493
248,"['low', 2]",2,white,45,left,up,low,white_low_45_up,black_low_135_up,4,left,0.3240313,1,4,27,1,FALSE,10,1,1,1,TRUE,FALSE,low_2,0.75,-1,3,,,,,,,,,,,165,3,3.2.2021,164.8622493
249,"['high', 4]",4,black,135,left,up,high,black_high_135_up,white_high_45_up,7,right,0.3527404,0,7,29,0,TRUE,11,1,1,1,TRUE,FALSE,high_4,0.75,-1,3,,,,,,,,,,,165,3,3.2.2021,164.8622493
250,"['low', 4]",4,black,135,left,up,low,black_low_135_up,white_low_45_up,1,left,1.6248625,1,1,23,1,FALSE,8,1,1,1,TRUE,FALSE,low_4,0.75,-1,3,,,,,,,,,,,165,3,3.2.2021,164.8622493
251,"['high', 3]",3,white,45,left,down,high,white_high_45_down,black_high_135_down,9,left,0.3602691,1,9,15,0,TRUE,7,1,1,1,TRUE,FALSE,high_3,0.75,-1,3,,,,,,,,,,,165,3,3.2.2021,164.8622493
252,"['high', 3]",3,black,135,left,down,high,black_high_135_down,white_high_45_down,8,left,0.5292839,1,8,16,1,TRUE,8,1,1,1,TRUE,FALSE,high_3,0.75,-1,3,,,,,,,,,,,165,3,3.2.2021,164.8622493
253,"['low', 1]",1,black,135,left,down,low,black_low_135_down,white_low_45_down,14,left,5.1018947,1,14,34,1,FALSE,12,1,1,1,TRUE,FALSE,low_1,0.75,-1,3,,,,,,,,,,,165,3,3.2.2021,164.8622493
254,"['low', 3]",3,black,135,left,down,low,black_low_135_down,white_low_45_down,1,right,2.0036911,0,1,21,1,FALSE,6,1,1,1,TRUE,FALSE,low_3,0.75,-1,3,,,,,,,,,,,165,3,3.2.2021,164.8622493
255,"['low', 4]",4,white,45,left,up,low,white_low_45_up,black_low_135_up,1,left,0.9334173,1,1,24,1,FALSE,8,1,1,1,TRUE,FALSE,low_4,0.75,-1,3,,,,,,,,,,,165,3,3.2.2021,164.8622493
256,"['high', 1]",1,black,45,right,down,high,black_high_45_down,white_high_135_down,8,right,0.493219,1,8,28,1,FALSE,10,1,1,1,TRUE,FALSE,high_1,0.75,-1,3,,,,,,,,,,,165,3,3.2.2021,164.8622493
257,"['low', 4]",4,black,135,left,down,low,black_low_135_down,white_low_45_down,1,left,1.4802436,1,1,25,1,FALSE,8,1,1,1,TRUE,FALSE,low_4,0.75,-1,3,,,,,,,,,,,165,3,3.2.2021,164.8622493
258,"['high', 6]",6,white,135,right,up,high,white_high_135_up,black_high_45_up,8,right,0.2066953,1,8,27,1,FALSE,7,1,1,1,TRUE,FALSE,high_6,0.75,-1,3,,,,,,,,,,,165,3,3.2.2021,164.8622493
259,"['high', 1]",1,black,45,right,up,high,black_high_45_up,white_high_135_up,7,left,1.3965973,0,7,29,1,FALSE,10,1,1,1,TRUE,FALSE,high_1,0.75,-1,3,,,,,,,,,,,165,3,3.2.2021,164.8622493
260,"['low', 4]",4,white,45,left,down,low,white_low_45_down,black_low_135_down,1,left,0.4670864,1,1,26,1,FALSE,8,1,1,1,TRUE,FALSE,low_4,0.75,-1,3,,,,,,,,,,,165,3,3.2.2021,164.8622493
261,"['high', 6]",6,black,135,left,up,high,black_high_135_up,white_high_45_up,7,left,0.1243537,1,7,28,1,FALSE,7,1,1,1,TRUE,FALSE,high_6,0.75,-1,3,,,,,,,,,,,165,3,3.2.2021,164.8622493
262,"['high', 3]",3,white,45,left,down,high,white_high_45_down,black_high_135_down,7,left,0.0998123,1,7,17,1,FALSE,8,1,1,1,TRUE,FALSE,high_3,0.75,-1,3,,,,,,,,,,,165,3,3.2.2021,164.8622493
263,"['high', 4]",4,black,135,left,down,high,black_high_135_down,white_high_45_down,10,left,0.0494639,1,10,30,0,FALSE,11,1,1,1,TRUE,FALSE,high_4,0.75,-1,3,,,,,,,,,,,165,3,3.2.2021,164.8622493
264,"['low', 6]",6,white,45,left,up,low,white_low_45_up,black_low_135_up,1,left,0.0789738,1,1,29,1,FALSE,6,1,1,1,TRUE,FALSE,low_6,0.75,-1,3,,,,,,,,,,,165,3,3.2.2021,164.8622493
265,"['high', 3]",3,white,45,left,down,high,white_high_45_down,black_high_135_down,6,left,0.4115241,1,6,18,1,FALSE,8,1,1,1,TRUE,FALSE,high_3,0.75,-1,3,,,,,,,,,,,165,3,3.2.2021,164.8622493
266,"['high', 1]",1,black,45,right,down,high,black_high_45_down,white_high_135_down,10,left,0.2505509,0,10,30,0,TRUE,11,1,1,1,TRUE,FALSE,high_1,0.75,-1,3,,,,,,,,,,,165,3,3.2.2021,164.8622493
267,"['low', 3]",3,white,135,right,down,low,white_low_135_down,black_low_45_down,4,right,0.1062408,1,4,22,0,TRUE,7,1,1,1,TRUE,FALSE,low_3,0.75,-1,3,,,,,,,,,,,165,3,3.2.2021,164.8622493
268,"['low', 2]",2,black,45,right,down,low,black_low_45_down,white_low_135_down,3,left,0.1168809,0,3,28,1,FALSE,10,1,1,1,TRUE,FALSE,low_2,0.75,-1,3,,,,,,,,,,,165,3,3.2.2021,164.8622493
269,"['high', 2]",2,white,135,right,up,high,white_high_135_up,black_high_45_up,13,right,0.2707523,1,13,15,0,TRUE,4,0,1,1,TRUE,FALSE,high_2,0.75,-1,3,,,,,,,,,,,165,3,3.2.2021,164.8622493
270,"['low', 3]",3,white,45,left,up,low,white_low_45_up,black_low_135_up,3,left,0.2711006,1,3,23,1,TRUE,8,1,1,1,TRUE,FALSE,low_3,0.75,-1,3,,,,,,,,,,,165,3,3.2.2021,164.8622493
271,"['high', 1]",1,black,45,right,down,high,black_high_45_down,white_high_135_down,13,right,0.380023,1,13,31,0,FALSE,11,1,1,1,TRUE,FALSE,high_1,0.75,-1,3,,,,,,,,,,,165,3,3.2.2021,164.8622493
272,"['low', 6]",6,black,45,right,down,low,black_low_45_down,white_low_135_down,1,right,1.7298715,1,1,30,1,FALSE,6,1,1,1,TRUE,FALSE,low_6,0.75,-1,3,,,,,,,,,,,165,3,3.2.2021,164.8622493
273,"['low', 4]",4,white,45,left,up,low,white_low_45_up,black_low_135_up,1,left,0.345737,1,1,27,1,FALSE,8,1,1,1,TRUE,FALSE,low_4,0.75,-1,3,,,,,,,,,,,165,3,3.2.2021,164.8622493
274,"['low', 4]",4,white,45,left,down,low,white_low_45_down,black_low_135_down,1,left,0.1267279,1,1,28,1,FALSE,8,1,1,1,TRUE,FALSE,low_4,0.75,-1,3,,,,,,,,,,,165,3,3.2.2021,164.8622493
275,"['low', 3]",3,black,135,left,up,low,black_low_135_up,white_low_45_up,2,left,0.035922,1,2,24,1,FALSE,8,1,1,1,TRUE,FALSE,low_3,0.75,-1,3,,,,,,,,,,,165,3,3.2.2021,164.8622493
276,"['high', 1]",1,black,135,left,up,high,black_high_135_up,white_high_45_up,12,right,0.1918261,0,12,32,1,TRUE,12,1,1,1,TRUE,FALSE,high_1,0.75,-1,3,,,,,,,,,,,165,3,3.2.2021,164.8622493
277,"['low', 4]",4,black,45,right,up,low,black_low_45_up,white_low_135_up,1,right,2.7996443,1,1,29,1,FALSE,8,1,1,1,TRUE,FALSE,low_4,0.75,-1,3,,,,,,,,,,,165,3,3.2.2021,164.8622493
278,"['high', 3]",3,white,135,right,up,high,white_high_135_up,black_high_45_up,5,left,0.6684526,0,5,19,1,FALSE,8,1,1,1,TRUE,FALSE,high_3,0.75,-1,3,,,,,,,,,,,165,3,3.2.2021,164.8622493
279,"['high', 2]",2,white,135,right,down,high,white_high_135_down,black_high_45_down,12,right,1.1447738,1,12,16,1,TRUE,5,1,1,1,TRUE,FALSE,high_2,0.75,-1,3,,,,,,,,,,,165,3,3.2.2021,164.8622493
280,"['high', 2]",2,white,45,left,down,high,white_high_45_down,black_high_135_down,11,left,1.0849545,1,11,17,1,FALSE,5,1,1,1,TRUE,FALSE,high_2,0.75,-1,3,,,,,,,,,,,165,3,3.2.2021,164.8622493
281,"['high', 6]",6,white,135,right,down,high,white_high_135_down,black_high_45_down,6,right,0.1725305,1,6,29,1,FALSE,7,1,1,1,TRUE,FALSE,high_6,0.75,-1,3,,,,,,,,,,,165,3,3.2.2021,164.8622493
282,"['low', 3]",3,white,135,right,up,low,white_low_135_up,black_low_45_up,1,right,1.7414281,1,1,25,1,FALSE,8,1,1,1,TRUE,FALSE,low_3,0.75,-1,3,,,,,,,,,,,165,3,3.2.2021,164.8622493
283,"['high', 2]",2,white,45,left,up,high,white_high_45_up,black_high_135_up,10,left,0.5630148,1,10,18,1,FALSE,5,1,1,1,TRUE,FALSE,high_2,0.75,-1,3,,,,,,,,,,,165,3,3.2.2021,164.8622493
284,"['low', 1]",1,black,45,right,up,low,black_low_45_up,white_low_135_up,13,right,0.4779045,1,13,35,1,FALSE,12,1,1,1,TRUE,FALSE,low_1,0.75,-1,3,,,,,,,,,,,165,3,3.2.2021,164.8622493
285,"['low', 4]",4,black,45,right,down,low,black_low_45_down,white_low_135_down,1,right,0.5891253,1,1,30,1,FALSE,8,1,1,1,TRUE,FALSE,low_4,0.75,-1,3,,,,,,,,,,,165,3,3.2.2021,164.8622493
286,"['high', 6]",6,black,135,left,up,high,black_high_135_up,white_high_45_up,5,left,0.1450627,1,5,30,1,FALSE,7,1,1,1,TRUE,FALSE,high_6,0.75,-1,3,,,,,,,,,,,165,3,3.2.2021,164.8622493
287,"['high', 3]",3,black,135,left,down,high,black_high_135_down,white_high_45_down,8,left,0.1432969,1,8,20,0,TRUE,9,1,1,1,TRUE,FALSE,high_3,0.75,-1,3,,,,,,,,,,,165,3,3.2.2021,164.8622493
288,"['high', 6]",6,white,135,right,up,high,white_high_135_up,black_high_45_up,4,right,0.4826541,1,4,31,1,FALSE,7,1,1,1,TRUE,FALSE,high_6,0.75,-1,3,,,,,,,,,,,165,3,3.2.2021,164.8622493
289,"['high', 4]",4,white,45,left,up,high,white_high_45_up,black_high_135_up,9,left,0.0908396,1,9,31,1,TRUE,12,1,1,1,TRUE,FALSE,high_4,0.75,-1,3,,,,,,,,,,,165,3,3.2.2021,164.8622493
290,"['high', 6]",6,black,135,left,up,high,black_high_135_up,white_high_45_up,3,left,1.9421754,1,3,32,1,FALSE,7,1,1,1,TRUE,FALSE,high_6,0.75,-1,3,,,,,,,,,,,165,3,3.2.2021,164.8622493
291,"['low', 3]",3,black,45,right,up,low,black_low_45_up,white_low_135_up,1,left,0.2518597,0,1,26,1,FALSE,8,1,1,1,TRUE,FALSE,low_3,0.75,-1,3,,,,,,,,,,,165,3,3.2.2021,164.8622493
292,"['low', 1]",1,white,135,right,up,low,white_low_135_up,black_low_45_up,12,right,0.4422634,1,12,36,1,FALSE,12,1,1,1,TRUE,FALSE,low_1,0.75,-1,3,,,,,,,,,,,165,3,3.2.2021,164.8622493
293,"['low', 1]",1,black,45,right,down,low,black_low_45_down,white_low_135_down,11,right,0.3621181,1,11,37,1,FALSE,12,1,1,1,TRUE,FALSE,low_1,0.75,-1,3,,,,,,,,,,,165,3,3.2.2021,164.8622493
294,"['low', 4]",4,white,135,right,down,low,white_low_135_down,black_low_45_down,1,right,1.7541638,1,1,31,1,FALSE,8,1,1,1,TRUE,FALSE,low_4,0.75,-1,3,,,,,,,,,,,165,3,3.2.2021,164.8622493
295,"['high', 2]",2,white,45,left,up,high,white_high_45_up,black_high_135_up,9,left,0.3761217,1,9,19,1,FALSE,5,1,1,1,TRUE,FALSE,high_2,0.75,-1,3,,,,,,,,,,,165,3,3.2.2021,164.8622493
296,"['low', 1]",1,white,45,left,down,low,white_low_45_down,black_low_135_down,10,left,1.004557,1,10,38,1,FALSE,12,1,1,1,TRUE,FALSE,low_1,0.75,-1,3,,,,,,,,,,,165,3,3.2.2021,164.8622493
297,"['low', 3]",3,white,135,right,up,low,white_low_135_up,black_low_45_up,4,right,0.1763719,1,4,27,0,TRUE,9,1,1,1,TRUE,FALSE,low_3,0.75,-1,3,,,,,,,,,,,165,3,3.2.2021,164.8622493
298,"['low', 3]",3,black,135,left,up,low,black_low_135_up,white_low_45_up,3,left,0.022178,1,3,28,1,TRUE,10,1,1,1,TRUE,FALSE,low_3,0.75,-1,3,,,,,,,,,,,165,3,3.2.2021,164.8622493
299,"['low', 3]",3,black,45,right,up,low,black_low_45_up,white_low_135_up,2,right,0.4872385,1,2,29,1,FALSE,10,1,1,1,TRUE,FALSE,low_3,0.75,-1,3,,,,,,,,,,,165,3,3.2.2021,164.8622493
300,"['low', 4]",4,black,45,right,up,low,black_low_45_up,white_low_135_up,1,right,0.1375107,1,1,32,1,FALSE,8,1,1,1,TRUE,FALSE,low_4,0.75,-1,3,,,,,,,,,,,165,3,3.2.2021,164.8622493
301,"['low', 3]",3,black,135,left,down,low,black_low_135_down,white_low_45_down,1,left,0.1443922,1,1,30,1,FALSE,10,1,1,1,TRUE,FALSE,low_3,0.75,-1,3,,,,,,,,,,,165,3,3.2.2021,164.8622493
302,"['high', 3]",3,black,135,left,down,high,black_high_135_down,white_high_45_down,7,left,0.1121831,1,7,21,1,TRUE,10,1,1,1,TRUE,FALSE,high_3,0.75,-1,3,,,,,,,,,,,165,3,3.2.2021,164.8622493
303,"['low', 4]",4,black,135,left,down,low,black_low_135_down,white_low_45_down,1,right,0.373567,0,1,33,1,FALSE,8,1,1,1,TRUE,FALSE,low_4,0.75,-1,3,,,,,,,,,,,165,3,3.2.2021,164.8622493
304,"['low', 6]",6,white,45,left,down,low,white_low_45_down,black_low_135_down,1,left,0.2521873,1,1,31,1,FALSE,6,1,1,1,TRUE,FALSE,low_6,0.75,-1,3,,,,,,,,,,,165,3,3.2.2021,164.8622493
305,"['high', 6]",6,black,135,left,down,high,black_high_135_down,white_high_45_down,2,left,0.996586,1,2,33,1,FALSE,7,1,1,1,TRUE,FALSE,high_6,0.75,-1,3,,,,,,,,,,,165,3,3.2.2021,164.8622493
306,"['high', 3]",3,black,45,right,down,high,black_high_45_down,white_high_135_down,6,left,0.249025,0,6,22,1,FALSE,10,1,1,1,TRUE,FALSE,high_3,0.75,-1,3,,,,,,,,,,,165,3,3.2.2021,164.8622493
307,"['high', 4]",4,white,45,left,down,high,white_high_45_down,black_high_135_down,8,left,0.5861057,1,8,32,1,FALSE,12,1,1,1,TRUE,FALSE,high_4,0.75,-1,3,,,,,,,,,,,165,3,3.2.2021,164.8622493
308,"['low', 4]",4,black,135,left,up,low,black_low_135_up,white_low_45_up,4,left,0.058415,1,4,34,0,TRUE,9,1,1,1,TRUE,FALSE,low_4,0.75,-1,3,,,,,,,,,,,165,3,3.2.2021,164.8622493
309,"['low', 1]",1,black,135,left,down,low,black_low_135_down,white_low_45_down,9,right,0.5835377,0,9,39,1,FALSE,12,1,1,1,TRUE,FALSE,low_1,0.75,-1,3,,,,,,,,,,,165,3,3.2.2021,164.8622493
310,"['low', 4]",4,black,45,right,down,low,black_low_45_down,white_low_135_down,3,right,0.3095758,1,3,35,1,TRUE,10,1,1,1,TRUE,FALSE,low_4,0.75,-1,3,,,,,,,,,,,165,3,3.2.2021,164.8622493
311,"['high', 2]",2,white,45,left,up,high,white_high_45_up,black_high_135_up,8,left,2.189209,1,8,20,1,FALSE,5,1,1,1,TRUE,FALSE,high_2,0.75,-1,3,,,,,,,,,,,165,3,3.2.2021,164.8622493
312,"['high', 3]",3,black,135,left,down,high,black_high_135_down,white_high_45_down,9,left,0.1063439,1,9,23,0,TRUE,11,1,1,1,TRUE,FALSE,high_3,0.75,-1,3,,,,,,,,,,,165,3,3.2.2021,164.8622493
313,"['low', 2]",2,white,135,right,down,low,white_low_135_down,black_low_45_down,6,right,0.9952721,1,6,29,0,TRUE,11,1,1,1,TRUE,FALSE,low_2,0.75,-1,3,,,,,,,,,,,165,3,3.2.2021,164.8622493
314,"['high', 2]",2,black,135,left,down,high,black_high_135_down,white_high_45_down,7,left,0.0387968,1,7,21,1,FALSE,5,1,1,1,TRUE,FALSE,high_2,0.75,-1,3,,,,,,,,,,,165,3,3.2.2021,164.8622493
315,"['low', 1]",1,black,135,left,down,low,black_low_135_down,white_low_45_down,12,left,4.1047853,1,12,40,0,TRUE,13,1,1,1,TRUE,FALSE,low_1,0.75,-1,3,,,,,,,,,,,165,3,3.2.2021,164.8622493
316,"['low', 2]",2,black,135,left,up,low,black_low_135_up,white_low_45_up,5,left,0.1823671,1,5,30,1,TRUE,12,1,1,1,TRUE,FALSE,low_2,0.75,-1,3,,,,,,,,,,,165,3,3.2.2021,164.8622493
317,"['high', 2]",2,black,45,right,up,high,black_high_45_up,white_high_135_up,6,left,1.8362656,0,6,22,1,FALSE,5,1,1,1,TRUE,FALSE,high_2,0.75,-1,3,,,,,,,,,,,165,3,3.2.2021,164.8622493
318,"['low', 6]",6,white,135,right,up,low,white_low_135_up,black_low_45_up,1,right,0.2147656,1,1,32,1,FALSE,6,1,1,1,TRUE,FALSE,low_6,0.75,-1,3,,,,,,,,,,,165,3,3.2.2021,164.8622493
319,"['low', 3]",3,black,45,right,up,low,black_low_45_up,white_low_135_up,1,left,0.3099631,0,1,31,1,FALSE,10,1,1,1,TRUE,FALSE,low_3,0.75,-1,3,,,,,,,,,,,165,3,3.2.2021,164.8622493
320,"['low', 1]",1,black,45,right,down,low,black_low_45_down,white_low_135_down,11,right,0.6006154,1,11,41,1,TRUE,14,1,1,1,TRUE,FALSE,low_1,0.75,-1,3,,,,,,,,,,,165,3,3.2.2021,164.8622493
321,"['high', 6]",6,white,135,right,down,high,white_high_135_down,black_high_45_down,1,right,2.7319404,1,1,34,1,FALSE,7,1,1,1,TRUE,FALSE,high_6,0.75,-1,3,,,,,,,,,,,165,3,3.2.2021,164.8622493
322,"['low', 4]",4,black,45,right,down,low,black_low_45_down,white_low_135_down,2,right,0.3423324,1,2,36,1,FALSE,10,1,1,1,TRUE,FALSE,low_4,0.75,-1,3,,,,,,,,,,,165,3,3.2.2021,164.8622493
323,"['high', 6]",6,white,45,left,up,high,white_high_45_up,black_high_135_up,1,left,0.4573161,1,1,35,1,FALSE,7,1,1,1,TRUE,FALSE,high_6,0.75,-1,3,,,,,,,,,,,165,3,3.2.2021,164.8622493
324,"['high', 1]",1,black,45,right,up,high,black_high_45_up,white_high_135_up,15,right,3.0485807,1,15,33,0,TRUE,13,1,1,1,TRUE,FALSE,high_1,0.75,-1,3,,,,,,,,,,,165,3,3.2.2021,164.8622493
325,"['high', 2]",2,black,45,right,down,high,black_high_45_down,white_high_135_down,9,right,1.1698028,1,9,23,0,TRUE,6,1,1,1,TRUE,FALSE,high_2,0.75,-1,3,,,,,,,,,,,165,3,3.2.2021,164.8622493
326,"['high', 2]",2,white,45,left,up,high,white_high_45_up,black_high_135_up,8,left,0.0637634,1,8,24,1,TRUE,7,1,1,1,TRUE,FALSE,high_2,0.75,-1,3,,,,,,,,,,,165,3,3.2.2021,164.8622493
327,"['high', 3]",3,black,45,right,up,high,black_high_45_up,white_high_135_up,8,right,0.1904668,1,8,24,1,TRUE,12,1,1,1,TRUE,FALSE,high_3,0.75,-1,3,,,,,,,,,,,165,3,3.2.2021,164.8622493
328,"['high', 1]",1,black,45,right,down,high,black_high_45_down,white_high_135_down,14,left,0.2235073,0,14,34,1,TRUE,14,1,1,1,TRUE,FALSE,high_1,0.75,-1,3,,,,,,,,,,,165,3,3.2.2021,164.8622493
329,"['high', 1]",1,white,45,left,down,high,white_high_45_down,black_high_135_down,17,right,0.3424461,0,17,35,0,TRUE,15,1,1,1,TRUE,FALSE,high_1,0.75,-1,3,,,,,,,,,,,165,3,3.2.2021,164.8622493
330,"['high', 6]",6,black,135,left,up,high,black_high_135_up,white_high_45_up,1,left,1.4624169,1,1,36,1,FALSE,7,1,1,1,TRUE,FALSE,high_6,0.75,-1,3,,,,,,,,,,,165,3,3.2.2021,164.8622493
331,"['low', 4]",4,white,135,right,up,low,white_low_135_up,black_low_45_up,1,right,0.4329408,1,1,37,1,FALSE,10,1,1,1,TRUE,FALSE,low_4,0.75,-1,3,,,,,,,,,,,165,3,3.2.2021,164.8622493
332,"['high', 3]",3,white,45,left,up,high,white_high_45_up,black_high_135_up,7,right,0.5047253,0,7,25,1,FALSE,12,1,1,1,TRUE,FALSE,high_3,0.75,-1,3,,,,,,,,,,,165,3,3.2.2021,164.8622493
333,"['high', 6]",6,white,135,right,down,high,white_high_135_down,black_high_45_down,1,left,2.8288061,0,1,37,1,FALSE,7,1,1,1,TRUE,FALSE,high_6,0.75,-1,3,,,,,,,,,,,165,3,3.2.2021,164.8622493
334,"['high', 6]",6,black,45,right,up,high,black_high_45_up,white_high_135_up,4,left,0.4567027,0,4,38,0,TRUE,8,1,1,1,TRUE,FALSE,high_6,0.75,-1,3,,,,,,,,,,,165,3,3.2.2021,164.8622493
335,"['high', 6]",6,black,45,right,up,high,black_high_45_up,white_high_135_up,7,right,0.1669005,1,7,39,0,FALSE,8,1,1,1,TRUE,FALSE,high_6,0.75,-1,3,,,,,,,,,,,165,3,3.2.2021,164.8622493
336,"['low', 3]",3,black,135,left,up,low,black_low_135_up,white_low_45_up,4,left,0.0466846,1,4,32,0,TRUE,11,1,1,1,TRUE,FALSE,low_3,0.75,-1,3,,,,,,,,,,,165,3,3.2.2021,164.8622493
337,"['high', 1]",1,white,135,right,down,high,white_high_135_down,black_high_45_down,20,right,0.2917957,1,20,36,0,FALSE,15,1,1,1,TRUE,FALSE,high_1,0.75,-1,3,,,,,,,,,,,165,3,3.2.2021,164.8622493
338,"['low', 1]",1,black,135,left,up,low,black_low_135_up,white_low_45_up,10,left,1.2995838,1,10,42,1,FALSE,14,1,1,1,TRUE,FALSE,low_1,0.75,-1,3,,,,,,,,,,,165,3,3.2.2021,164.8622493
339,"['high', 2]",2,white,45,left,up,high,white_high_45_up,black_high_135_up,7,right,0.5040636,0,7,25,1,FALSE,7,1,1,1,TRUE,FALSE,high_2,0.75,-1,3,,,,,,,,,,,165,3,3.2.2021,164.8622493
340,"['high', 6]",6,black,135,left,down,high,black_high_135_down,white_high_45_down,6,left,0.0652236,1,6,40,1,TRUE,9,1,1,1,TRUE,FALSE,high_6,0.75,-1,3,,,,,,,,,,,165,3,3.2.2021,164.8622493
341,"['high', 3]",3,black,45,right,up,high,black_high_45_up,white_high_135_up,10,left,0.1482632,0,10,26,0,TRUE,13,1,1,1,TRUE,FALSE,high_3,0.75,-1,3,,,,,,,,,,,165,3,3.2.2021,164.8622493
342,"['low', 4]",4,white,135,right,down,low,white_low_135_down,black_low_45_down,1,right,0.2723711,1,1,38,1,FALSE,10,1,1,1,TRUE,FALSE,low_4,0.75,-1,3,,,,,,,,,,,165,3,3.2.2021,164.8622493
343,"['high', 6]",6,black,45,right,up,high,black_high_45_up,white_high_135_up,5,left,0.0961496,0,5,41,1,FALSE,9,1,1,1,TRUE,FALSE,high_6,0.75,-1,3,,,,,,,,,,,165,3,3.2.2021,164.8622493
344,"['high', 1]",1,white,45,left,down,high,white_high_45_down,black_high_135_down,19,left,0.2332132,1,19,37,1,TRUE,16,1,1,1,TRUE,FALSE,high_1,0.75,-1,3,,,,,,,,,,,165,3,3.2.2021,164.8622493
345,"['low', 6]",6,black,45,right,down,low,black_low_45_down,white_low_135_down,1,right,0.3854442,1,1,33,1,FALSE,6,1,1,1,TRUE,FALSE,low_6,0.75,-1,3,,,,,,,,,,,165,3,3.2.2021,164.8622493
346,"['high', 2]",2,black,45,right,down,high,black_high_45_down,white_high_135_down,10,left,0.096654,0,10,26,0,TRUE,8,1,1,1,TRUE,FALSE,high_2,0.75,-1,3,,,,,,,,,,,165,3,3.2.2021,164.8622493
347,"['low', 3]",3,black,45,right,down,low,black_low_45_down,white_low_135_down,3,right,0.0175956,1,3,33,1,TRUE,12,1,1,1,TRUE,FALSE,low_3,0.75,-1,3,,,,,,,,,,,165,3,3.2.2021,164.8622493
348,"['low', 2]",2,black,135,left,down,low,black_low_135_down,white_low_45_down,4,left,0.4344898,1,4,31,1,FALSE,12,1,1,1,TRUE,FALSE,low_2,0.75,-1,3,,,,,,,,,,,165,3,3.2.2021,164.8622493
349,"['low', 1]",1,white,135,right,down,low,white_low_135_down,black_low_45_down,9,right,0.22077,1,9,43,1,FALSE,14,1,1,1,TRUE,FALSE,low_1,0.75,-1,3,,,,,,,,,,,165,3,3.2.2021,164.8622493
350,"['high', 1]",1,black,135,left,up,high,black_high_135_up,white_high_45_up,18,left,3.1785019,1,18,38,1,FALSE,16,1,1,1,TRUE,FALSE,high_1,0.75,-1,3,,,,,,,,,,,165,3,3.2.2021,164.8622493
351,"['high', 3]",3,black,135,left,down,high,black_high_135_down,white_high_45_down,13,left,0.7368679,1,13,27,0,FALSE,13,1,1,1,TRUE,FALSE,high_3,0.75,-1,3,,,,,,,,,,,165,3,3.2.2021,164.8622493
352,"['low', 4]",4,black,45,right,down,low,black_low_45_down,white_low_135_down,1,right,2.8647061,1,1,39,1,FALSE,10,1,1,1,TRUE,FALSE,low_4,0.75,-1,3,,,,,,,,,,,165,3,3.2.2021,164.8622493
353,"['high', 4]",4,black,45,right,up,high,black_high_45_up,white_high_135_up,7,left,0.6078258,0,7,33,1,FALSE,12,1,1,1,TRUE,FALSE,high_4,0.75,-1,3,,,,,,,,,,,165,3,3.2.2021,164.8622493
354,"['low', 1]",1,white,45,left,up,low,white_low_45_up,black_low_135_up,8,left,0.253838,1,8,44,1,FALSE,14,1,1,1,TRUE,FALSE,low_1,0.75,-1,3,,,,,,,,,,,165,3,3.2.2021,164.8622493
355,"['low', 2]",2,black,135,left,up,low,black_low_135_up,white_low_45_up,3,left,0.2516369,1,3,32,1,FALSE,12,1,1,1,TRUE,FALSE,low_2,0.75,-1,3,,,,,,,,,,,165,3,3.2.2021,164.8622493
356,"['low', 1]",1,black,135,left,up,low,black_low_135_up,white_low_45_up,7,right,0.1797973,0,7,45,1,FALSE,14,1,1,1,TRUE,FALSE,low_1,0.75,-1,3,,,,,,,,,,,165,3,3.2.2021,164.8622493
357,"['high', 4]",4,white,45,left,up,high,white_high_45_up,black_high_135_up,10,left,0.0212464,1,10,34,0,TRUE,13,1,1,1,TRUE,FALSE,high_4,0.75,-1,3,,,,,,,,,,,165,3,3.2.2021,164.8622493
358,"['low', 2]",2,black,135,left,down,low,black_low_135_down,white_low_45_down,2,right,0.2933754,0,2,33,1,FALSE,12,1,1,1,TRUE,FALSE,low_2,0.75,-1,3,,,,,,,,,,,165,3,3.2.2021,164.8622493
359,"['high', 3]",3,white,45,left,down,high,white_high_45_down,black_high_135_down,12,left,0.3934517,1,12,28,1,TRUE,14,1,1,1,TRUE,FALSE,high_3,0.75,-1,3,,,,,,,,,,,165,3,3.2.2021,164.8622493
360,"['high', 4]",4,white,45,left,down,high,white_high_45_down,black_high_135_down,9,right,0.0852502,0,9,35,1,TRUE,14,1,1,1,TRUE,FALSE,high_4,0.75,-1,3,,,,,,,,,,,165,3,3.2.2021,164.8622493
361,"['high', 3]",3,black,45,right,up,high,black_high_45_up,white_high_135_up,11,right,0.3578715,1,11,29,1,FALSE,14,1,1,1,TRUE,FALSE,high_3,0.75,-1,3,,,,,,,,,,,165,3,3.2.2021,164.8622493
362,"['high', 6]",6,black,45,right,up,high,black_high_45_up,white_high_135_up,8,right,0.1508745,1,8,42,0,TRUE,10,1,1,1,TRUE,FALSE,high_6,0.75,-1,3,,,,,,,,,,,165,3,3.2.2021,164.8622493
363,"['low', 6]",6,black,135,left,up,low,black_low_135_up,white_low_45_up,1,left,0.0685438,1,1,34,1,FALSE,6,1,1,1,TRUE,FALSE,low_6,0.75,-1,3,,,,,,,,,,,165,3,3.2.2021,164.8622493
364,"['low', 1]",1,white,45,left,down,low,white_low_45_down,black_low_135_down,10,left,0.071444,1,10,46,0,TRUE,15,1,1,1,TRUE,FALSE,low_1,0.75,-1,3,,,,,,,,,,,165,3,3.2.2021,164.8622493
365,"['high', 3]",3,black,45,right,down,high,black_high_45_down,white_high_135_down,10,right,0.2657496,1,10,30,1,FALSE,14,1,1,1,TRUE,FALSE,high_3,0.75,-1,3,,,,,,,,,,,165,3,3.2.2021,164.8622493
366,"['high', 6]",6,black,135,left,down,high,black_high_135_down,white_high_45_down,7,left,0.0144139,1,7,43,1,TRUE,11,1,1,1,TRUE,FALSE,high_6,0.75,-1,3,,,,,,,,,,,165,3,3.2.2021,164.8622493
367,"['low', 1]",1,black,135,left,down,low,black_low_135_down,white_low_45_down,9,left,0.0884981,1,9,47,1,TRUE,16,1,1,1,TRUE,FALSE,low_1,0.75,-1,3,,,,,,,,,,,165,3,3.2.2021,164.8622493
368,"['high', 6]",6,white,135,right,up,high,white_high_135_up,black_high_45_up,6,left,2.5200006,0,6,44,1,FALSE,11,1,1,1,TRUE,FALSE,high_6,0.75,-1,3,,,,,,,,,,,165,3,3.2.2021,164.8622493
369,"['low', 3]",3,white,45,left,down,low,white_low_45_down,black_low_135_down,2,left,0.1270699,1,2,34,1,FALSE,12,1,1,1,TRUE,FALSE,low_3,0.75,-1,3,,,,,,,,,,,165,3,3.2.2021,164.8622493
370,"['low', 2]",2,black,45,right,up,low,black_low_45_up,white_low_135_up,5,right,0.097625,1,5,34,0,TRUE,13,1,1,1,TRUE,FALSE,low_2,0.75,-1,3,,,,,,,,,,,165,3,3.2.2021,164.8622493
371,"['low', 1]",1,black,45,right,down,low,black_low_45_down,white_low_135_down,8,left,0.0621978,0,8,48,1,FALSE,16,1,1,1,TRUE,FALSE,low_1,0.75,-1,3,,,,,,,,,,,165,3,3.2.2021,164.8622493
372,"['high', 2]",2,white,45,left,up,high,white_high_45_up,black_high_135_up,13,left,0.3850559,1,13,27,0,FALSE,8,1,1,1,TRUE,FALSE,high_2,0.75,-1,3,,,,,,,,,,,165,3,3.2.2021,164.8622493
373,"['high', 3]",3,black,45,right,up,high,black_high_45_up,white_high_135_up,9,right,1.1942947,1,9,31,1,FALSE,14,1,1,1,TRUE,FALSE,high_3,0.75,-1,3,,,,,,,,,,,165,3,3.2.2021,164.8622493
374,"['high', 2]",2,black,45,right,down,high,black_high_45_down,white_high_135_down,12,right,0.528409,1,12,28,1,TRUE,9,1,1,1,TRUE,FALSE,high_2,0.75,-1,3,,,,,,,,,,,165,3,3.2.2021,164.8622493
375,"['low', 3]",3,black,45,right,down,low,black_low_45_down,white_low_135_down,1,left,0.1215793,0,1,35,1,FALSE,12,1,1,1,TRUE,FALSE,low_3,0.75,-1,3,,,,,,,,,,,165,3,3.2.2021,164.8622493
376,"['high', 6]",6,black,45,right,up,high,black_high_45_up,white_high_135_up,9,right,0.0895268,1,9,45,0,TRUE,12,1,1,1,TRUE,FALSE,high_6,0.75,-1,3,,,,,,,,,,,165,3,3.2.2021,164.8622493
377,"['high', 3]",3,white,45,left,down,high,white_high_45_down,black_high_135_down,8,left,0.2011209,1,8,32,1,FALSE,14,1,1,1,TRUE,FALSE,high_3,0.75,-1,3,,,,,,,,,,,165,3,3.2.2021,164.8622493
378,"['high', 3]",3,white,135,right,up,high,white_high_135_up,black_high_45_up,7,right,0.2943564,1,7,33,1,FALSE,14,1,1,1,TRUE,FALSE,high_3,0.75,-1,3,,,,,,,,,,,165,3,3.2.2021,164.8622493
379,"['low', 2]",2,white,135,right,up,low,white_low_135_up,black_low_45_up,4,right,0.0893081,1,4,35,1,TRUE,14,1,1,1,TRUE,FALSE,low_2,0.75,-1,3,,,,,,,,,,,165,3,3.2.2021,164.8622493
380,"['high', 3]",3,black,135,left,down,high,black_high_135_down,white_high_45_down,6,left,0.2213017,1,6,34,1,FALSE,14,1,1,1,TRUE,FALSE,high_3,0.75,-1,3,,,,,,,,,,,165,3,3.2.2021,164.8622493
381,"['low', 4]",4,black,45,right,up,low,black_low_45_up,white_low_135_up,1,right,0.0123282,1,1,40,1,FALSE,10,1,1,1,TRUE,FALSE,low_4,0.75,-1,3,,,,,,,,,,,165,3,3.2.2021,164.8622493
382,"['low', 3]",3,white,135,right,down,low,white_low_135_down,black_low_45_down,4,left,0.0470705,0,4,36,0,TRUE,13,1,1,1,TRUE,FALSE,low_3,0.75,-1,3,,,,,,,,,,,165,3,3.2.2021,164.8622493
383,"['low', 1]",1,white,135,right,up,low,white_low_135_up,black_low_45_up,11,right,0.3858425,1,11,49,0,TRUE,17,1,1,1,TRUE,FALSE,low_1,0.75,-1,3,,,,,,,,,,,165,3,3.2.2021,164.8622493
384,"['low', 2]",2,white,45,left,down,low,white_low_45_down,black_low_135_down,3,left,2.4349963,1,3,36,1,FALSE,14,1,1,1,TRUE,FALSE,low_2,0.75,-1,3,,,,,,,,,,,165,3,3.2.2021,164.8622493
385,"['low', 3]",3,black,45,right,up,low,black_low_45_up,white_low_135_up,7,right,0.0706481,1,7,37,0,FALSE,13,1,1,1,TRUE,FALSE,low_3,0.75,-1,3,,,,,,,,,,,165,3,3.2.2021,164.8622493
386,"['low', 1]",1,black,135,left,down,low,black_low_135_down,white_low_45_down,10,right,0.4099629,0,10,50,1,TRUE,18,1,1,1,TRUE,FALSE,low_1,0.75,-1,3,,,,,,,,,,,165,3,3.2.2021,164.8622493
387,"['low', 1]",1,black,45,right,down,low,black_low_45_down,white_low_135_down,13,right,0.2763908,1,13,51,0,TRUE,19,1,1,1,TRUE,FALSE,low_1,0.75,-1,3,,,,,,,,,,,165,3,3.2.2021,164.8622493
388,"['high', 4]",4,black,45,right,down,high,black_high_45_down,white_high_135_down,12,right,0.508457,1,12,36,0,TRUE,15,1,1,1,TRUE,FALSE,high_4,0.75,-1,3,,,,,,,,,,,165,3,3.2.2021,164.8622493
389,"['low', 4]",4,black,135,left,up,low,black_low_135_up,white_low_45_up,1,right,0.1767511,0,1,41,1,FALSE,10,1,1,1,TRUE,FALSE,low_4,0.75,-1,3,,,,,,,,,,,165,3,3.2.2021,164.8622493
390,"['low', 6]",6,black,45,right,down,low,black_low_45_down,white_low_135_down,1,right,0.2407904,1,1,35,1,FALSE,6,1,1,1,TRUE,FALSE,low_6,0.75,-1,3,,,,,,,,,,,165,3,3.2.2021,164.8622493
391,"['low', 4]",4,black,135,left,down,low,black_low_135_down,white_low_45_down,4,left,0.1799317,1,4,42,0,TRUE,11,1,1,1,TRUE,FALSE,low_4,0.75,-1,3,,,,,,,,,,,165,3,3.2.2021,164.8622493
392,"['high', 6]",6,black,135,left,down,high,black_high_135_down,white_high_45_down,8,right,0.3008023,0,8,46,1,TRUE,13,1,1,1,TRUE,FALSE,high_6,0.75,-1,3,,,,,,,,,,,165,3,3.2.2021,164.8622493
393,"['low', 3]",3,black,135,left,up,low,black_low_135_up,white_low_45_up,6,left,0.0820581,1,6,38,1,TRUE,14,1,1,1,TRUE,FALSE,low_3,0.75,-1,3,,,,,,,,,,,165,3,3.2.2021,164.8622493
394,"['low', 3]",3,black,45,right,down,low,black_low_45_down,white_low_135_down,5,left,0.3146816,0,5,39,1,FALSE,14,1,1,1,TRUE,FALSE,low_3,0.75,-1,3,,,,,,,,,,,165,3,3.2.2021,164.8622493
395,"['low', 6]",6,white,135,right,down,low,white_low_135_down,black_low_45_down,1,right,1.4346629,1,1,36,1,FALSE,6,1,1,1,TRUE,FALSE,low_6,0.75,-1,3,,,,,,,,,,,165,3,3.2.2021,164.8622493
396,"['high', 6]",6,black,135,left,up,high,black_high_135_up,white_high_45_up,11,left,0.2043232,1,11,47,0,TRUE,14,1,1,1,TRUE,FALSE,high_6,0.75,-1,3,,,,,,,,,,,165,3,3.2.2021,164.8622493
397,"['low', 2]",2,black,135,left,down,low,black_low_135_down,white_low_45_down,2,left,1.3882038,1,2,37,1,FALSE,14,1,1,1,TRUE,FALSE,low_2,0.75,-1,3,,,,,,,,,,,165,3,3.2.2021,164.8622493
398,"['high', 2]",2,white,135,right,down,high,white_high_135_down,black_high_45_down,11,right,0.1046751,1,11,29,1,FALSE,9,1,1,1,TRUE,FALSE,high_2,0.75,-1,3,,,,,,,,,,,165,3,3.2.2021,164.8622493
399,"['high', 2]",2,black,135,left,down,high,black_high_135_down,white_high_45_down,10,right,2.2657054,0,10,30,1,FALSE,9,1,1,1,TRUE,FALSE,high_2,0.75,-1,3,,,,,,,,,,,165,3,3.2.2021,164.8622493
400,"['low', 6]",6,black,45,right,down,low,black_low_45_down,white_low_135_down,1,right,0.338874,1,1,37,1,FALSE,6,1,1,1,TRUE,FALSE,low_6,0.75,-1,3,,,,,,,,,,,165,3,3.2.2021,164.8622493
401,"['low', 1]",1,black,45,right,down,low,black_low_45_down,white_low_135_down,12,left,2.203924,0,12,52,1,TRUE,20,1,1,1,TRUE,FALSE,low_1,0.75,-1,3,,,,,,,,,,,165,3,3.2.2021,164.8622493
402,"['high', 1]",1,white,135,right,up,high,white_high_135_up,black_high_45_up,17,left,0.1446537,0,17,39,1,FALSE,16,1,1,1,TRUE,FALSE,high_1,0.75,-1,3,,,,,,,,,,,165,3,3.2.2021,164.8622493
403,"['low', 3]",3,black,135,left,up,low,black_low_135_up,white_low_45_up,8,left,0.4856939,1,8,40,0,TRUE,15,1,1,1,TRUE,FALSE,low_3,0.75,-1,3,,,,,,,,,,,165,3,3.2.2021,164.8622493
404,"['high', 4]",4,white,45,left,down,high,white_high_45_down,black_high_135_down,11,left,0.3854977,1,11,37,1,TRUE,16,1,1,1,TRUE,FALSE,high_4,0.75,-1,3,,,,,,,,,,,165,3,3.2.2021,164.8622493
405,"['low', 6]",6,white,135,right,up,low,white_low_135_up,black_low_45_up,1,right,0.1017323,1,1,38,1,FALSE,6,1,1,1,TRUE,FALSE,low_6,0.75,-1,3,,,,,,,,,,,165,3,3.2.2021,164.8622493
406,"['low', 3]",3,white,45,left,down,low,white_low_45_down,black_low_135_down,7,left,0.0767229,1,7,41,1,TRUE,16,1,1,1,TRUE,FALSE,low_3,0.75,-1,3,,,,,,,,,,,165,3,3.2.2021,164.8622493
407,"['high', 1]",1,black,45,right,down,high,black_high_45_down,white_high_135_down,20,left,0.2205839,0,20,40,0,TRUE,17,1,1,1,TRUE,FALSE,high_1,0.75,-1,3,,,,,,,,,,,165,3,3.2.2021,164.8622493
408,"['low', 2]",2,white,135,right,down,low,white_low_135_down,black_low_45_down,1,right,0.5210771,1,1,38,1,FALSE,14,1,1,1,TRUE,FALSE,low_2,0.75,-1,3,,,,,,,,,,,165,3,3.2.2021,164.8622493
409,"['high', 1]",1,white,45,left,up,high,white_high_45_up,black_high_135_up,23,left,0.2259526,1,23,41,0,FALSE,17,1,1,1,TRUE,FALSE,high_1,0.75,-1,3,,,,,,,,,,,165,3,3.2.2021,164.8622493
410,"['low', 2]",2,white,135,right,up,low,white_low_135_up,black_low_45_up,1,right,0.2779093,1,1,39,1,FALSE,14,1,1,1,TRUE,FALSE,low_2,0.75,-1,3,,,,,,,,,,,165,3,3.2.2021,164.8622493
411,"['low', 3]",3,black,45,right,up,low,black_low_45_up,white_low_135_up,6,right,0.0771636,1,6,42,1,FALSE,16,1,1,1,TRUE,FALSE,low_3,0.75,-1,3,,,,,,,,,,,165,3,3.2.2021,164.8622493
412,"['low', 2]",2,black,45,right,down,low,black_low_45_down,white_low_135_down,1,left,0.2186094,0,1,40,1,FALSE,14,1,1,1,TRUE,FALSE,low_2,0.75,-1,3,,,,,,,,,,,165,3,3.2.2021,164.8622493
413,"['low', 2]",2,white,135,right,down,low,white_low_135_down,black_low_45_down,4,left,1.4016665,0,4,41,0,TRUE,15,1,1,1,TRUE,FALSE,low_2,0.75,-1,3,,,,,,,,,,,165,3,3.2.2021,164.8622493
414,"['low', 3]",3,black,135,left,up,low,black_low_135_up,white_low_45_up,5,left,1.0416508,1,5,43,1,FALSE,16,1,1,1,TRUE,FALSE,low_3,0.75,-1,3,,,,,,,,,,,165,3,3.2.2021,164.8622493
415,"['low', 4]",4,white,45,left,down,low,white_low_45_down,black_low_135_down,3,left,0.1120672,1,3,43,1,TRUE,12,1,1,1,TRUE,FALSE,low_4,0.75,-1,3,,,,,,,,,,,165,3,3.2.2021,164.8622493
416,"['low', 1]",1,black,135,left,down,low,black_low_135_down,white_low_45_down,15,right,0.0386164,0,15,53,0,TRUE,21,1,1,1,TRUE,FALSE,low_1,0.75,-1,3,,,,,,,,,,,165,3,3.2.2021,164.8622493
417,"['low', 2]",2,black,135,left,down,low,black_low_135_down,white_low_45_down,7,left,0.1127138,1,7,42,0,FALSE,15,1,1,1,TRUE,FALSE,low_2,0.75,-1,3,,,,,,,,,,,165,3,3.2.2021,164.8622493
418,"['high', 4]",4,white,45,left,down,high,white_high_45_down,black_high_135_down,10,left,0.1410104,1,10,38,1,FALSE,16,1,1,1,TRUE,FALSE,high_4,0.75,-1,3,,,,,,,,,,,165,3,3.2.2021,164.8622493
419,"['low', 3]",3,white,45,left,up,low,white_low_45_up,black_low_135_up,4,left,2.788481,1,4,44,1,FALSE,16,1,1,1,TRUE,FALSE,low_3,0.75,-1,3,,,,,,,,,,,165,3,3.2.2021,164.8622493
420,"['low', 3]",3,black,135,left,up,low,black_low_135_up,white_low_45_up,3,left,0.0861414,1,3,45,1,FALSE,16,1,1,1,TRUE,FALSE,low_3,0.75,-1,3,,,,,,,,,,,165,3,3.2.2021,164.8622493
421,"['low', 6]",6,white,45,left,up,low,white_low_45_up,black_low_135_up,1,left,0.0972196,1,1,39,1,FALSE,6,1,1,1,TRUE,FALSE,low_6,0.75,-1,3,,,,,,,,,,,165,3,3.2.2021,164.8622493
422,"['high', 6]",6,black,135,left,down,high,black_high_135_down,white_high_45_down,10,left,0.1130805,1,10,48,1,TRUE,15,1,1,1,TRUE,FALSE,high_6,0.75,-1,3,,,,,,,,,,,165,3,3.2.2021,164.8622493
423,"['low', 6]",6,white,135,right,up,low,white_low_135_up,black_low_45_up,1,right,0.1798619,1,1,40,1,FALSE,6,1,1,1,TRUE,FALSE,low_6,0.75,-1,3,,,,,,,,,,,165,3,3.2.2021,164.8622493
424,"['low', 6]",6,black,45,right,up,low,black_low_45_up,white_low_135_up,1,right,0.0824553,1,1,41,1,FALSE,6,1,1,1,TRUE,FALSE,low_6,0.75,-1,3,,,,,,,,,,,165,3,3.2.2021,164.8622493
425,"['high', 1]",1,white,45,left,down,high,white_high_45_down,black_high_135_down,22,left,2.0455648,1,22,42,1,TRUE,18,1,1,1,TRUE,FALSE,high_1,0.75,-1,3,,,,,,,,,,,165,3,3.2.2021,164.8622493
426,"['high', 4]",4,white,135,right,up,high,white_high_135_up,black_high_45_up,9,left,0.3020217,0,9,39,1,FALSE,16,1,1,1,TRUE,FALSE,high_4,0.75,-1,3,,,,,,,,,,,165,3,3.2.2021,164.8622493
427,"['low', 4]",4,black,135,left,up,low,black_low_135_up,white_low_45_up,2,left,0.0814127,1,2,44,1,FALSE,12,1,1,1,TRUE,FALSE,low_4,0.75,-1,3,,,,,,,,,,,165,3,3.2.2021,164.8622493
428,"['high', 2]",2,white,45,left,up,high,white_high_45_up,black_high_135_up,13,left,0.1039321,1,13,31,0,TRUE,10,1,1,1,TRUE,FALSE,high_2,0.75,-1,3,,,,,,,,,,,165,3,3.2.2021,164.8622493
429,"['low', 2]",2,black,45,right,up,low,black_low_45_up,white_low_135_up,6,right,0.0322315,1,6,43,1,TRUE,16,1,1,1,TRUE,FALSE,low_2,0.75,-1,3,,,,,,,,,,,165,3,3.2.2021,164.8622493
430,"['low', 2]",2,white,45,left,up,low,white_low_45_up,black_low_135_up,5,left,0.0441725,1,5,44,1,FALSE,16,1,1,1,TRUE,FALSE,low_2,0.75,-1,3,,,,,,,,,,,165,3,3.2.2021,164.8622493
431,"['high', 2]",2,black,45,right,down,high,black_high_45_down,white_high_135_down,12,left,0.1205822,0,12,32,1,TRUE,11,1,1,1,TRUE,FALSE,high_2,0.75,-1,3,,,,,,,,,,,165,3,3.2.2021,164.8622493
432,"['low', 6]",6,white,135,right,up,low,white_low_135_up,black_low_45_up,1,right,0.0805757,1,1,42,1,FALSE,6,1,1,1,TRUE,FALSE,low_6,0.75,-1,3,,,,,,,,,,,165,3,3.2.2021,164.8622493
433,"['low', 2]",2,black,135,left,down,low,black_low_135_down,white_low_45_down,4,left,0.284693,1,4,45,1,FALSE,16,1,1,1,TRUE,FALSE,low_2,0.75,-1,3,,,,,,,,,,,165,3,3.2.2021,164.8622493
434,"['low', 6]",6,black,45,right,up,low,black_low_45_up,white_low_135_up,1,right,0.0694865,1,1,43,1,FALSE,6,1,1,1,TRUE,FALSE,low_6,0.75,-1,3,,,,,,,,,,,165,3,3.2.2021,164.8622493
435,"['low', 2]",2,black,135,left,up,low,black_low_135_up,white_low_45_up,3,left,0.238277,1,3,46,1,FALSE,16,1,1,1,TRUE,FALSE,low_2,0.75,-1,3,,,,,,,,,,,165,3,3.2.2021,164.8622493
436,"['high', 4]",4,white,45,left,up,high,white_high_45_up,black_high_135_up,12,left,0.1331806,1,12,40,0,TRUE,17,1,1,1,TRUE,FALSE,high_4,0.75,-1,3,,,,,,,,,,,165,3,3.2.2021,164.8622493
437,"['high', 1]",1,white,45,left,down,high,white_high_45_down,black_high_135_down,21,right,0.3740584,0,21,43,1,FALSE,18,1,1,1,TRUE,FALSE,high_1,0.75,-1,3,,,,,,,,,,,165,3,3.2.2021,164.8622493
438,"['low', 3]",3,white,45,left,up,low,white_low_45_up,black_low_135_up,2,left,0.1416849,1,2,46,1,FALSE,16,1,1,1,TRUE,FALSE,low_3,0.75,-1,3,,,,,,,,,,,165,3,3.2.2021,164.8622493
439,"['high', 3]",3,black,135,left,down,high,black_high_135_down,white_high_45_down,5,right,0.3293412,0,5,35,1,FALSE,14,1,1,1,TRUE,FALSE,high_3,0.75,-1,3,,,,,,,,,,,165,3,3.2.2021,164.8622493
440,"['low', 1]",1,white,45,left,up,low,white_low_45_up,black_low_135_up,18,left,0.0252935,1,18,54,0,FALSE,21,1,1,1,TRUE,FALSE,low_1,0.75,-1,3,,,,,,,,,,,165,3,3.2.2021,164.8622493
441,"['low', 3]",3,black,45,right,up,low,black_low_45_up,white_low_135_up,1,right,1.575521,1,1,47,1,FALSE,16,1,1,1,TRUE,FALSE,low_3,0.75,-1,3,,,,,,,,,,,165,3,3.2.2021,164.8622493
442,"['low', 1]",1,black,135,left,up,low,black_low_135_up,white_low_45_up,17,left,0.2438633,1,17,55,1,TRUE,22,1,1,1,TRUE,FALSE,low_1,0.75,-1,3,,,,,,,,,,,165,3,3.2.2021,164.8622493
443,"['high', 4]",4,black,45,right,down,high,black_high_45_down,white_high_135_down,11,left,0.6647447,0,11,41,1,TRUE,18,1,1,1,TRUE,FALSE,high_4,0.75,-1,3,,,,,,,,,,,165,3,3.2.2021,164.8622493
444,"['low', 4]",4,black,45,right,up,low,black_low_45_up,white_low_135_up,1,right,2.1901889,1,1,45,1,FALSE,12,1,1,1,TRUE,FALSE,low_4,0.75,-1,3,,,,,,,,,,,165,3,3.2.2021,164.8622493
445,"['high', 1]",1,white,135,right,up,high,white_high_135_up,black_high_45_up,24,right,0.2339209,1,24,44,0,TRUE,19,1,1,1,TRUE,FALSE,high_1,0.75,-1,3,,,,,,,,,,,165,3,3.2.2021,164.8622493
446,"['low', 6]",6,black,45,right,up,low,black_low_45_up,white_low_135_up,1,right,0.087497,1,1,44,1,FALSE,6,1,1,1,TRUE,FALSE,low_6,0.75,-1,3,,,,,,,,,,,165,3,3.2.2021,164.8622493
447,"['low', 4]",4,white,135,right,up,low,white_low_135_up,black_low_45_up,1,right,0.1828822,1,1,46,1,FALSE,12,1,1,1,TRUE,FALSE,low_4,0.75,-1,3,,,,,,,,,,,165,3,3.2.2021,164.8622493
448,"['high', 2]",2,black,45,right,down,high,black_high_45_down,white_high_135_down,15,right,0.3878235,1,15,33,0,TRUE,12,1,1,1,TRUE,FALSE,high_2,0.75,-1,3,,,,,,,,,,,165,3,3.2.2021,164.8622493
449,"['high', 1]",1,black,135,left,up,high,black_high_135_up,white_high_45_up,23,left,0.3523127,1,23,45,1,TRUE,20,1,1,1,TRUE,FALSE,high_1,0.75,-1,3,,,,,,,,,,,165,3,3.2.2021,164.8622493
450,"['high', 6]",6,black,135,left,up,high,black_high_135_up,white_high_45_up,9,left,0.2054533,1,9,49,1,FALSE,15,1,1,1,TRUE,FALSE,high_6,0.75,-1,3,,,,,,,,,,,165,3,3.2.2021,164.8622493
451,"['low', 6]",6,white,45,left,down,low,white_low_45_down,black_low_135_down,1,left,0.1061984,1,1,45,1,FALSE,6,1,1,1,TRUE,FALSE,low_6,0.75,-1,3,,,,,,,,,,,165,3,3.2.2021,164.8622493
452,"['high', 2]",2,white,45,left,up,high,white_high_45_up,black_high_135_up,14,left,1.039368,1,14,34,1,TRUE,13,1,1,1,TRUE,FALSE,high_2,0.75,-1,3,,,,,,,,,,,165,3,3.2.2021,164.8622493
453,"['low', 2]",2,white,135,right,up,low,white_low_135_up,black_low_45_up,2,left,0.3283306,0,2,47,1,FALSE,16,1,1,1,TRUE,FALSE,low_2,0.75,-1,3,,,,,,,,,,,165,3,3.2.2021,164.8622493
454,"['high', 3]",3,black,45,right,down,high,black_high_45_down,white_high_135_down,8,left,0.4888855,0,8,36,0,TRUE,15,1,1,1,TRUE,FALSE,high_3,0.75,-1,3,,,,,,,,,,,165,3,3.2.2021,164.8622493
455,"['high', 2]",2,black,135,left,up,high,black_high_135_up,white_high_45_up,13,left,0.08214,1,13,35,1,FALSE,13,1,1,1,TRUE,FALSE,high_2,0.75,-1,3,,,,,,,,,,,165,3,3.2.2021,164.8622493
456,"['high', 3]",3,black,135,left,up,high,black_high_135_up,white_high_45_up,11,left,0.5846493,1,11,37,0,FALSE,15,1,1,1,TRUE,FALSE,high_3,0.75,-1,3,,,,,,,,,,,165,3,3.2.2021,164.8622493
457,"['high', 3]",3,white,135,right,down,high,white_high_135_down,black_high_45_down,10,left,0.1727716,0,10,38,1,TRUE,16,1,1,1,TRUE,FALSE,high_3,0.75,-1,3,,,,,,,,,,,165,3,3.2.2021,164.8622493
458,"['low', 4]",4,white,45,left,down,low,white_low_45_down,black_low_135_down,1,left,0.2542178,1,1,47,1,FALSE,12,1,1,1,TRUE,FALSE,low_4,0.75,-1,3,,,,,,,,,,,165,3,3.2.2021,164.8622493
459,"['low', 4]",4,black,135,left,up,low,black_low_135_up,white_low_45_up,1,left,0.1499337,1,1,48,1,FALSE,12,1,1,1,TRUE,FALSE,low_4,0.75,-1,3,,,,,,,,,,,165,3,3.2.2021,164.8622493
460,"['high', 4]",4,white,45,left,up,high,white_high_45_up,black_high_135_up,14,left,0.0152684,1,14,42,0,TRUE,19,1,1,1,TRUE,FALSE,high_4,0.75,-1,3,,,,,,,,,,,165,3,3.2.2021,164.8622493
461,"['low', 2]",2,white,45,left,down,low,white_low_45_down,black_low_135_down,5,left,0.1452209,1,5,48,0,TRUE,17,1,1,1,TRUE,FALSE,low_2,0.75,-1,3,,,,,,,,,,,165,3,3.2.2021,164.8622493
462,"['low', 6]",6,black,45,right,down,low,black_low_45_down,white_low_135_down,1,right,0.0738074,1,1,46,1,FALSE,6,1,1,1,TRUE,FALSE,low_6,0.75,-1,3,,,,,,,,,,,165,3,3.2.2021,164.8622493
463,"['low', 2]",2,black,45,right,up,low,black_low_45_up,white_low_135_up,4,left,0.2669079,0,4,49,1,TRUE,18,1,1,1,TRUE,FALSE,low_2,0.75,-1,3,,,,,,,,,,,165,3,3.2.2021,164.8622493
464,"['low', 2]",2,black,45,right,up,low,black_low_45_up,white_low_135_up,7,left,0.8283761,0,7,50,0,TRUE,19,1,1,1,TRUE,FALSE,low_2,0.75,-1,3,,,,,,,,,,,165,3,3.2.2021,164.8622493
465,"['low', 2]",2,black,45,right,down,low,black_low_45_down,white_low_135_down,10,right,0.5872147,1,10,51,0,FALSE,19,1,1,1,TRUE,FALSE,low_2,0.75,-1,3,,,,,,,,,,,165,3,3.2.2021,164.8622493
466,"['high', 4]",4,black,45,right,up,high,black_high_45_up,white_high_135_up,13,left,0.2260207,0,13,43,1,TRUE,20,1,1,1,TRUE,FALSE,high_4,0.75,-1,3,,,,,,,,,,,165,3,3.2.2021,164.8622493
467,"['low', 4]",4,white,135,right,up,low,white_low_135_up,black_low_45_up,1,right,0.1724257,1,1,49,1,FALSE,12,1,1,1,TRUE,FALSE,low_4,0.75,-1,3,,,,,,,,,,,165,3,3.2.2021,164.8622493
468,"['low', 4]",4,white,45,left,up,low,white_low_45_up,black_low_135_up,1,left,0.9989697,1,1,50,1,FALSE,12,1,1,1,TRUE,FALSE,low_4,0.75,-1,3,,,,,,,,,,,165,3,3.2.2021,164.8622493
469,"['low', 6]",6,white,45,left,up,low,white_low_45_up,black_low_135_up,1,left,0.6505529,1,1,47,1,FALSE,6,1,1,1,TRUE,FALSE,low_6,0.75,-1,3,,,,,,,,,,,165,3,3.2.2021,164.8622493
470,"['high', 4]",4,white,45,left,up,high,white_high_45_up,black_high_135_up,16,left,0.1131786,1,16,44,0,TRUE,21,1,1,1,TRUE,FALSE,high_4,0.75,-1,3,,,,,,,,,,,165,3,3.2.2021,164.8622493
471,"['low', 4]",4,black,135,left,down,low,black_low_135_down,white_low_45_down,1,right,0.689234,0,1,51,1,FALSE,12,1,1,1,TRUE,FALSE,low_4,0.75,-1,3,,,,,,,,,,,165,3,3.2.2021,164.8622493
472,"['high', 4]",4,black,135,left,up,high,black_high_135_up,white_high_45_up,15,left,0.0181698,1,15,45,1,TRUE,22,1,1,1,TRUE,FALSE,high_4,0.75,-1,3,,,,,,,,,,,165,3,3.2.2021,164.8622493
473,"['high', 4]",4,white,45,left,down,high,white_high_45_down,black_high_135_down,14,left,0.4486934,1,14,46,1,FALSE,22,1,1,1,TRUE,FALSE,high_4,0.75,-1,3,,,,,,,,,,,165,3,3.2.2021,164.8622493
474,"['high', 2]",2,black,135,left,down,high,black_high_135_down,white_high_45_down,12,left,3.298798,1,12,36,1,FALSE,13,1,1,1,TRUE,FALSE,high_2,0.75,-1,3,,,,,,,,,,,165,3,3.2.2021,164.8622493
475,"['high', 1]",1,white,135,right,up,high,white_high_135_up,black_high_45_up,22,right,0.1302267,1,22,46,1,FALSE,20,1,1,1,TRUE,FALSE,high_1,0.75,-1,3,,,,,,,,,,,165,3,3.2.2021,164.8622493
476,"['low', 4]",4,black,135,left,down,low,black_low_135_down,white_low_45_down,4,left,0.2046818,1,4,52,0,TRUE,13,1,1,1,TRUE,FALSE,low_4,0.75,-1,3,,,,,,,,,,,165,3,3.2.2021,164.8622493
477,"['high', 1]",1,white,135,right,up,high,white_high_135_up,black_high_45_up,21,right,0.5605783,1,21,47,1,FALSE,20,1,1,1,TRUE,FALSE,high_1,0.75,-1,3,,,,,,,,,,,165,3,3.2.2021,164.8622493
478,"['low', 3]",3,white,135,right,down,low,white_low_135_down,black_low_45_down,1,left,0.3213156,0,1,48,1,FALSE,16,1,1,1,TRUE,FALSE,low_3,0.75,-1,3,,,,,,,,,,,165,3,3.2.2021,164.8622493
479,"['high', 3]",3,white,135,right,up,high,white_high_135_up,black_high_45_up,13,right,0.128092,1,13,39,0,TRUE,17,1,1,1,TRUE,FALSE,high_3,0.75,-1,3,,,,,,,,,,,165,3,3.2.2021,164.8622493
480,"['low', 1]",1,white,45,left,down,low,white_low_45_down,black_low_135_down,16,left,0.2012671,1,16,56,1,FALSE,22,1,1,1,TRUE,FALSE,low_1,0.75,-1,3,,,,,,,,,,,165,3,3.2.2021,164.8622493
481,"['low', 1]",1,white,45,left,up,low,white_low_45_up,black_low_135_up,15,left,0.2649892,1,15,57,1,FALSE,22,1,1,1,TRUE,FALSE,low_1,0.75,-1,3,,,,,,,,,,,165,3,3.2.2021,164.8622493
482,"['low', 3]",3,black,135,left,down,low,black_low_135_down,white_low_45_down,4,left,0.245371,1,4,49,0,TRUE,17,1,1,1,TRUE,FALSE,low_3,0.75,-1,3,,,,,,,,,,,165,3,3.2.2021,164.8622493
483,"['high', 1]",1,black,135,left,down,high,black_high_135_down,white_high_45_down,20,left,0.1622218,1,20,48,1,FALSE,20,1,1,1,TRUE,FALSE,high_1,0.75,-1,3,,,,,,,,,,,165,3,3.2.2021,164.8622493
484,"['low', 4]",4,white,45,left,up,low,white_low_45_up,black_low_135_up,3,left,0.1553225,1,3,53,1,TRUE,14,1,1,1,TRUE,FALSE,low_4,0.75,-1,3,,,,,,,,,,,165,3,3.2.2021,164.8622493
485,"['low', 4]",4,black,135,left,up,low,black_low_135_up,white_low_45_up,2,left,0.2232391,1,2,54,1,FALSE,14,1,1,1,TRUE,FALSE,low_4,0.75,-1,3,,,,,,,,,,,165,3,3.2.2021,164.8622493
486,"['low', 6]",6,black,45,right,down,low,black_low_45_down,white_low_135_down,1,left,1.9481894,0,1,48,1,FALSE,6,1,1,1,TRUE,FALSE,low_6,0.75,-1,3,,,,,,,,,,,165,3,3.2.2021,164.8622493
487,"['low', 3]",3,black,135,left,down,low,black_low_135_down,white_low_45_down,3,left,0.0950088,1,3,50,1,TRUE,18,1,1,1,TRUE,FALSE,low_3,0.75,-1,3,,,,,,,,,,,165,3,3.2.2021,164.8622493
488,"['high', 3]",3,black,45,right,down,high,black_high_45_down,white_high_135_down,12,left,0.0860637,0,12,40,1,TRUE,18,1,1,1,TRUE,FALSE,high_3,0.75,-1,3,,,,,,,,,,,165,3,3.2.2021,164.8622493
489,"['low', 2]",2,white,45,left,up,low,white_low_45_up,black_low_135_up,9,left,0.1369361,1,9,52,1,TRUE,20,1,1,1,TRUE,FALSE,low_2,0.75,-1,3,,,,,,,,,,,165,3,3.2.2021,164.8622493
490,"['low', 4]",4,black,135,left,up,low,black_low_135_up,white_low_45_up,1,right,1.6450068,0,1,55,1,FALSE,14,1,1,1,TRUE,FALSE,low_4,0.75,-1,3,,,,,,,,,,,165,3,3.2.2021,164.8622493
491,"['high', 1]",1,black,135,left,up,high,black_high_135_up,white_high_45_up,19,left,0.1716644,1,19,49,1,FALSE,20,1,1,1,TRUE,FALSE,high_1,0.75,-1,3,,,,,,,,,,,165,3,3.2.2021,164.8622493
492,"['high', 1]",1,white,135,right,down,high,white_high_135_down,black_high_45_down,18,left,0.1800752,0,18,50,1,FALSE,20,1,1,1,TRUE,FALSE,high_1,0.75,-1,3,,,,,,,,,,,165,3,3.2.2021,164.8622493
493,"['low', 3]",3,white,45,left,up,low,white_low_45_up,black_low_135_up,2,left,0.1015118,1,2,51,1,FALSE,18,1,1,1,TRUE,FALSE,low_3,0.75,-1,3,,,,,,,,,,,165,3,3.2.2021,164.8622493
494,"['high', 3]",3,white,45,left,down,high,white_high_45_down,black_high_135_down,15,left,0.8680899,1,15,41,0,TRUE,19,1,1,1,TRUE,FALSE,high_3,0.75,-1,3,,,,,,,,,,,165,3,3.2.2021,164.8622493
495,"['high', 4]",4,black,45,right,down,high,black_high_45_down,white_high_135_down,13,right,0.2830122,1,13,47,1,FALSE,22,1,1,1,TRUE,FALSE,high_4,0.75,-1,3,,,,,,,,,,,165,3,3.2.2021,164.8622493
496,"['low', 6]",6,black,45,right,up,low,black_low_45_up,white_low_135_up,4,right,0.0777147,1,4,49,0,TRUE,7,1,1,1,TRUE,FALSE,low_6,0.75,-1,3,,,,,,,,,,,165,3,3.2.2021,164.8622493
497,"['high', 2]",2,white,135,right,up,high,white_high_135_up,black_high_45_up,11,left,3.9465963,0,11,37,1,FALSE,13,1,1,1,TRUE,FALSE,high_2,0.75,-1,3,,,,,,,,,,,165,3,3.2.2021,164.8622493
498,"['low', 1]",1,black,45,right,down,low,black_low_45_down,white_low_135_down,14,right,0.1704227,1,14,58,1,FALSE,22,1,1,1,TRUE,FALSE,low_1,0.75,-1,3,,,,,,,,,,,165,3,3.2.2021,164.8622493
499,"['high', 3]",3,white,135,right,up,high,white_high_135_up,black_high_45_up,14,right,0.114174,1,14,42,1,TRUE,20,1,1,1,TRUE,FALSE,high_3,0.75,-1,3,,,,,,,,,,,165,3,3.2.2021,164.8622493
500,"['high', 4]",4,white,135,right,down,high,white_high_135_down,black_high_45_down,12,right,0.0260378,1,12,48,1,FALSE,22,1,1,1,TRUE,FALSE,high_4,0.75,-1,3,,,,,,,,,,,165,3,3.2.2021,164.8622493
501,"['high', 2]",2,black,135,left,up,high,black_high_135_up,white_high_45_up,14,left,0.1427814,1,14,38,0,TRUE,14,1,1,1,TRUE,FALSE,high_2,0.75,-1,3,,,,,,,,,,,165,3,3.2.2021,164.8622493
502,"['high', 2]",2,white,135,right,up,high,white_high_135_up,black_high_45_up,13,right,0.1901125,1,13,39,1,TRUE,15,1,1,1,TRUE,FALSE,high_2,0.75,-1,3,,,,,,,,,,,165,3,3.2.2021,164.8622493
503,"['low', 1]",1,white,45,left,down,low,white_low_45_down,black_low_135_down,13,left,0.2025547,1,13,59,1,FALSE,22,1,1,1,TRUE,FALSE,low_1,0.75,-1,3,,,,,,,,,,,165,3,3.2.2021,164.8622493
504,"['low', 1]",1,black,135,left,down,low,black_low_135_down,white_low_45_down,12,left,0.0888643,1,12,60,1,FALSE,22,1,1,1,TRUE,FALSE,low_1,0.75,-1,3,,,,,,,,,,,165,3,3.2.2021,164.8622493
505,"['high', 2]",2,white,45,left,down,high,white_high_45_down,black_high_135_down,12,left,0.1906068,1,12,40,1,FALSE,15,1,1,1,TRUE,FALSE,high_2,0.75,-1,3,,,,,,,,,,,165,3,3.2.2021,164.8622493
506,"['low', 3]",3,black,135,left,down,low,black_low_135_down,white_low_45_down,1,right,0.2849827,0,1,52,1,FALSE,18,1,1,1,TRUE,FALSE,low_3,0.75,-1,3,,,,,,,,,,,165,3,3.2.2021,164.8622493
507,"['low', 4]",4,white,45,left,down,low,white_low_45_down,black_low_135_down,4,left,0.2547739,1,4,56,0,TRUE,15,1,1,1,TRUE,FALSE,low_4,0.75,-1,3,,,,,,,,,,,165,3,3.2.2021,164.8622493
508,"['high', 1]",1,white,135,right,up,high,white_high_135_up,black_high_45_up,21,right,0.2859171,1,21,51,0,TRUE,21,1,1,1,TRUE,FALSE,high_1,0.75,-1,3,,,,,,,,,,,165,3,3.2.2021,164.8622493
509,"['high', 4]",4,black,45,right,down,high,black_high_45_down,white_high_135_down,11,left,0.2301933,0,11,49,1,FALSE,22,1,1,1,TRUE,FALSE,high_4,0.75,-1,3,,,,,,,,,,,165,3,3.2.2021,164.8622493
510,"['high', 6]",6,black,135,left,up,high,black_high_135_up,white_high_45_up,8,left,0.4145882,1,8,50,1,FALSE,15,1,1,1,TRUE,FALSE,high_6,0.75,-1,3,,,,,,,,,,,165,3,3.2.2021,164.8622493
511,"['low', 6]",6,black,45,right,up,low,black_low_45_up,white_low_135_up,3,right,0.1109374,1,3,50,1,TRUE,8,1,1,1,TRUE,FALSE,low_6,0.75,-1,3,,,,,,,,,,,165,3,3.2.2021,164.8622493
512,"['high', 6]",6,white,135,right,up,high,white_high_135_up,black_high_45_up,7,right,0.1531006,1,7,51,1,FALSE,15,1,1,1,TRUE,FALSE,high_6,0.75,-1,3,,,,,,,,,,,165,3,3.2.2021,164.8622493
513,"['low', 1]",1,white,135,right,down,low,white_low_135_down,black_low_45_down,11,right,0.099664,1,11,61,1,FALSE,22,1,1,1,TRUE,FALSE,low_1,0.75,-1,3,,,,,,,,,,,165,3,3.2.2021,164.8622493
514,"['high', 2]",2,white,45,left,up,high,white_high_45_up,black_high_135_up,11,left,0.9859006,1,11,41,1,FALSE,15,1,1,1,TRUE,FALSE,high_2,0.75,-1,3,,,,,,,,,,,165,3,3.2.2021,164.8622493
515,"['high', 6]",6,white,45,left,down,high,white_high_45_down,black_high_135_down,6,left,0.1687492,1,6,52,1,FALSE,15,1,1,1,TRUE,FALSE,high_6,0.75,-1,3,,,,,,,,,,,165,3,3.2.2021,164.8622493
516,"['low', 2]",2,black,45,right,up,low,black_low_45_up,white_low_135_up,8,right,0.1539824,1,8,53,1,FALSE,20,1,1,1,TRUE,FALSE,low_2,0.75,-1,3,,,,,,,,,,,165,3,3.2.2021,164.8622493
517,"['low', 3]",3,black,45,right,down,low,black_low_45_down,white_low_135_down,4,left,0.2547941,0,4,53,0,TRUE,19,1,1,1,TRUE,FALSE,low_3,0.75,-1,3,,,,,,,,,,,165,3,3.2.2021,164.8622493
518,"['low', 2]",2,white,45,left,down,low,white_low_45_down,black_low_135_down,7,left,0.092127,1,7,54,1,FALSE,20,1,1,1,TRUE,FALSE,low_2,0.75,-1,3,,,,,,,,,,,165,3,3.2.2021,164.8622493
519,"['high', 2]",2,white,45,left,down,high,white_high_45_down,black_high_135_down,10,left,0.1118289,1,10,42,1,FALSE,15,1,1,1,TRUE,FALSE,high_2,0.75,-1,3,,,,,,,,,,,165,3,3.2.2021,164.8622493
520,"['high', 3]",3,black,135,left,down,high,black_high_135_down,white_high_45_down,13,left,0.0662829,1,13,43,1,FALSE,20,1,1,1,TRUE,FALSE,high_3,0.75,-1,3,,,,,,,,,,,165,3,3.2.2021,164.8622493
521,"['low', 4]",4,black,135,left,up,low,black_low_135_up,white_low_45_up,3,left,0.1378223,1,3,57,1,TRUE,16,1,1,1,TRUE,FALSE,low_4,0.75,-1,3,,,,,,,,,,,165,3,3.2.2021,164.8622493
522,"['low', 4]",4,black,135,left,up,low,black_low_135_up,white_low_45_up,2,left,0.2045065,1,2,58,1,FALSE,16,1,1,1,TRUE,FALSE,low_4,0.75,-1,3,,,,,,,,,,,165,3,3.2.2021,164.8622493
523,"['high', 1]",1,black,135,left,up,high,black_high_135_up,white_high_45_up,20,left,3.4150714,1,20,52,1,TRUE,22,1,1,1,TRUE,FALSE,high_1,0.75,-1,3,,,,,,,,,,,165,3,3.2.2021,164.8622493
524,"['low', 6]",6,black,45,right,down,low,black_low_45_down,white_low_135_down,2,right,0.1977174,1,2,51,1,FALSE,8,1,1,1,TRUE,FALSE,low_6,0.75,-1,3,,,,,,,,,,,165,3,3.2.2021,164.8622493
525,"['low', 3]",3,white,45,left,up,low,white_low_45_up,black_low_135_up,7,left,0.0842804,1,7,54,0,FALSE,19,1,1,1,TRUE,FALSE,low_3,0.75,-1,3,,,,,,,,,,,165,3,3.2.2021,164.8622493
526,"['low', 3]",3,white,45,left,up,low,white_low_45_up,black_low_135_up,6,left,0.049394,1,6,55,1,TRUE,20,1,1,1,TRUE,FALSE,low_3,0.75,-1,3,,,,,,,,,,,165,3,3.2.2021,164.8622493
527,"['high', 6]",6,white,135,right,up,high,white_high_135_up,black_high_45_up,5,right,0.1377623,1,5,53,1,FALSE,15,1,1,1,TRUE,FALSE,high_6,0.75,-1,3,,,,,,,,,,,165,3,3.2.2021,164.8622493
528,"['high', 1]",1,black,135,left,down,high,black_high_135_down,white_high_45_down,19,right,0.2733504,0,19,53,1,FALSE,22,1,1,1,TRUE,FALSE,high_1,0.75,-1,3,,,,,,,,,,,165,3,3.2.2021,164.8622493
529,"['high', 6]",6,white,135,right,up,high,white_high_135_up,black_high_45_up,4,right,0.1054054,1,4,54,1,FALSE,15,1,1,1,TRUE,FALSE,high_6,0.75,-1,3,,,,,,,,,,,165,3,3.2.2021,164.8622493
530,"['high', 2]",2,black,135,left,up,high,black_high_135_up,white_high_45_up,9,left,0.2485128,1,9,43,1,FALSE,15,1,1,1,TRUE,FALSE,high_2,0.75,-1,3,,,,,,,,,,,165,3,3.2.2021,164.8622493
531,"['low', 2]",2,white,135,right,down,low,white_low_135_down,black_low_45_down,6,right,0.1911581,1,6,55,1,FALSE,20,1,1,1,TRUE,FALSE,low_2,0.75,-1,3,,,,,,,,,,,165,3,3.2.2021,164.8622493
532,"['high', 2]",2,white,45,left,up,high,white_high_45_up,black_high_135_up,8,left,0.1044262,1,8,44,1,FALSE,15,1,1,1,TRUE,FALSE,high_2,0.75,-1,3,,,,,,,,,,,165,3,3.2.2021,164.8622493
533,"['high', 1]",1,white,135,right,up,high,white_high_135_up,black_high_45_up,22,right,0.1721892,1,22,54,0,TRUE,23,1,1,1,TRUE,FALSE,high_1,0.75,-1,3,,,,,,,,,,,165,3,3.2.2021,164.8622493
534,"['high', 6]",6,white,135,right,down,high,white_high_135_down,black_high_45_down,3,left,0.2932417,0,3,55,1,FALSE,15,1,1,1,TRUE,FALSE,high_6,0.75,-1,3,,,,,,,,,,,165,3,3.2.2021,164.8622493
535,"['low', 6]",6,white,45,left,down,low,white_low_45_down,black_low_135_down,1,left,0.3426736,1,1,52,1,FALSE,8,1,1,1,TRUE,FALSE,low_6,0.75,-1,3,,,,,,,,,,,165,3,3.2.2021,164.8622493
536,"['high', 2]",2,black,45,right,up,high,black_high_45_up,white_high_135_up,7,right,0.1934693,1,7,45,1,FALSE,15,1,1,1,TRUE,FALSE,high_2,0.75,-1,3,,,,,,,,,,,165,3,3.2.2021,164.8622493
