trial_number,trial_type,cycle_number,first_color,phase,first_orientation,correct_response,visual_field,spatial_frequency,mask_type,mask_images,first_stim,second_stim,stimulus_frame_duration,fixation_duration,mask_duration,answer,rt,accuracy,staircase_dv,staircase_trial_num,staircase_previous_correct,staircase_phase,staircase_step_size,staircase_powers_law,staircase_siam,staircase_over,staircase_name,staircase_conv_p,staircase_step_hit,staircase_step_miss,staircase_reversal,staircase_reversal_num,threshold_low1_mask_low,threshold_low2_mask_low,threshold_low3_mask_low,threshold_high1_mask_low,threshold_high2_mask_low,threshold_high3_mask_low,threshold_low1_mask_high,threshold_low2_mask_high,threshold_low3_mask_high,threshold_high1_mask_high,threshold_high2_mask_high,threshold_high3_mask_high,threshold_med1_mask_low,threshold_med2_mask_low,threshold_med3_mask_low,threshold_med1_mask_high,threshold_med2_mask_high,threshold_med3_mask_high,frame_rate,participant,psychopyVersion,frame_rate_detected
0,"['high', 3, 'low']",3,black,0.93661619,135,left,down,high,low,black_low_135-black_low_45-white_low_45-white_low_135,black_high_135_down,white_high_45_down,8,1.877381535,0.2485395,right,0.5814802,0,8,0,None,0,1,1,TRUE,FALSE,high_3_mask_low,0.75,-1,3,FALSE,0,,,,,,,,,,,,,,,,,,,165,3,3.2.2021,164.9658686
1,"['low', 1, 'low']",1,black,0.375516597,135,left,down,low,low,white_low_135-black_low_135-black_low_45-white_low_45,black_low_135_down,white_low_45_down,8,1.691722127,0.2485377,right,0.1281125,0,8,0,None,0,1,1,TRUE,FALSE,low_1_mask_low,0.75,-1,3,FALSE,0,,,,,,,,,,,,,,,,,,,165,3,3.2.2021,164.9658686
2,"['high', 3, 'high']",3,black,0.457219186,135,left,down,high,high,black_high_135-black_high_45-white_high_135-white_high_135,black_high_135_down,white_high_45_down,8,1.187882137,0.2485498,right,0.4180889,0,8,0,None,0,1,1,TRUE,FALSE,high_3_mask_high,0.75,-1,3,FALSE,0,,,,,,,,,,,,,,,,,,,165,3,3.2.2021,164.9658686
3,"['high', 3, 'high']",3,black,0.661239162,135,left,down,high,high,white_high_135-black_high_45-white_high_135-black_high_135,black_high_135_down,white_high_45_down,11,1.005713116,0.2485438,left,0.396783,1,11,1,0,0,1,1,TRUE,FALSE,high_3_mask_high,0.75,-1,3,TRUE,1,,,,,,,,,,,,,,,,,,,165,3,3.2.2021,164.9658686
4,"['low', 1, 'low']",1,black,0.221519385,135,left,up,low,low,white_low_45-black_low_45-black_low_135-white_low_135,black_low_135_up,white_low_45_up,11,1.398566385,0.2485457,right,0.1264676,0,11,1,0,0,1,1,TRUE,FALSE,low_1_mask_low,0.75,-1,3,FALSE,0,,,,,,,,,,,,,,,,,,,165,3,3.2.2021,164.9658686
5,"['med', 3, 'low']",3,white,0.482684291,45,left,up,med,low,black_low_45-white_low_45-white_low_135-black_low_135,white_med_45_up,black_med_135_up,8,1.904699034,0.2485405,left,0.0478723,1,8,0,None,0,1,1,TRUE,FALSE,med_3_mask_low,0.75,-1,3,FALSE,0,,,,,,,,,,,,,,,,,,,165,3,3.2.2021,164.9658686
6,"['high', 1, 'low']",1,white,0.083227453,135,right,up,high,low,white_low_45-black_low_45-white_low_135-black_low_135,white_high_135_up,black_high_45_up,12,1.249766363,0.2485462,right,0.0153958,1,12,0,None,0,1,1,TRUE,FALSE,high_1_mask_low,0.75,-1,3,FALSE,0,,,,,,,,,,,,,,,,,,,165,3,3.2.2021,164.9658686
7,"['med', 3, 'high']",3,black,0.519024959,45,right,up,med,high,white_high_135-black_high_135-black_high_45-white_high_135,black_med_45_up,white_med_135_up,8,1.198625005,0.2503056,left,0.1812275,0,8,0,None,0,1,1,TRUE,FALSE,med_3_mask_high,0.75,-1,3,FALSE,0,,,,,,,,,,,,,,,,,,,165,3,3.2.2021,164.9658686
8,"['med', 1, 'high']",1,black,0.505906348,45,right,down,med,high,white_high_135-black_high_135-black_high_45-white_high_135,black_med_45_down,white_med_135_down,12,1.944640535,0.2485449,left,0.3078432,0,12,0,None,0,1,1,TRUE,FALSE,med_1_mask_high,0.75,-1,3,FALSE,0,,,,,,,,,,,,,,,,,,,165,3,3.2.2021,164.9658686
9,"['low', 1, 'low']",1,black,0.765931787,135,left,down,low,low,black_low_135-white_low_135-black_low_45-white_low_45,black_low_135_down,white_low_45_down,14,1.741527098,0.248833,right,0.0285185,0,14,2,0,0,1,1,TRUE,FALSE,low_1_mask_low,0.75,-1,3,FALSE,0,,,,,,,,,,,,,,,,,,,165,3,3.2.2021,164.9658686
10,"['med', 3, 'low']",3,white,0.264509031,135,right,up,med,low,black_low_45-white_low_45-black_low_135-white_low_135,white_med_135_up,black_med_45_up,7,1.93416349,0.2485487,left,1.0635383,0,7,1,1,0,1,1,TRUE,FALSE,med_3_mask_low,0.75,-1,3,TRUE,1,,,,,,,,,,,,,,,,,,,165,3,3.2.2021,164.9658686
11,"['low', 3, 'high']",3,black,0.949077342,135,left,down,low,high,white_high_135-white_high_135-black_high_45-black_high_135,black_low_135_down,white_low_45_down,3,1.586834192,0.2503511,right,0.395113,0,3,0,None,0,1,1,TRUE,FALSE,low_3_mask_high,0.75,-1,3,FALSE,0,,,,,,,,,,,,,,,,,,,165,3,3.2.2021,164.9658686
12,"['low', 3, 'high']",3,white,0.382971856,45,left,up,low,high,black_high_135-black_high_45-white_high_135-white_high_135,white_low_45_up,black_low_135_up,6,1.993267029,0.2485386,left,0.2410987,1,6,1,0,0,1,1,TRUE,FALSE,low_3_mask_high,0.75,-1,3,TRUE,1,,,,,,,,,,,,,,,,,,,165,3,3.2.2021,164.9658686
13,"['med', 1, 'high']",1,white,0.184761509,45,left,down,med,high,black_high_45-black_high_135-white_high_135-white_high_135,white_med_45_down,black_med_135_down,15,1.515124447,0.2449899,left,0.2878852,1,15,1,0,0,1,1,TRUE,FALSE,med_1_mask_high,0.75,-1,3,TRUE,1,,,,,,,,,,,,,,,,,,,165,3,3.2.2021,164.9658686
14,"['med', 2, 'high']",2,black,0.393649671,135,left,up,med,high,white_high_135-black_high_135-white_high_135-black_high_45,black_med_135_up,white_med_45_up,8,1.839240566,0.2485491,left,0.2906455,1,8,0,None,0,1,1,TRUE,FALSE,med_2_mask_high,0.75,-1,3,FALSE,0,,,,,,,,,,,,,,,,,,,165,3,3.2.2021,164.9658686
15,"['med', 3, 'high']",3,white,0.064195706,45,left,up,med,high,white_high_135-black_high_135-white_high_135-black_high_45,white_med_45_up,black_med_135_up,11,1.096949129,0.248843,left,0.3113823,1,11,1,0,0,1,1,TRUE,FALSE,med_3_mask_high,0.75,-1,3,TRUE,1,,,,,,,,,,,,,,,,,,,165,3,3.2.2021,164.9658686
16,"['low', 2, 'high']",2,white,0.547834663,45,left,down,low,high,black_high_135-black_high_45-white_high_135-white_high_135,white_low_45_down,black_low_135_down,3,1.260502494,0.2485358,right,0.5237373,0,3,0,None,0,1,1,TRUE,FALSE,low_2_mask_high,0.75,-1,3,FALSE,0,,,,,,,,,,,,,,,,,,,165,3,3.2.2021,164.9658686
17,"['low', 1, 'high']",1,black,0.23407901,45,right,down,low,high,black_high_45-white_high_135-black_high_135-white_high_135,black_low_45_down,white_low_135_down,8,1.760269974,0.2467181,right,0.4738468,1,8,0,None,0,1,1,TRUE,FALSE,low_1_mask_high,0.75,-1,3,FALSE,0,,,,,,,,,,,,,,,,,,,165,3,3.2.2021,164.9658686
18,"['low', 2, 'high']",2,black,0.91629173,135,left,down,low,high,white_high_135-black_high_45-white_high_135-black_high_135,black_low_135_down,white_low_45_down,6,1.693673344,0.2488451,right,0.3340516,0,6,1,0,0,1,1,TRUE,FALSE,low_2_mask_high,0.75,-1,3,FALSE,0,,,,,,,,,,,,,,,,,,,165,3,3.2.2021,164.9658686
19,"['low', 2, 'high']",2,black,0.460599042,135,left,up,low,high,white_high_135-black_high_45-black_high_135-white_high_135,black_low_135_up,white_low_45_up,9,1.636227929,0.2485427,left,0.3104716,1,9,2,0,0,1,1,TRUE,FALSE,low_2_mask_high,0.75,-1,3,TRUE,1,,,,,,,,,,,,,,,,,,,165,3,3.2.2021,164.9658686
20,"['high', 2, 'low']",2,white,0.399274158,135,right,down,high,low,white_low_45-black_low_135-white_low_135-black_low_45,white_high_135_down,black_high_45_down,8,1.941178609,0.2485406,left,0.1649048,0,8,0,None,0,1,1,TRUE,FALSE,high_2_mask_low,0.75,-1,3,FALSE,0,,,,,,,,,,,,,,,,,,,165,3,3.2.2021,164.9658686
21,"['low', 3, 'low']",3,white,0.212558408,45,left,up,low,low,black_low_135-black_low_45-white_low_45-white_low_135,white_low_45_up,black_low_135_up,3,1.243862641,0.2485397,left,0.1714628,1,3,0,None,0,1,1,TRUE,FALSE,low_3_mask_low,0.75,-1,3,FALSE,0,,,,,,,,,,,,,,,,,,,165,3,3.2.2021,164.9658686
22,"['low', 2, 'high']",2,black,0.969502259,45,right,down,low,high,black_high_135-white_high_135-white_high_135-black_high_45,black_low_45_down,white_low_135_down,8,1.709977581,0.2485527,left,0.1866207,0,8,3,1,0,1,1,TRUE,FALSE,low_2_mask_high,0.75,-1,3,TRUE,2,,,,,,,,,,,,,,,,,,,165,3,3.2.2021,164.9658686
23,"['high', 2, 'low']",2,white,0.508042806,45,left,down,high,low,black_low_135-white_low_45-black_low_45-white_low_135,white_high_45_down,black_high_135_down,11,1.799697597,0.2485407,left,0.2055726,1,11,1,0,0,1,1,TRUE,FALSE,high_2_mask_low,0.75,-1,3,TRUE,1,,,,,,,,,,,,,,,,,,,165,3,3.2.2021,164.9658686
24,"['high', 3, 'high']",3,white,0.125184559,45,left,up,high,high,black_high_45-white_high_135-white_high_135-black_high_135,white_high_45_up,black_high_135_up,10,1.634890919,0.2502925,left,0.053001,1,10,2,1,0,1,1,TRUE,FALSE,high_3_mask_high,0.75,-1,3,FALSE,1,,,,,,,,,,,,,,,,,,,165,3,3.2.2021,164.9658686
25,"['med', 3, 'low']",3,white,0.3573625,45,left,up,med,low,black_low_45-black_low_135-white_low_135-white_low_45,white_med_45_up,black_med_135_up,10,1.125512893,0.2485475,left,0.1157958,1,10,2,0,0,1,1,TRUE,FALSE,med_3_mask_low,0.75,-1,3,TRUE,2,,,,,,,,,,,,,,,,,,,165,3,3.2.2021,164.9658686
26,"['high', 2, 'high']",2,white,0.486553505,45,left,down,high,high,black_high_45-black_high_135-white_high_135-white_high_135,white_high_45_down,black_high_135_down,8,1.935911333,0.2485407,right,0.4355732,0,8,0,None,0,1,1,TRUE,FALSE,high_2_mask_high,0.75,-1,3,FALSE,0,,,,,,,,,,,,,,,,,,,165,3,3.2.2021,164.9658686
27,"['low', 3, 'low']",3,white,0.31435249,45,left,down,low,low,black_low_45-white_low_45-white_low_135-black_low_135,white_low_45_down,black_low_135_down,2,1.816585773,0.2485399,right,0.2586045,0,2,1,1,0,1,1,TRUE,FALSE,low_3_mask_low,0.75,-1,3,TRUE,1,,,,,,,,,,,,,,,,,,,165,3,3.2.2021,164.9658686
28,"['med', 3, 'low']",3,black,0.735226863,45,right,up,med,low,black_low_135-white_low_135-black_low_45-white_low_45,black_med_45_up,white_med_135_up,9,1.008107946,0.2482555,left,0.7523606,0,9,3,1,0,1,1,TRUE,FALSE,med_3_mask_low,0.75,-1,3,TRUE,3,,,,,,,,,,,,,,,,,,,165,3,3.2.2021,164.9658686
29,"['low', 3, 'low']",3,white,0.862716596,45,left,down,low,low,black_low_45-white_low_135-black_low_135-white_low_45,white_low_45_down,black_low_135_down,5,1.749516716,0.2485404,left,0.169992,1,5,2,0,0,1,1,TRUE,FALSE,low_3_mask_low,0.75,-1,3,TRUE,2,,,,,,,,,,,,,,,,,,,165,3,3.2.2021,164.9658686
30,"['high', 1, 'low']",1,white,0.387013975,135,right,down,high,low,black_low_45-white_low_135-black_low_135-white_low_45,white_high_135_down,black_high_45_down,11,1.500621267,0.2503039,right,0.065802,1,11,1,1,0,1,1,TRUE,FALSE,high_1_mask_low,0.75,-1,3,FALSE,0,,,,,,,,,,,,,,,,,,,165,3,3.2.2021,164.9658686
31,"['high', 3, 'high']",3,white,0.384235139,45,left,down,high,high,white_high_135-black_high_45-white_high_135-black_high_135,white_high_45_down,black_high_135_down,9,1.848123921,0.2485411,left,0.6605038,1,9,3,1,0,1,1,TRUE,FALSE,high_3_mask_high,0.75,-1,3,FALSE,1,,,,,,,,,,,,,,,,,,,165,3,3.2.2021,164.9658686
32,"['low', 1, 'high']",1,black,0.50304681,45,right,up,low,high,white_high_135-white_high_135-black_high_45-black_high_135,black_low_45_up,white_low_135_up,7,1.196036065,0.2502856,left,0.2950231,0,7,1,1,0,1,1,TRUE,FALSE,low_1_mask_high,0.75,-1,3,TRUE,1,,,,,,,,,,,,,,,,,,,165,3,3.2.2021,164.9658686
33,"['med', 1, 'high']",1,black,0.635477383,135,left,down,med,high,white_high_135-black_high_135-white_high_135-black_high_45,black_med_135_down,white_med_45_down,14,1.483120564,0.250149,right,0.1412434,0,14,2,1,0,1,1,TRUE,FALSE,med_1_mask_high,0.75,-1,3,TRUE,2,,,,,,,,,,,,,,,,,,,165,3,3.2.2021,164.9658686
34,"['med', 3, 'low']",3,white,0.597462615,135,right,down,med,low,black_low_45-white_low_135-black_low_135-white_low_45,white_med_135_down,black_med_45_down,12,1.056991243,0.2502901,right,0.3722418,1,12,4,0,0,1,1,TRUE,FALSE,med_3_mask_low,0.75,-1,3,TRUE,4,,,,,,,,,,,,,,,,,,,165,3,3.2.2021,164.9658686
35,"['med', 1, 'high']",1,black,0.659417837,45,right,down,med,high,black_high_135-black_high_45-white_high_135-white_high_135,black_med_45_down,white_med_135_down,17,1.79168577,0.2502937,left,0.3156947,0,17,3,0,0,1,1,TRUE,FALSE,med_1_mask_high,0.75,-1,3,FALSE,2,,,,,,,,,,,,,,,,,,,165,3,3.2.2021,164.9658686
36,"['low', 3, 'high']",3,black,0.36358158,45,right,up,low,high,white_high_135-black_high_135-black_high_45-white_high_135,black_low_45_up,white_low_135_up,5,1.984711305,0.2485452,right,0.2332584,1,5,2,1,0,1,1,TRUE,FALSE,low_3_mask_high,0.75,-1,3,FALSE,1,,,,,,,,,,,,,,,,,,,165,3,3.2.2021,164.9658686
37,"['med', 2, 'low']",2,white,0.008915282,45,left,up,med,low,black_low_45-white_low_45-white_low_135-black_low_135,white_med_45_up,black_med_135_up,8,1.833835236,0.2485523,left,0.3668469,1,8,0,None,0,1,1,TRUE,FALSE,med_2_mask_low,0.75,-1,3,FALSE,0,,,,,,,,,,,,,,,,,,,165,3,3.2.2021,164.9658686
38,"['high', 2, 'high']",2,black,0.096130713,45,right,up,high,high,black_high_45-white_high_135-white_high_135-black_high_135,black_high_45_up,white_high_135_up,11,1.411642774,0.2485472,left,0.3827743,0,11,1,0,0,1,1,TRUE,FALSE,high_2_mask_high,0.75,-1,3,FALSE,0,,,,,,,,,,,,,,,,,,,165,3,3.2.2021,164.9658686
39,"['med', 3, 'high']",3,white,0.049000438,135,right,up,med,high,black_high_45-white_high_135-white_high_135-black_high_135,white_med_135_up,black_med_45_up,10,1.077093403,0.2502858,right,0.421731,1,10,2,1,0,1,1,TRUE,FALSE,med_3_mask_high,0.75,-1,3,FALSE,1,,,,,,,,,,,,,,,,,,,165,3,3.2.2021,164.9658686
40,"['low', 2, 'low']",2,black,0.499066544,45,right,up,low,low,white_low_45-black_low_135-white_low_135-black_low_45,black_low_45_up,white_low_135_up,3,1.794547161,0.2485427,right,1.137228,1,3,0,None,0,1,1,TRUE,FALSE,low_2_mask_low,0.75,-1,3,FALSE,0,,,,,,,,,,,,,,,,,,,165,3,3.2.2021,164.9658686
41,"['low', 3, 'low']",3,white,0.822224843,135,right,down,low,low,black_low_135-white_low_45-white_low_135-black_low_45,white_low_135_down,black_low_45_down,4,1.943797734,0.2485374,right,0.4079293,1,4,3,1,0,1,1,TRUE,FALSE,low_3_mask_low,0.75,-1,3,FALSE,2,,,,,,,,,,,,,,,,,,,165,3,3.2.2021,164.9658686
42,"['med', 2, 'low']",2,white,0.096905646,45,left,down,med,low,white_low_45-white_low_135-black_low_45-black_low_135,white_med_45_down,black_med_135_down,7,1.730845019,0.2485401,left,1.0210202,1,7,1,1,0,1,1,TRUE,FALSE,med_2_mask_low,0.75,-1,3,FALSE,0,,,,,,,,,,,,,,,,,,,165,3,3.2.2021,164.9658686
43,"['high', 2, 'low']",2,white,0.727738054,135,right,down,high,low,black_low_45-white_low_45-white_low_135-black_low_135,white_high_135_down,black_high_45_down,10,1.941580445,0.248553,right,0.4328655,1,10,2,1,0,1,1,TRUE,FALSE,high_2_mask_low,0.75,-1,3,FALSE,1,,,,,,,,,,,,,,,,,,,165,3,3.2.2021,164.9658686
44,"['high', 2, 'high']",2,white,0.015497043,45,left,up,high,high,white_high_135-black_high_135-white_high_135-black_high_45,white_high_45_up,black_high_135_up,14,1.859737312,0.2485413,left,1.3981697,1,14,2,0,0,1,1,TRUE,FALSE,high_2_mask_high,0.75,-1,3,TRUE,1,,,,,,,,,,,,,,,,,,,165,3,3.2.2021,164.9658686
45,"['high', 2, 'low']",2,white,0.885217666,135,right,up,high,low,white_low_135-white_low_45-black_low_45-black_low_135,white_high_135_up,black_high_45_up,9,1.217316374,0.2485539,left,0.4951112,0,9,3,1,0,1,1,TRUE,FALSE,high_2_mask_low,0.75,-1,3,TRUE,2,,,,,,,,,,,,,,,,,,,165,3,3.2.2021,164.9658686
46,"['low', 2, 'high']",2,white,0.538433471,45,left,up,low,high,black_high_135-white_high_135-white_high_135-black_high_45,white_low_45_up,black_low_135_up,11,1.40625129,0.2488429,left,0.2208094,1,11,4,0,0,1,1,TRUE,FALSE,low_2_mask_high,0.75,-1,3,TRUE,3,,,,,,,,,,,,,,,,,,,165,3,3.2.2021,164.9658686
47,"['high', 2, 'low']",2,black,0.079678597,135,left,down,high,low,black_low_135-black_low_45-white_low_45-white_low_135,black_high_135_down,white_high_45_down,12,1.106586441,0.2485513,right,0.2808055,0,12,4,0,0,1,1,TRUE,FALSE,high_2_mask_low,0.75,-1,3,FALSE,2,,,,,,,,,,,,,,,,,,,165,3,3.2.2021,164.9658686
48,"['high', 1, 'low']",1,black,0.375127263,45,right,down,high,low,white_low_135-black_low_135-white_low_45-black_low_45,black_high_45_down,white_high_135_down,10,1.91957583,0.2485449,right,0.5261928,1,10,2,1,0,1,1,TRUE,FALSE,high_1_mask_low,0.75,-1,3,FALSE,0,,,,,,,,,,,,,,,,,,,165,3,3.2.2021,164.9658686
49,"['med', 2, 'high']",2,white,0.994483867,135,right,up,med,high,black_high_135-black_high_45-white_high_135-white_high_135,white_med_135_up,black_med_45_up,7,1.756042489,0.2485536,left,0.3948927,0,7,1,1,0,1,1,TRUE,FALSE,med_2_mask_high,0.75,-1,3,TRUE,1,,,,,,,,,,,,,,,,,,,165,3,3.2.2021,164.9658686
50,"['med', 2, 'low']",2,black,0.766879439,135,left,down,med,low,white_low_45-black_low_135-black_low_45-white_low_135,black_med_135_down,white_med_45_down,6,1.906714709,0.2485449,right,0.3662186,0,6,2,1,0,1,1,TRUE,FALSE,med_2_mask_low,0.75,-1,3,TRUE,1,,,,,,,,,,,,,,,,,,,165,3,3.2.2021,164.9658686
51,"['high', 1, 'low']",1,black,0.895962405,135,left,up,high,low,white_low_45-black_low_45-black_low_135-white_low_135,black_high_135_up,white_high_45_up,9,1.338191348,0.2485266,right,0.3904314,0,9,3,1,0,1,1,TRUE,FALSE,high_1_mask_low,0.75,-1,3,TRUE,1,,,,,,,,,,,,,,,,,,,165,3,3.2.2021,164.9658686
52,"['med', 2, 'low']",2,black,0.685490463,45,right,up,med,low,white_low_135-white_low_45-black_low_135-black_low_45,black_med_45_up,white_med_135_up,9,1.09530322,0.2485417,left,0.1002456,0,9,3,0,0,1,1,TRUE,FALSE,med_2_mask_low,0.75,-1,3,FALSE,1,,,,,,,,,,,,,,,,,,,165,3,3.2.2021,164.9658686
53,"['high', 3, 'low']",3,white,0.436164007,45,left,down,high,low,black_low_45-white_low_135-black_low_135-white_low_45,white_high_45_down,black_high_135_down,11,1.184146682,0.2485534,right,0.0898259,0,11,1,0,0,1,1,TRUE,FALSE,high_3_mask_low,0.75,-1,3,FALSE,0,,,,,,,,,,,,,,,,,,,165,3,3.2.2021,164.9658686
54,"['low', 2, 'low']",2,black,0.599106144,135,left,down,low,low,white_low_45-black_low_135-white_low_135-black_low_45,black_low_135_down,white_low_45_down,2,1.650226263,0.2485428,left,0.797732,1,2,1,1,0,1,1,TRUE,FALSE,low_2_mask_low,0.75,-1,3,FALSE,0,,,,,,,,,,,,,,,,,,,165,3,3.2.2021,164.9658686
55,"['med', 2, 'low']",2,black,0.353539823,45,right,down,med,low,white_low_135-black_low_45-white_low_45-black_low_135,black_med_45_down,white_med_135_down,12,1.508707926,0.2467635,right,0.4977477,1,12,4,0,0,1,1,TRUE,FALSE,med_2_mask_low,0.75,-1,3,TRUE,2,,,,,,,,,,,,,,,,,,,165,3,3.2.2021,164.9658686
56,"['med', 1, 'high']",1,black,0.563689525,45,right,down,med,high,white_high_135-white_high_135-black_high_135-black_high_45,black_med_45_down,white_med_135_down,20,1.765909976,0.2485437,left,1.6902512,0,20,4,0,0,1,1,TRUE,FALSE,med_1_mask_high,0.75,-1,3,FALSE,2,,,,,,,,,,,,,,,,,,,165,3,3.2.2021,164.9658686
57,"['high', 2, 'low']",2,white,0.492748488,135,right,up,high,low,white_low_45-white_low_135-black_low_45-black_low_135,white_high_135_up,black_high_45_up,15,1.469597701,0.2485467,right,0.2632852,1,15,5,0,0,1,1,TRUE,FALSE,high_2_mask_low,0.75,-1,3,TRUE,3,,,,,,,,,,,,,,,,,,,165,3,3.2.2021,164.9658686
58,"['low', 2, 'low']",2,white,0.801116343,135,right,up,low,low,black_low_135-white_low_45-white_low_135-black_low_45,white_low_135_up,black_low_45_up,1,1.259542456,0.2488619,left,0.7396225,0,1,2,1,0,1,1,TRUE,FALSE,low_2_mask_low,0.75,-1,3,TRUE,1,,,,,,,,,,,,,,,,,,,165,3,3.2.2021,164.9658686
59,"['med', 2, 'high']",2,white,0.684020331,135,right,down,med,high,black_high_45-white_high_135-black_high_135-white_high_135,white_med_135_down,black_med_45_down,10,1.331444082,0.2467382,right,0.4788309,1,10,2,0,0,1,1,TRUE,FALSE,med_2_mask_high,0.75,-1,3,TRUE,2,,,,,,,,,,,,,,,,,,,165,3,3.2.2021,164.9658686
60,"['low', 3, 'high']",3,black,0.253909517,135,left,down,low,high,white_high_135-black_high_45-white_high_135-black_high_135,black_low_135_down,white_low_45_down,4,1.466296754,0.2485484,right,0.6032863,0,4,3,1,0,1,1,TRUE,FALSE,low_3_mask_high,0.75,-1,3,TRUE,2,,,,,,,,,,,,,,,,,,,165,3,3.2.2021,164.9658686
61,"['med', 3, 'high']",3,white,0.917192582,45,left,down,med,high,black_high_45-white_high_135-white_high_135-black_high_135,white_med_45_down,black_med_135_down,9,1.853045788,0.2485492,left,0.2941632,1,9,3,1,0,1,1,TRUE,FALSE,med_3_mask_high,0.75,-1,3,FALSE,1,,,,,,,,,,,,,,,,,,,165,3,3.2.2021,164.9658686
62,"['high', 2, 'high']",2,white,0.383871735,45,left,up,high,high,white_high_135-black_high_135-white_high_135-black_high_45,white_high_45_up,black_high_135_up,13,1.039761713,0.2485368,left,2.1359687,1,13,3,1,0,1,1,TRUE,FALSE,high_2_mask_high,0.75,-1,3,FALSE,1,,,,,,,,,,,,,,,,,,,165,3,3.2.2021,164.9658686
63,"['med', 3, 'low']",3,black,0.409192509,45,right,up,med,low,black_low_45-white_low_135-white_low_45-black_low_135,black_med_45_up,white_med_135_up,11,1.311230233,0.2503155,left,1.526198,0,11,5,1,0,1,1,TRUE,FALSE,med_3_mask_low,0.75,-1,3,TRUE,5,,,,,,,,,,,,,,,,,,,165,3,3.2.2021,164.9658686
64,"['high', 2, 'high']",2,white,0.059994535,135,right,down,high,high,white_high_135-white_high_135-black_high_135-black_high_45,white_high_135_down,black_high_45_down,12,1.589723974,0.2467588,left,0.4979516,0,12,4,1,0,1,1,TRUE,FALSE,high_2_mask_high,0.75,-1,3,TRUE,2,,,,,,,,,,,,,,,,,,,165,3,3.2.2021,164.9658686
65,"['low', 1, 'high']",1,white,0.602987937,45,left,down,low,high,black_high_45-black_high_135-white_high_135-white_high_135,white_low_45_down,black_low_135_down,10,1.644736175,0.2485418,left,0.0763843,1,10,2,0,0,1,1,TRUE,FALSE,low_1_mask_high,0.75,-1,3,TRUE,2,,,,,,,,,,,,,,,,,,,165,3,3.2.2021,164.9658686
66,"['low', 3, 'low']",3,black,0.168964655,135,left,down,low,low,black_low_45-black_low_135-white_low_45-white_low_135,black_low_135_down,white_low_45_down,3,1.904655996,0.2467069,left,0.9156961,1,3,4,1,0,1,1,TRUE,FALSE,low_3_mask_low,0.75,-1,3,FALSE,2,,,,,,,,,,,,,,,,,,,165,3,3.2.2021,164.9658686
67,"['high', 3, 'low']",3,black,0.07806807,135,left,up,high,low,white_low_45-white_low_135-black_low_135-black_low_45,black_high_135_up,white_high_45_up,14,1.324153876,0.2488356,left,1.0970905,1,14,2,0,0,1,1,TRUE,FALSE,high_3_mask_low,0.75,-1,3,TRUE,1,,,,,,,,,,,,,,,,,,,165,3,3.2.2021,164.9658686
68,"['med', 3, 'high']",3,black,0.31693127,135,left,up,med,high,white_high_135-white_high_135-black_high_45-black_high_135,black_med_135_up,white_med_45_up,8,1.725784226,0.2467569,left,2.4739171,1,8,4,1,0,1,1,TRUE,FALSE,med_3_mask_high,0.75,-1,3,FALSE,1,,,,,,,,,,,,,,,,,,,165,3,3.2.2021,164.9658686
69,"['med', 3, 'low']",3,white,0.015227799,135,right,up,med,low,white_low_135-white_low_45-black_low_135-black_low_45,white_med_135_up,black_med_45_up,14,1.884786952,0.2485526,right,0.2260591,1,14,6,0,1,1,1,TRUE,FALSE,med_3_mask_low,0.75,-1,3,TRUE,6,,,,,,,,,,,,,,,,,,,165,3,3.2.2021,164.9658686
70,"['high', 2, 'low']",2,black,0.041989075,45,right,down,high,low,white_low_135-black_low_135-black_low_45-white_low_45,black_high_45_down,white_high_135_down,14,1.732165369,0.2482438,right,0.6057424,1,14,6,1,0,1,1,TRUE,FALSE,high_2_mask_low,0.75,-1,3,FALSE,3,,,,,,,,,,,,,,,,,,,165,3,3.2.2021,164.9658686
71,"['high', 1, 'low']",1,black,0.045478968,135,left,up,high,low,white_low_135-black_low_135-black_low_45-white_low_45,black_high_135_up,white_high_45_up,12,1.572544829,0.2485418,right,0.5593133,0,12,4,0,0,1,1,TRUE,FALSE,high_1_mask_low,0.75,-1,3,FALSE,1,,,,,,,,,,,,,,,,,,,165,3,3.2.2021,164.9658686
72,"['low', 2, 'low']",2,black,0.175898268,135,left,down,low,low,black_low_45-white_low_45-black_low_135-white_low_135,black_low_135_down,white_low_45_down,4,1.177144965,0.2485927,right,0.5174974,0,4,3,0,0,1,1,TRUE,FALSE,low_2_mask_low,0.75,-1,3,FALSE,1,,,,,,,,,,,,,,,,,,,165,3,3.2.2021,164.9658686
73,"['low', 3, 'low']",3,white,0.31193286,135,right,up,low,low,white_low_135-white_low_45-black_low_45-black_low_135,white_low_135_up,black_low_45_up,2,1.710146134,0.2466891,right,0.4988729,1,2,5,1,0,1,1,TRUE,FALSE,low_3_mask_low,0.75,-1,3,FALSE,2,,,,,,,,,,,,,,,,,,,165,3,3.2.2021,164.9658686
74,"['med', 2, 'high']",2,white,0.564334374,135,right,down,med,high,white_high_135-black_high_45-white_high_135-black_high_135,white_med_135_down,black_med_45_down,9,1.669940338,0.2502986,left,0.8497659,0,9,3,1,0,1,1,TRUE,FALSE,med_2_mask_high,0.75,-1,3,TRUE,3,,,,,,,,,,,,,,,,,,,165,3,3.2.2021,164.9658686
75,"['low', 3, 'high']",3,black,0.843767436,45,right,up,low,high,black_high_135-white_high_135-black_high_45-white_high_135,black_low_45_up,white_low_135_up,7,1.832615401,0.2485641,right,1.7250807,1,7,4,0,0,1,1,TRUE,FALSE,low_3_mask_high,0.75,-1,3,TRUE,3,,,,,,,,,,,,,,,,,,,165,3,3.2.2021,164.9658686
76,"['low', 3, 'low']",3,white,0.447027927,45,left,down,low,low,white_low_45-black_low_45-black_low_135-white_low_135,white_low_45_down,black_low_135_down,1,1.649820875,0.2503197,right,0.9956382,0,1,6,1,0,1,1,TRUE,FALSE,low_3_mask_low,0.75,-1,3,TRUE,3,,,,,,,,,,,,,,,,,,,165,3,3.2.2021,164.9658686
77,"['high', 3, 'high']",3,white,0.432608863,135,right,down,high,high,black_high_45-white_high_135-black_high_135-white_high_135,white_high_135_down,black_high_45_down,8,1.874120564,0.2485365,right,0.3331511,1,8,4,1,0,1,1,TRUE,FALSE,high_3_mask_high,0.75,-1,3,FALSE,1,,,,,,,,,,,,,,,,,,,165,3,3.2.2021,164.9658686
78,"['low', 3, 'high']",3,black,0.670894875,45,right,up,low,high,black_high_45-white_high_135-black_high_135-white_high_135,black_low_45_up,white_low_135_up,6,1.783984605,0.2484956,right,0.5914133,1,6,5,1,0,1,1,TRUE,FALSE,low_3_mask_high,0.75,-1,3,FALSE,3,,,,,,,,,,,,,,,,,,,165,3,3.2.2021,164.9658686
79,"['high', 2, 'low']",2,white,0.950953568,45,left,down,high,low,black_low_135-black_low_45-white_low_135-white_low_45,white_high_45_down,black_high_135_down,13,1.521163441,0.2485512,right,0.5893834,0,13,7,1,0,1,1,TRUE,FALSE,high_2_mask_low,0.75,-1,3,TRUE,4,,,,,,,,,,,,,,,,,,,165,3,3.2.2021,164.9658686
80,"['med', 3, 'high']",3,black,0.339100052,45,right,down,med,high,black_high_135-white_high_135-white_high_135-black_high_45,black_med_45_down,white_med_135_down,7,1.927363283,0.2485479,right,0.9262823,1,7,5,1,0,1,1,TRUE,FALSE,med_3_mask_high,0.75,-1,3,FALSE,1,,,,,,,,,,,,,,,,,,,165,3,3.2.2021,164.9658686
81,"['low', 1, 'low']",1,black,0.369468023,135,left,up,low,low,black_low_135-white_low_45-black_low_45-white_low_135,black_low_135_up,white_low_45_up,17,1.860727951,0.2449392,right,1.04689,0,17,3,0,0,1,1,TRUE,FALSE,low_1_mask_low,0.75,-1,3,FALSE,0,,,,,,,,,,,,,,,,,,,165,3,3.2.2021,164.9658686
82,"['low', 3, 'high']",3,white,0.158990206,45,left,up,low,high,white_high_135-white_high_135-black_high_45-black_high_135,white_low_45_up,black_low_135_up,5,1.012378389,0.2485417,left,0.3299564,1,5,6,1,0,1,1,TRUE,FALSE,low_3_mask_high,0.75,-1,3,FALSE,3,,,,,,,,,,,,,,,,,,,165,3,3.2.2021,164.9658686
83,"['med', 1, 'low']",1,black,0.167702291,135,left,up,med,low,white_low_45-white_low_135-black_low_135-black_low_45,black_med_135_up,white_med_45_up,12,1.353216808,0.2449702,left,0.4104514,1,12,0,None,0,1,1,TRUE,FALSE,med_1_mask_low,0.75,-1,3,FALSE,0,,,,,,,,,,,,,,,,,,,165,3,3.2.2021,164.9658686
84,"['med', 2, 'high']",2,white,0.739505751,135,right,up,med,high,white_high_135-black_high_135-white_high_135-black_high_45,white_med_135_up,black_med_45_up,12,1.768599798,0.2485452,left,1.6423255,0,12,4,0,0,1,1,TRUE,FALSE,med_2_mask_high,0.75,-1,3,FALSE,3,,,,,,,,,,,,,,,,,,,165,3,3.2.2021,164.9658686
85,"['med', 2, 'low']",2,white,0.715402489,135,right,down,med,low,black_low_135-white_low_135-white_low_45-black_low_45,white_med_135_down,black_med_45_down,11,1.511970271,0.2500112,right,0.4403972,1,11,5,1,0,1,1,TRUE,FALSE,med_2_mask_low,0.75,-1,3,FALSE,2,,,,,,,,,,,,,,,,,,,165,3,3.2.2021,164.9658686
86,"['high', 3, 'low']",3,black,0.900362297,45,right,down,high,low,white_low_45-black_low_135-black_low_45-white_low_135,black_high_45_down,white_high_135_down,13,1.348018574,0.2466916,right,0.4561732,1,13,3,1,0,1,1,TRUE,FALSE,high_3_mask_low,0.75,-1,3,FALSE,1,,,,,,,,,,,,,,,,,,,165,3,3.2.2021,164.9658686
87,"['med', 1, 'low']",1,black,0.067046931,45,right,down,med,low,white_low_45-black_low_135-black_low_45-white_low_135,black_med_45_down,white_med_135_down,11,1.902389073,0.2488473,right,0.6254247,1,11,1,1,0,1,1,TRUE,FALSE,med_1_mask_low,0.75,-1,3,FALSE,0,,,,,,,,,,,,,,,,,,,165,3,3.2.2021,164.9658686
88,"['high', 3, 'high']",3,black,0.141020712,135,left,up,high,high,black_high_135-white_high_135-white_high_135-black_high_45,black_high_135_up,white_high_45_up,7,1.448578851,0.2503077,left,1.7623542,1,7,5,1,0,1,1,TRUE,FALSE,high_3_mask_high,0.75,-1,3,FALSE,1,,,,,,,,,,,,,,,,,,,165,3,3.2.2021,164.9658686
89,"['high', 2, 'low']",2,white,0.825994118,135,right,up,high,low,black_low_135-black_low_45-white_low_135-white_low_45,white_high_135_up,black_high_45_up,16,1.864279124,0.2485439,right,0.824498,1,16,8,0,0,1,1,TRUE,FALSE,high_2_mask_low,0.75,-1,3,TRUE,5,,,,,,,,,,,,,,,,,,,165,3,3.2.2021,164.9658686
90,"['low', 1, 'high']",1,black,0.45593073,135,left,up,low,high,black_high_135-white_high_135-black_high_45-white_high_135,black_low_135_up,white_low_45_up,9,1.998777438,0.2467248,left,0.6598971,1,9,3,1,0,1,1,TRUE,FALSE,low_1_mask_high,0.75,-1,3,FALSE,2,,,,,,,,,,,,,,,,,,,165,3,3.2.2021,164.9658686
91,"['low', 1, 'high']",1,white,0.391046351,135,right,up,low,high,white_high_135-black_high_45-black_high_135-white_high_135,white_low_135_up,black_low_45_up,8,1.699139877,0.2485473,left,1.450825,0,8,4,1,0,1,1,TRUE,FALSE,low_1_mask_high,0.75,-1,3,TRUE,3,,,,,,,,,,,,,,,,,,,165,3,3.2.2021,164.9658686
92,"['high', 2, 'low']",2,white,0.947712007,135,right,up,high,low,white_low_135-black_low_45-black_low_135-white_low_45,white_high_135_up,black_high_45_up,15,1.219482358,0.2485513,right,0.3120336,1,15,9,1,1,1,1,TRUE,FALSE,high_2_mask_low,0.75,-1,3,FALSE,5,,,,,,,,,,,,,,,,,,,165,3,3.2.2021,164.9658686
93,"['med', 2, 'high']",2,white,0.189409562,45,left,down,med,high,white_high_135-black_high_135-black_high_45-white_high_135,white_med_45_down,black_med_135_down,15,1.229696615,0.2485523,left,0.3417557,1,15,5,0,0,1,1,TRUE,FALSE,med_2_mask_high,0.75,-1,3,TRUE,4,,,,,,,,,,,,,,,,,,,165,3,3.2.2021,164.9658686
94,"['low', 2, 'low']",2,white,0.609478088,135,right,down,low,low,white_low_135-black_low_135-white_low_45-black_low_45,white_low_135_down,black_low_45_down,7,1.926930479,0.246732,right,0.2619193,1,7,4,0,0,1,1,TRUE,FALSE,low_2_mask_low,0.75,-1,3,TRUE,2,,,,,,,,,,,,,,,,,,,165,3,3.2.2021,164.9658686
95,"['med', 1, 'low']",1,black,0.05913136,45,right,down,med,low,black_low_135-black_low_45-white_low_135-white_low_45,black_med_45_down,white_med_135_down,10,1.192295444,0.2502922,right,0.3834176,1,10,2,1,0,1,1,TRUE,FALSE,med_1_mask_low,0.75,-1,3,FALSE,0,,,,,,,,,,,,,,,,,,,165,3,3.2.2021,164.9658686
96,"['med', 3, 'low']",3,white,0.700747358,45,left,up,med,low,white_low_45-white_low_135-black_low_135-black_low_45,white_med_45_up,black_med_135_up,13,1.065640465,0.2467361,left,0.1916506,1,13,7,1,1,1,1,TRUE,FALSE,med_3_mask_low,0.75,-1,3,FALSE,6,,,,,,,,,,,,,,,,,,,165,3,3.2.2021,164.9658686
97,"['med', 1, 'high']",1,black,0.037268636,45,right,up,med,high,black_high_45-white_high_135-black_high_135-white_high_135,black_med_45_up,white_med_135_up,23,1.840932207,0.248844,right,1.512519,1,23,5,0,0,1,1,TRUE,FALSE,med_1_mask_high,0.75,-1,3,TRUE,3,,,,,,,,,,,,,,,,,,,165,3,3.2.2021,164.9658686
98,"['med', 2, 'low']",2,black,0.261386721,135,left,up,med,low,white_low_135-white_low_45-black_low_135-black_low_45,black_med_135_up,white_med_45_up,10,1.534042708,0.2485549,left,1.5012653,1,10,6,1,0,1,1,TRUE,FALSE,med_2_mask_low,0.75,-1,3,FALSE,2,,,,,,,,,,,,,,,,,,,165,3,3.2.2021,164.9658686
99,"['low', 2, 'high']",2,white,0.414681425,135,right,down,low,high,white_high_135-black_high_135-white_high_135-black_high_45,white_low_135_down,black_low_45_down,10,1.868508921,0.2485494,right,0.3200181,1,10,5,1,0,1,1,TRUE,FALSE,low_2_mask_high,0.75,-1,3,FALSE,3,,,,,,,,,,,,,,,,,,,165,3,3.2.2021,164.9658686
100,"['high', 3, 'high']",3,black,0.779716048,45,right,up,high,high,black_high_45-white_high_135-black_high_135-white_high_135,black_high_45_up,white_high_135_up,6,1.955960869,0.2485417,left,2.5804661,0,6,6,1,0,1,1,TRUE,FALSE,high_3_mask_high,0.75,-1,3,TRUE,2,,,,,,,,,,,,,,,,,,,165,3,3.2.2021,164.9658686
101,"['low', 2, 'low']",2,white,0.156761017,45,left,down,low,low,black_low_45-white_low_45-white_low_135-black_low_135,white_low_45_down,black_low_135_down,6,1.999359091,0.2485439,left,0.3364882,1,6,5,1,0,1,1,TRUE,FALSE,low_2_mask_low,0.75,-1,3,FALSE,2,,,,,,,,,,,,,,,,,,,165,3,3.2.2021,164.9658686
102,"['low', 1, 'high']",1,black,0.737339227,135,left,down,low,high,white_high_135-white_high_135-black_high_135-black_high_45,black_low_135_down,white_low_45_down,11,1.646280222,0.2485415,right,0.6342626,0,11,5,0,0,1,1,TRUE,FALSE,low_1_mask_high,0.75,-1,3,FALSE,3,,,,,,,,,,,,,,,,,,,165,3,3.2.2021,164.9658686
103,"['high', 1, 'high']",1,white,0.611035385,135,right,up,high,high,black_high_45-white_high_135-white_high_135-black_high_135,white_high_135_up,black_high_45_up,12,1.097604429,0.2485499,left,0.8860374,0,12,0,None,0,1,1,TRUE,FALSE,high_1_mask_high,0.75,-1,3,FALSE,0,,,,,,,,,,,,,,,,,,,165,3,3.2.2021,164.9658686
104,"['med', 2, 'high']",2,white,0.527315283,45,left,up,med,high,black_high_135-white_high_135-black_high_45-white_high_135,white_med_45_up,black_med_135_up,14,1.712600742,0.2485226,left,1.466355,1,14,6,1,0,1,1,TRUE,FALSE,med_2_mask_high,0.75,-1,3,FALSE,4,,,,,,,,,,,,,,,,,,,165,3,3.2.2021,164.9658686
105,"['med', 2, 'high']",2,white,0.675988746,135,right,up,med,high,black_high_135-white_high_135-white_high_135-black_high_45,white_med_135_up,black_med_45_up,13,1.750849859,0.2503255,right,0.2581782,1,13,7,1,0,1,1,TRUE,FALSE,med_2_mask_high,0.75,-1,3,FALSE,4,,,,,,,,,,,,,,,,,,,165,3,3.2.2021,164.9658686
106,"['high', 1, 'low']",1,black,0.658612697,45,right,down,high,low,white_low_45-black_low_135-white_low_135-black_low_45,black_high_45_down,white_high_135_down,15,1.569408234,0.2485607,left,0.9198047,0,15,5,0,0,1,1,TRUE,FALSE,high_1_mask_low,0.75,-1,3,FALSE,1,,,,,,,,,,,,,,,,,,,165,3,3.2.2021,164.9658686
107,"['high', 2, 'low']",2,white,0.385829991,135,right,up,high,low,white_low_135-white_low_45-black_low_135-black_low_45,white_high_135_up,black_high_45_up,14,1.753081004,0.2485455,right,0.2500559,1,14,10,1,1,1,1,TRUE,FALSE,high_2_mask_low,0.75,-1,3,FALSE,5,,,,,,,,,,,,,,,,,,,165,3,3.2.2021,164.9658686
108,"['low', 2, 'high']",2,white,0.175901889,135,right,down,low,high,white_high_135-black_high_135-white_high_135-black_high_45,white_low_135_down,black_low_45_down,9,1.372188865,0.2485363,right,0.1320922,1,9,6,1,0,1,1,TRUE,FALSE,low_2_mask_high,0.75,-1,3,FALSE,3,,,,,,,,,,,,,,,,,,,165,3,3.2.2021,164.9658686
109,"['high', 1, 'low']",1,white,0.510836386,135,right,down,high,low,black_low_45-white_low_135-white_low_45-black_low_135,white_high_135_down,black_high_45_down,18,1.544293735,0.2485448,right,0.3154364,1,18,6,0,0,1,1,TRUE,FALSE,high_1_mask_low,0.75,-1,3,TRUE,2,,,,,,,,,,,,,,,,,,,165,3,3.2.2021,164.9658686
110,"['high', 3, 'low']",3,white,0.434325349,135,right,up,high,low,white_low_45-black_low_135-white_low_135-black_low_45,white_high_135_up,black_high_45_up,12,1.159845384,0.2485472,right,2.0081061,1,12,4,1,0,1,1,TRUE,FALSE,high_3_mask_low,0.75,-1,3,FALSE,1,,,,,,,,,,,,,,,,,,,165,3,3.2.2021,164.9658686
111,"['low', 3, 'low']",3,white,0.281244223,135,right,down,low,low,white_low_135-white_low_45-black_low_45-black_low_135,white_low_135_down,black_low_45_down,4,1.629949184,0.24502,right,0.1912572,1,4,7,0,0,1,1,TRUE,FALSE,low_3_mask_low,0.75,-1,3,TRUE,4,,,,,,,,,,,,,,,,,,,165,3,3.2.2021,164.9658686
112,"['med', 3, 'low']",3,white,0.977763042,45,left,up,med,low,white_low_135-white_low_45-black_low_135-black_low_45,white_med_45_up,black_med_135_up,12,1.147138381,0.2488579,left,0.224107,1,12,8,1,1,1,1,TRUE,FALSE,med_3_mask_low,0.75,-1,3,FALSE,6,,,,,,,,,,,,,,,,,,,165,3,3.2.2021,164.9658686
113,"['high', 3, 'high']",3,white,0.694916253,135,right,up,high,high,black_high_135-black_high_45-white_high_135-white_high_135,white_high_135_up,black_high_45_up,9,1.356703997,0.248528,left,1.0718237,0,9,7,0,0,1,1,TRUE,FALSE,high_3_mask_high,0.75,-1,3,FALSE,2,,,,,,,,,,,,,,,,,,,165,3,3.2.2021,164.9658686
114,"['med', 2, 'low']",2,black,0.168720586,45,right,down,med,low,black_low_45-black_low_135-white_low_45-white_low_135,black_med_45_down,white_med_135_down,9,1.982330244,0.2485446,left,2.3974146,0,9,7,1,0,1,1,TRUE,FALSE,med_2_mask_low,0.75,-1,3,TRUE,3,,,,,,,,,,,,,,,,,,,165,3,3.2.2021,164.9658686
115,"['high', 1, 'low']",1,black,0.589711659,135,left,down,high,low,black_low_135-white_low_135-black_low_45-white_low_45,black_high_135_down,white_high_45_down,17,1.072867421,0.2485406,right,0.346034,0,17,7,1,0,1,1,TRUE,FALSE,high_1_mask_low,0.75,-1,3,TRUE,3,,,,,,,,,,,,,,,,,,,165,3,3.2.2021,164.9658686
116,"['high', 2, 'low']",2,black,0.151416154,45,right,up,high,low,white_low_45-white_low_135-black_low_135-black_low_45,black_high_45_up,white_high_135_up,13,1.207651309,0.2485479,left,0.5027115,0,13,11,1,1,1,1,TRUE,FALSE,high_2_mask_low,0.75,-1,3,TRUE,6,,,,,,,,,,,,,,,,,,,165,3,3.2.2021,164.9658686
117,"['high', 3, 'low']",3,black,0.639646156,135,left,down,high,low,black_low_135-white_low_45-black_low_45-white_low_135,black_high_135_down,white_high_45_down,11,1.400178067,0.2485522,left,1.450116,1,11,5,1,0,1,1,TRUE,FALSE,high_3_mask_low,0.75,-1,3,FALSE,1,,,,,,,,,,,,,,,,,,,165,3,3.2.2021,164.9658686
118,"['low', 1, 'high']",1,white,0.291182245,135,right,up,low,high,black_high_45-white_high_135-black_high_135-white_high_135,white_low_135_up,black_low_45_up,14,1.542612698,0.2485542,right,0.143152,1,14,6,0,0,1,1,TRUE,FALSE,low_1_mask_high,0.75,-1,3,TRUE,4,,,,,,,,,,,,,,,,,,,165,3,3.2.2021,164.9658686
119,"['low', 2, 'low']",2,black,0.696215738,135,left,up,low,low,black_low_135-white_low_135-white_low_45-black_low_45,black_low_135_up,white_low_45_up,5,1.351037156,0.2502887,right,1.3914192,0,5,6,1,0,1,1,TRUE,FALSE,low_2_mask_low,0.75,-1,3,TRUE,3,,,,,,,,,,,,,,,,,,,165,3,3.2.2021,164.9658686
120,"['high', 3, 'low']",3,black,0.986025939,45,right,up,high,low,white_low_45-black_low_135-black_low_45-white_low_135,black_high_45_up,white_high_135_up,10,1.752800081,0.2485519,left,1.7478119,0,10,6,1,0,1,1,TRUE,FALSE,high_3_mask_low,0.75,-1,3,TRUE,2,,,,,,,,,,,,,,,,,,,165,3,3.2.2021,164.9658686
121,"['med', 2, 'high']",2,black,0.178415701,45,right,down,med,high,black_high_45-white_high_135-white_high_135-black_high_135,black_med_45_down,white_med_135_down,12,1.035199307,0.248546,left,1.543709,0,12,8,1,0,1,1,TRUE,FALSE,med_2_mask_high,0.75,-1,3,TRUE,5,,,,,,,,,,,,,,,,,,,165,3,3.2.2021,164.9658686
122,"['med', 3, 'low']",3,white,0.641472208,45,left,down,med,low,black_low_135-white_low_45-black_low_45-white_low_135,white_med_45_down,black_med_135_down,11,1.970870675,0.2485641,right,0.2709921,0,11,9,1,1,1,1,TRUE,FALSE,med_3_mask_low,0.75,-1,3,TRUE,7,,,,,,,,,,,,,,,,,,,165,3,3.2.2021,164.9658686
123,"['high', 2, 'low']",2,white,0.987804013,135,right,up,high,low,black_low_135-black_low_45-white_low_135-white_low_45,white_high_135_up,black_high_45_up,16,1.55896558,0.2485473,right,0.3020812,1,16,12,0,1,1,1,TRUE,FALSE,high_2_mask_low,0.75,-1,3,TRUE,7,,,,,,,,,,,,,,,,,,,165,3,3.2.2021,164.9658686
124,"['low', 2, 'high']",2,black,0.787598278,135,left,down,low,high,white_high_135-white_high_135-black_high_45-black_high_135,black_low_135_down,white_low_45_down,8,1.59519254,0.2467811,right,0.3068696,0,8,7,1,0,1,1,TRUE,FALSE,low_2_mask_high,0.75,-1,3,TRUE,4,,,,,,,,,,,,,,,,,,,165,3,3.2.2021,164.9658686
125,"['high', 1, 'high']",1,white,0.340183287,45,left,up,high,high,white_high_135-white_high_135-black_high_135-black_high_45,white_high_45_up,black_high_135_up,15,1.229867109,0.2485446,left,0.4893525,1,15,1,0,0,1,1,TRUE,FALSE,high_1_mask_high,0.75,-1,3,TRUE,1,,,,,,,,,,,,,,,,,,,165,3,3.2.2021,164.9658686
126,"['high', 2, 'low']",2,black,0.798229252,135,left,up,high,low,white_low_45-black_low_135-black_low_45-white_low_135,black_high_135_up,white_high_45_up,15,1.776665398,0.2485471,left,1.6539109,1,15,13,1,1,1,1,TRUE,FALSE,high_2_mask_low,0.75,-1,3,FALSE,7,,,,,,,,,,,,,,,,,,,165,3,3.2.2021,164.9658686
127,"['med', 3, 'low']",3,white,0.806639386,45,left,up,med,low,white_low_45-black_low_45-black_low_135-white_low_135,white_med_45_up,black_med_135_up,14,1.350756867,0.2467679,left,2.2192719,1,14,10,0,1,1,1,TRUE,FALSE,med_3_mask_low,0.75,-1,3,TRUE,8,,,,,,,,,,,,,,,,,,,165,3,3.2.2021,164.9658686
128,"['med', 1, 'high']",1,black,0.773693112,45,right,up,med,high,white_high_135-white_high_135-black_high_45-black_high_135,black_med_45_up,white_med_135_up,22,1.683021192,0.2485475,left,0.43046,0,22,6,1,0,1,1,TRUE,FALSE,med_1_mask_high,0.75,-1,3,TRUE,4,,,,,,,,,,,,,,,,,,,165,3,3.2.2021,164.9658686
129,"['med', 1, 'high']",1,white,0.231657287,135,right,up,med,high,white_high_135-white_high_135-black_high_135-black_high_45,white_med_135_up,black_med_45_up,25,1.0088538,0.2485437,right,0.2584325,1,25,7,0,0,1,1,TRUE,FALSE,med_1_mask_high,0.75,-1,3,TRUE,5,,,,,,,,,,,,,,,,,,,165,3,3.2.2021,164.9658686
130,"['low', 2, 'high']",2,black,0.120284262,135,left,up,low,high,white_high_135-black_high_135-white_high_135-black_high_45,black_low_135_up,white_low_45_up,11,1.564762345,0.2484897,left,1.3026633,1,11,8,0,0,1,1,TRUE,FALSE,low_2_mask_high,0.75,-1,3,TRUE,5,,,,,,,,,,,,,,,,,,,165,3,3.2.2021,164.9658686
131,"['high', 2, 'high']",2,black,0.868043058,45,right,down,high,high,black_high_45-white_high_135-black_high_135-white_high_135,black_high_45_down,white_high_135_down,15,1.79084961,0.248545,left,0.7566091,0,15,5,0,0,1,1,TRUE,FALSE,high_2_mask_high,0.75,-1,3,FALSE,2,,,,,,,,,,,,,,,,,,,165,3,3.2.2021,164.9658686
132,"['high', 2, 'high']",2,white,0.959623328,45,left,up,high,high,black_high_45-black_high_135-white_high_135-white_high_135,white_high_45_up,black_high_135_up,18,1.245817681,0.2485507,left,0.2953733,1,18,6,0,0,1,1,TRUE,FALSE,high_2_mask_high,0.75,-1,3,TRUE,3,,,,,,,,,,,,,,,,,,,165,3,3.2.2021,164.9658686
133,"['low', 1, 'high']",1,white,0.433314052,45,left,down,low,high,black_high_45-white_high_135-black_high_135-white_high_135,white_low_45_down,black_low_135_down,13,1.029608674,0.2467748,left,0.4084558,1,13,7,1,0,1,1,TRUE,FALSE,low_1_mask_high,0.75,-1,3,FALSE,4,,,,,,,,,,,,,,,,,,,165,3,3.2.2021,164.9658686
134,"['med', 3, 'low']",3,white,0.185187436,45,left,up,med,low,white_low_135-white_low_45-black_low_45-black_low_135,white_med_45_up,black_med_135_up,13,1.699189246,0.2488431,left,0.4125758,1,13,11,1,1,1,1,TRUE,FALSE,med_3_mask_low,0.75,-1,3,FALSE,8,,,,,,,,,,,,,,,,,,,165,3,3.2.2021,164.9658686
135,"['low', 3, 'low']",3,white,0.49805376,135,right,up,low,low,white_low_45-black_low_135-black_low_45-white_low_135,white_low_135_up,black_low_45_up,3,1.487312401,0.2485441,left,0.1126641,0,3,8,1,0,1,1,TRUE,FALSE,low_3_mask_low,0.75,-1,3,TRUE,5,,,,,,,,,,,,,,,,,,,165,3,3.2.2021,164.9658686
136,"['med', 1, 'low']",1,white,0.178672469,45,left,up,med,low,white_low_45-white_low_135-black_low_45-black_low_135,white_med_45_up,black_med_135_up,9,1.658703013,0.2485396,left,0.3716601,1,9,3,1,0,1,1,TRUE,FALSE,med_1_mask_low,0.75,-1,3,FALSE,0,,,,,,,,,,,,,,,,,,,165,3,3.2.2021,164.9658686
137,"['low', 3, 'low']",3,white,0.232839591,45,left,up,low,low,black_low_45-black_low_135-white_low_135-white_low_45,white_low_45_up,black_low_135_up,6,1.397255014,0.2485468,left,0.1408034,1,6,9,0,1,1,1,TRUE,FALSE,low_3_mask_low,0.75,-1,3,TRUE,6,,,,,,,,,,,,,,,,,,,165,3,3.2.2021,164.9658686
138,"['med', 1, 'high']",1,black,0.348164608,135,left,down,med,high,white_high_135-black_high_135-black_high_45-white_high_135,black_med_135_down,white_med_45_down,24,1.198887237,0.2488563,left,1.1724923,1,24,8,1,1,1,1,TRUE,FALSE,med_1_mask_high,0.75,-1,3,FALSE,5,,,,,,,,,,,,,,,,,,,165,3,3.2.2021,164.9658686
139,"['low', 1, 'high']",1,white,0.495950289,135,right,down,low,high,white_high_135-white_high_135-black_high_45-black_high_135,white_low_135_down,black_low_45_down,12,1.49931733,0.2467081,right,0.1994021,1,12,8,1,0,1,1,TRUE,FALSE,low_1_mask_high,0.75,-1,3,FALSE,4,,,,,,,,,,,,,,,,,,,165,3,3.2.2021,164.9658686
140,"['high', 3, 'low']",3,black,0.37375566,45,right,up,high,low,black_low_135-white_low_135-black_low_45-white_low_45,black_high_45_up,white_high_135_up,13,1.07890446,0.2502875,left,6.0853979,0,13,7,0,0,1,1,TRUE,FALSE,high_3_mask_low,0.75,-1,3,FALSE,2,,,,,,,,,,,,,,,,,,,165,3,3.2.2021,164.9658686
141,"['med', 2, 'high']",2,white,0.067961403,45,left,up,med,high,white_high_135-white_high_135-black_high_45-black_high_135,white_med_45_up,black_med_135_up,15,1.190607849,0.2485833,left,0.1924197,1,15,9,0,1,1,1,TRUE,FALSE,med_2_mask_high,0.75,-1,3,TRUE,6,,,,,,,,,,,,,,,,,,,165,3,3.2.2021,164.9658686
142,"['low', 3, 'high']",3,white,0.463935496,45,left,up,low,high,black_high_45-white_high_135-white_high_135-black_high_135,white_low_45_up,black_low_135_up,4,1.675298662,0.2485443,left,0.3740297,1,4,7,1,0,1,1,TRUE,FALSE,low_3_mask_high,0.75,-1,3,FALSE,3,,,,,,,,,,,,,,,,,,,165,3,3.2.2021,164.9658686
143,"['high', 3, 'high']",3,white,0.737151151,135,right,up,high,high,white_high_135-black_high_45-black_high_135-white_high_135,white_high_135_up,black_high_45_up,12,1.944966459,0.2485475,left,0.5381999,0,12,8,0,0,1,1,TRUE,FALSE,high_3_mask_high,0.75,-1,3,FALSE,2,,,,,,,,,,,,,,,,,,,165,3,3.2.2021,164.9658686
144,"['high', 2, 'high']",2,white,0.265720659,135,right,up,high,high,black_high_135-white_high_135-black_high_45-white_high_135,white_high_135_up,black_high_45_up,17,1.734770592,0.248614,right,1.3368673,1,17,7,1,0,1,1,TRUE,FALSE,high_2_mask_high,0.75,-1,3,FALSE,3,,,,,,,,,,,,,,,,,,,165,3,3.2.2021,164.9658686
145,"['high', 3, 'high']",3,black,0.636273703,135,left,down,high,high,white_high_135-black_high_135-black_high_45-white_high_135,black_high_135_down,white_high_45_down,15,1.435812575,0.2485397,right,1.8733392,0,15,9,0,0,1,1,TRUE,FALSE,high_3_mask_high,0.75,-1,3,FALSE,2,,,,,,,,,,,,,,,,,,,165,3,3.2.2021,164.9658686
146,"['high', 3, 'high']",3,white,0.750703377,45,left,up,high,high,black_high_45-white_high_135-white_high_135-black_high_135,white_high_45_up,black_high_135_up,18,1.191009293,0.2485535,left,0.4426491,1,18,10,0,0,1,1,TRUE,FALSE,high_3_mask_high,0.75,-1,3,TRUE,3,,,,,,,,,,,,,,,,,,,165,3,3.2.2021,164.9658686
147,"['low', 1, 'low']",1,white,0.315278068,135,right,down,low,low,black_low_135-black_low_45-white_low_45-white_low_135,white_low_135_down,black_low_45_down,20,1.172537576,0.2503048,right,0.5648779,1,20,4,0,0,1,1,TRUE,FALSE,low_1_mask_low,0.75,-1,3,TRUE,1,,,,,,,,,,,,,,,,,,,165,3,3.2.2021,164.9658686
148,"['low', 2, 'high']",2,black,0.27884931,135,left,down,low,high,white_high_135-black_high_135-black_high_45-white_high_135,black_low_135_down,white_low_45_down,10,1.910753912,0.2485421,left,0.1306246,1,10,9,1,1,1,1,TRUE,FALSE,low_2_mask_high,0.75,-1,3,FALSE,5,,,,,,,,,,,,,,,,,,,165,3,3.2.2021,164.9658686
149,"['low', 2, 'low']",2,black,0.896729443,45,right,down,low,low,white_low_45-black_low_45-white_low_135-black_low_135,black_low_45_down,white_low_135_down,8,1.043790594,0.2488468,right,0.2153665,1,8,7,0,0,1,1,TRUE,FALSE,low_2_mask_low,0.75,-1,3,TRUE,4,,,,,,,,,,,,,,,,,,,165,3,3.2.2021,164.9658686
150,"['med', 1, 'high']",1,white,0.892612907,135,right,down,med,high,black_high_135-white_high_135-white_high_135-black_high_45,white_med_135_down,black_med_45_down,23,1.917067655,0.2485539,right,0.4722874,1,23,9,1,1,1,1,TRUE,FALSE,med_1_mask_high,0.75,-1,3,FALSE,5,,,,,,,,,,,,,,,,,,,165,3,3.2.2021,164.9658686
151,"['low', 2, 'low']",2,white,0.978231233,45,left,down,low,low,black_low_135-white_low_135-black_low_45-white_low_45,white_low_45_down,black_low_135_down,7,1.052521381,0.2488563,left,0.3149886,1,7,8,1,0,1,1,TRUE,FALSE,low_2_mask_low,0.75,-1,3,FALSE,4,,,,,,,,,,,,,,,,,,,165,3,3.2.2021,164.9658686
152,"['med', 2, 'high']",2,black,0.979019235,45,right,up,med,high,white_high_135-black_high_135-black_high_45-white_high_135,black_med_45_up,white_med_135_up,14,1.153293659,0.2485502,left,0.4312938,0,14,10,1,1,1,1,TRUE,FALSE,med_2_mask_high,0.75,-1,3,TRUE,7,,,,,,,,,,,,,,,,,,,165,3,3.2.2021,164.9658686
153,"['med', 3, 'high']",3,black,0.575619746,45,right,up,med,high,black_high_45-white_high_135-black_high_135-white_high_135,black_med_45_up,white_med_135_up,6,1.979914462,0.248544,right,0.7720474,1,6,6,1,0,1,1,TRUE,FALSE,med_3_mask_high,0.75,-1,3,FALSE,1,,,,,,,,,,,,,,,,,,,165,3,3.2.2021,164.9658686
154,"['low', 1, 'low']",1,black,0.295938494,45,right,down,low,low,black_low_135-black_low_45-white_low_45-white_low_135,black_low_45_down,white_low_135_down,19,1.670490586,0.2485484,left,0.0841231,0,19,5,1,0,1,1,TRUE,FALSE,low_1_mask_low,0.75,-1,3,TRUE,2,,,,,,,,,,,,,,,,,,,165,3,3.2.2021,164.9658686
155,"['high', 2, 'high']",2,black,0.66768189,45,right,down,high,high,white_high_135-white_high_135-black_high_45-black_high_135,black_high_45_down,white_high_135_down,16,1.533792552,0.2482564,right,0.7020526,1,16,8,1,0,1,1,TRUE,FALSE,high_2_mask_high,0.75,-1,3,FALSE,3,,,,,,,,,,,,,,,,,,,165,3,3.2.2021,164.9658686
156,"['low', 3, 'low']",3,black,0.081730234,135,left,down,low,low,black_low_135-white_low_45-black_low_45-white_low_135,black_low_135_down,white_low_45_down,5,1.797273431,0.248543,right,1.090972,0,5,10,1,1,1,1,TRUE,FALSE,low_3_mask_low,0.75,-1,3,TRUE,7,,,,,,,,,,,,,,,,,,,165,3,3.2.2021,164.9658686
157,"['low', 1, 'low']",1,black,0.924050093,45,right,up,low,low,white_low_135-white_low_45-black_low_45-black_low_135,black_low_45_up,white_low_135_up,22,1.317778086,0.2485503,left,0.3007496,0,22,6,0,0,1,1,TRUE,FALSE,low_1_mask_low,0.75,-1,3,FALSE,2,,,,,,,,,,,,,,,,,,,165,3,3.2.2021,164.9658686
158,"['med', 2, 'high']",2,black,0.791587528,45,right,down,med,high,white_high_135-black_high_45-white_high_135-black_high_135,black_med_45_down,white_med_135_down,17,1.619769326,0.2485382,left,1.0095525,0,17,11,0,1,1,1,TRUE,FALSE,med_2_mask_high,0.75,-1,3,FALSE,7,,,,,,,,,,,,,,,,,,,165,3,3.2.2021,164.9658686
159,"['med', 2, 'high']",2,white,0.33970257,45,left,up,med,high,black_high_135-white_high_135-black_high_45-white_high_135,white_med_45_up,black_med_135_up,20,1.545811049,0.2467579,left,0.1466329,1,20,12,0,1,1,1,TRUE,FALSE,med_2_mask_high,0.75,-1,3,TRUE,8,,,,,,,,,,,,,,,,,,,165,3,3.2.2021,164.9658686
160,"['low', 2, 'low']",2,white,0.671904602,45,left,down,low,low,black_low_45-white_low_45-white_low_135-black_low_135,white_low_45_down,black_low_135_down,6,1.929707663,0.2485479,left,0.2713341,1,6,9,1,0,1,1,TRUE,FALSE,low_2_mask_low,0.75,-1,3,FALSE,4,,,,,,,,,,,,,,,,,,,165,3,3.2.2021,164.9658686
161,"['low', 3, 'low']",3,black,0.680778445,135,left,down,low,low,white_low_45-white_low_135-black_low_45-black_low_135,black_low_135_down,white_low_45_down,8,1.427304241,0.2503334,left,0.0812258,1,8,11,0,1,1,1,TRUE,FALSE,low_3_mask_low,0.75,-1,3,TRUE,8,,,,,,,,,,,,,,,,,,,165,3,3.2.2021,164.9658686
162,"['med', 1, 'high']",1,black,0.38659697,45,right,up,med,high,white_high_135-black_high_45-white_high_135-black_high_135,black_med_45_up,white_med_135_up,22,1.9477757,0.2488488,left,0.3624937,0,22,10,1,1,1,1,TRUE,FALSE,med_1_mask_high,0.75,-1,3,TRUE,6,,,,,,,,,,,,,,,,,,,165,3,3.2.2021,164.9658686
163,"['high', 2, 'high']",2,white,0.288561546,45,left,down,high,high,white_high_135-white_high_135-black_high_135-black_high_45,white_high_45_down,black_high_135_down,15,1.742655911,0.2485476,left,0.3309123,1,15,9,1,0,1,1,TRUE,FALSE,high_2_mask_high,0.75,-1,3,FALSE,3,,,,,,,,,,,,,,,,,,,165,3,3.2.2021,164.9658686
164,"['med', 3, 'low']",3,black,0.028564908,45,right,down,med,low,white_low_135-black_low_135-black_low_45-white_low_45,black_med_45_down,white_med_135_down,12,1.401124199,0.2485417,left,1.6085695,0,12,12,1,1,1,1,TRUE,FALSE,med_3_mask_low,0.75,-1,3,TRUE,9,,,,,,,,,,,,,,,,,,,165,3,3.2.2021,164.9658686
165,"['low', 3, 'low']",3,black,0.844368244,135,left,up,low,low,black_low_45-white_low_45-white_low_135-black_low_135,black_low_135_up,white_low_45_up,7,1.000878124,0.2485488,left,0.0192489,1,7,12,1,1,1,1,TRUE,FALSE,low_3_mask_low,0.75,-1,3,FALSE,8,,,,,,,,,,,,,,,,,,,165,3,3.2.2021,164.9658686
166,"['med', 3, 'low']",3,black,0.066945647,45,right,up,med,low,white_low_135-black_low_135-black_low_45-white_low_45,black_med_45_up,white_med_135_up,15,1.857526963,0.2485402,right,0.0845453,1,15,13,0,1,1,1,TRUE,FALSE,med_3_mask_low,0.75,-1,3,TRUE,10,,,,,,,,,,,,,,,,,,,165,3,3.2.2021,164.9658686
167,"['high', 1, 'high']",1,white,0.501098438,45,left,up,high,high,black_high_45-black_high_135-white_high_135-white_high_135,white_high_45_up,black_high_135_up,14,1.247042187,0.2449671,left,0.3495434,1,14,2,1,0,1,1,TRUE,FALSE,high_1_mask_high,0.75,-1,3,FALSE,1,,,,,,,,,,,,,,,,,,,165,3,3.2.2021,164.9658686
168,"['low', 1, 'low']",1,black,0.668893895,45,right,up,low,low,white_low_45-white_low_135-black_low_135-black_low_45,black_low_45_up,white_low_135_up,25,1.050399203,0.2485351,right,0.2014269,1,25,7,0,0,1,1,TRUE,FALSE,low_1_mask_low,0.75,-1,3,TRUE,3,,,,,,,,,,,,,,,,,,,165,3,3.2.2021,164.9658686
169,"['low', 2, 'high']",2,black,0.72709198,135,left,down,low,high,white_high_135-black_high_45-black_high_135-white_high_135,black_low_135_down,white_low_45_down,9,1.66821348,0.2485411,left,0.2264137,1,9,10,1,1,1,1,TRUE,FALSE,low_2_mask_high,0.75,-1,3,FALSE,5,,,,,,,,,,,,,,,,,,,165,3,3.2.2021,164.9658686
170,"['high', 1, 'high']",1,white,0.580732981,135,right,up,high,high,white_high_135-black_high_135-black_high_45-white_high_135,white_high_135_up,black_high_45_up,13,1.821786894,0.2485345,right,0.1100961,1,13,3,1,0,1,1,TRUE,FALSE,high_1_mask_high,0.75,-1,3,FALSE,1,,,,,,,,,,,,,,,,,,,165,3,3.2.2021,164.9658686
171,"['low', 3, 'low']",3,black,0.994414349,45,right,down,low,low,white_low_45-black_low_45-white_low_135-black_low_135,black_low_45_down,white_low_135_down,6,1.178642898,0.2485436,right,0.7496887,1,6,13,1,1,1,1,TRUE,FALSE,low_3_mask_low,0.75,-1,3,FALSE,8,,,,,,,,,,,,,,,,,,,165,3,3.2.2021,164.9658686
172,"['low', 1, 'high']",1,white,0.03222772,45,left,down,low,high,white_high_135-white_high_135-black_high_45-black_high_135,white_low_45_down,black_low_135_down,11,1.378457067,0.2485616,left,0.5872955,1,11,9,1,0,1,1,TRUE,FALSE,low_1_mask_high,0.75,-1,3,FALSE,4,,,,,,,,,,,,,,,,,,,165,3,3.2.2021,164.9658686
173,"['high', 3, 'high']",3,black,0.247789106,45,right,up,high,high,white_high_135-black_high_135-white_high_135-black_high_45,black_high_45_up,white_high_135_up,17,1.4611633,0.2485463,left,0.6328457,0,17,11,1,0,1,1,TRUE,FALSE,high_3_mask_high,0.75,-1,3,TRUE,4,,,,,,,,,,,,,,,,,,,165,3,3.2.2021,164.9658686
174,"['med', 2, 'high']",2,white,0.405383676,45,left,down,med,high,white_high_135-black_high_135-white_high_135-black_high_45,white_med_45_down,black_med_135_down,19,1.364017366,0.2485438,right,0.5634755,0,19,13,1,1,1,1,TRUE,FALSE,med_2_mask_high,0.75,-1,3,TRUE,9,,,,,,,,,,,,,,,,,,,165,3,3.2.2021,164.9658686
175,"['med', 2, 'low']",2,white,0.865274519,45,left,up,med,low,white_low_45-white_low_135-black_low_135-black_low_45,white_med_45_up,black_med_135_up,12,1.895749613,0.248546,left,0.2826437,1,12,8,0,0,1,1,TRUE,FALSE,med_2_mask_low,0.75,-1,3,TRUE,4,,,,,,,,,,,,,,,,,,,165,3,3.2.2021,164.9658686
176,"['high', 1, 'low']",1,black,0.042044201,135,left,down,high,low,black_low_135-white_low_45-black_low_45-white_low_135,black_high_135_down,white_high_45_down,20,1.27495654,0.248548,right,0.4700904,0,20,8,0,0,1,1,TRUE,FALSE,high_1_mask_low,0.75,-1,3,FALSE,3,,,,,,,,,,,,,,,,,,,165,3,3.2.2021,164.9658686
177,"['high', 1, 'low']",1,black,0.560264817,135,left,up,high,low,black_low_135-black_low_45-white_low_45-white_low_135,black_high_135_up,white_high_45_up,23,1.381002987,0.2485447,left,0.1727,1,23,9,0,0,1,1,TRUE,FALSE,high_1_mask_low,0.75,-1,3,TRUE,4,,,,,,,,,,,,,,,,,,,165,3,3.2.2021,164.9658686
178,"['med', 1, 'high']",1,black,0.876436303,45,right,up,med,high,black_high_45-white_high_135-black_high_135-white_high_135,black_med_45_up,white_med_135_up,25,1.670769082,0.248541,right,1.4941025,1,25,11,0,1,1,1,TRUE,FALSE,med_1_mask_high,0.75,-1,3,TRUE,7,,,,,,,,,,,,,,,,,,,165,3,3.2.2021,164.9658686
179,"['low', 3, 'high']",3,black,0.298661822,135,left,up,low,high,white_high_135-black_high_45-black_high_135-white_high_135,black_low_135_up,white_low_45_up,3,1.763174698,0.2470334,left,2.1501349,1,3,8,1,0,1,1,TRUE,FALSE,low_3_mask_high,0.75,-1,3,FALSE,3,,,,,,,,,,,,,,,,,,,165,3,3.2.2021,164.9658686
180,"['med', 2, 'low']",2,white,0.292206654,45,left,down,med,low,black_low_135-white_low_45-white_low_135-black_low_45,white_med_45_down,black_med_135_down,11,1.113817333,0.2485555,left,0.4305401,1,11,9,1,0,1,1,TRUE,FALSE,med_2_mask_low,0.75,-1,3,FALSE,4,,,,,,,,,,,,,,,,,,,165,3,3.2.2021,164.9658686
181,"['high', 1, 'high']",1,white,0.713723407,135,right,down,high,high,white_high_135-black_high_135-black_high_45-white_high_135,white_high_135_down,black_high_45_down,12,1.123471003,0.2485475,right,0.8136253,1,12,4,1,0,1,1,TRUE,FALSE,high_1_mask_high,0.75,-1,3,FALSE,1,,,,,,,,,,,,,,,,,,,165,3,3.2.2021,164.9658686
182,"['high', 2, 'high']",2,white,0.169358995,45,left,down,high,high,white_high_135-black_high_45-black_high_135-white_high_135,white_high_45_down,black_high_135_down,14,1.367367295,0.2503172,left,1.2054307,1,14,10,1,0,1,1,TRUE,FALSE,high_2_mask_high,0.75,-1,3,FALSE,3,,,,,,,,,,,,,,,,,,,165,3,3.2.2021,164.9658686
183,"['high', 1, 'low']",1,white,0.148527249,45,left,up,high,low,black_low_45-white_low_45-white_low_135-black_low_135,white_high_45_up,black_high_135_up,22,1.705624206,0.2485461,left,0.0072701,1,22,10,1,0,1,1,TRUE,FALSE,high_1_mask_low,0.75,-1,3,FALSE,4,,,,,,,,,,,,,,,,,,,165,3,3.2.2021,164.9658686
184,"['med', 2, 'low']",2,black,0.079468116,45,right,down,med,low,white_low_45-white_low_135-black_low_45-black_low_135,black_med_45_down,white_med_135_down,10,1.076591363,0.2485487,right,0.1360833,1,10,10,1,0,1,1,TRUE,FALSE,med_2_mask_low,0.75,-1,3,FALSE,4,,,,,,,,,,,,,,,,,,,165,3,3.2.2021,164.9658686
185,"['low', 2, 'low']",2,white,0.364900719,45,left,down,low,low,black_low_45-white_low_45-black_low_135-white_low_135,white_low_45_down,black_low_135_down,5,1.36131257,0.2502899,right,0.3858457,0,5,10,1,0,1,1,TRUE,FALSE,low_2_mask_low,0.75,-1,3,TRUE,5,,,,,,,,,,,,,,,,,,,165,3,3.2.2021,164.9658686
186,"['high', 3, 'low']",3,white,0.422466924,45,left,up,high,low,black_low_135-white_low_45-black_low_45-white_low_135,white_high_45_up,black_high_135_up,16,1.655133922,0.2485415,left,0.2585547,1,16,8,0,0,1,1,TRUE,FALSE,high_3_mask_low,0.75,-1,3,TRUE,3,,,,,,,,,,,,,,,,,,,165,3,3.2.2021,164.9658686
187,"['low', 1, 'low']",1,white,0.683695879,135,right,up,low,low,white_low_135-black_low_135-white_low_45-black_low_45,white_low_135_up,black_low_45_up,24,1.700835742,0.2485456,right,0.2311863,1,24,8,1,0,1,1,TRUE,FALSE,low_1_mask_low,0.75,-1,3,FALSE,3,,,,,,,,,,,,,,,,,,,165,3,3.2.2021,164.9658686
188,"['low', 1, 'low']",1,black,0.152918392,135,left,down,low,low,white_low_45-white_low_135-black_low_135-black_low_45,black_low_135_down,white_low_45_down,23,1.573044284,0.2485448,right,1.390417,0,23,9,1,0,1,1,TRUE,FALSE,low_1_mask_low,0.75,-1,3,TRUE,4,,,,,,,,,,,,,,,,,,,165,3,3.2.2021,164.9658686
189,"['low', 2, 'low']",2,white,0.730912467,45,left,down,low,low,black_low_45-black_low_135-white_low_135-white_low_45,white_low_45_down,black_low_135_down,8,1.425185282,0.2485476,left,0.5365859,1,8,11,0,1,1,1,TRUE,FALSE,low_2_mask_low,0.75,-1,3,TRUE,6,,,,,,,,,,,,,,,,,,,165,3,3.2.2021,164.9658686
190,"['med', 2, 'low']",2,black,0.328757978,45,right,up,med,low,white_low_135-black_low_45-white_low_45-black_low_135,black_med_45_up,white_med_135_up,9,1.566551387,0.2456243,left,0.1446676,0,9,11,1,0,1,1,TRUE,FALSE,med_2_mask_low,0.75,-1,3,TRUE,5,,,,,,,,,,,,,,,,,,,165,3,3.2.2021,164.9658686
191,"['low', 3, 'high']",3,black,0.295819798,135,left,down,low,high,white_high_135-black_high_135-black_high_45-white_high_135,black_low_135_down,white_low_45_down,2,1.160478606,0.2488549,left,0.4620423,1,2,9,1,0,1,1,TRUE,FALSE,low_3_mask_high,0.75,-1,3,FALSE,3,,,,,,,,,,,,,,,,,,,165,3,3.2.2021,164.9658686
192,"['med', 1, 'high']",1,white,0.0966317,135,right,up,med,high,black_high_135-black_high_45-white_high_135-white_high_135,white_med_135_up,black_med_45_up,24,1.988847817,0.2488408,right,0.3362392,1,24,12,1,1,1,1,TRUE,FALSE,med_1_mask_high,0.75,-1,3,FALSE,7,,,,,,,,,,,,,,,,,,,165,3,3.2.2021,164.9658686
193,"['low', 2, 'low']",2,white,0.814437908,135,right,up,low,low,white_low_135-white_low_45-black_low_135-black_low_45,white_low_135_up,black_low_45_up,7,1.465868645,0.2449702,right,0.1985282,1,7,12,1,1,1,1,TRUE,FALSE,low_2_mask_low,0.75,-1,3,FALSE,6,,,,,,,,,,,,,,,,,,,165,3,3.2.2021,164.9658686
194,"['med', 2, 'low']",2,black,0.966131419,45,right,down,med,low,white_low_45-white_low_135-black_low_45-black_low_135,black_med_45_down,white_med_135_down,12,1.213115327,0.2488503,left,0.4123416,0,12,12,0,1,1,1,TRUE,FALSE,med_2_mask_low,0.75,-1,3,FALSE,5,,,,,,,,,,,,,,,,,,,165,3,3.2.2021,164.9658686
195,"['med', 1, 'low']",1,white,0.729600847,45,left,down,med,low,white_low_135-black_low_45-black_low_135-white_low_45,white_med_45_down,black_med_135_down,8,1.564422973,0.248551,left,1.124241,1,8,4,1,0,1,1,TRUE,FALSE,med_1_mask_low,0.75,-1,3,FALSE,0,,,,,,,,,,,,,,,,,,,165,3,3.2.2021,164.9658686
196,"['high', 2, 'low']",2,black,0.428549172,135,left,up,high,low,white_low_45-black_low_45-black_low_135-white_low_135,black_high_135_up,white_high_45_up,14,1.067611327,0.2485448,right,1.6252932,0,14,14,1,1,1,1,TRUE,FALSE,high_2_mask_low,0.75,-1,3,TRUE,8,,,,,,,,,,,,,,,,,,,165,3,3.2.2021,164.9658686
197,"['med', 2, 'high']",2,black,0.78276303,45,right,up,med,high,white_high_135-black_high_45-white_high_135-black_high_135,black_med_45_up,white_med_135_up,22,1.654488153,0.2485451,right,1.3244668,1,22,14,0,1,1,1,TRUE,FALSE,med_2_mask_high,0.75,-1,3,TRUE,10,,,,,,,,,,,,,,,,,,,165,3,3.2.2021,164.9658686
198,"['low', 3, 'low']",3,black,0.699948347,135,left,down,low,low,white_low_45-white_low_135-black_low_45-black_low_135,black_low_135_down,white_low_45_down,5,1.961243295,0.2485473,right,0.3766309,0,5,14,1,1,1,1,TRUE,FALSE,low_3_mask_low,0.75,-1,3,TRUE,9,,,,,,,,,,,,,,,,,,,165,3,3.2.2021,164.9658686
199,"['high', 3, 'low']",3,black,0.445809195,45,right,up,high,low,black_low_135-black_low_45-white_low_45-white_low_135,black_high_45_up,white_high_135_up,15,1.73253146,0.2485409,left,0.2724993,0,15,9,1,0,1,1,TRUE,FALSE,high_3_mask_low,0.75,-1,3,TRUE,4,,,,,,,,,,,,,,,,,,,165,3,3.2.2021,164.9658686
200,"['low', 2, 'high']",2,black,0.428381615,135,left,up,low,high,white_high_135-white_high_135-black_high_45-black_high_135,black_low_135_up,white_low_45_up,8,1.485967704,0.2467649,left,0.9993669,1,8,11,1,1,1,1,TRUE,FALSE,low_2_mask_high,0.75,-1,3,FALSE,5,,,,,,,,,,,,,,,,,,,165,3,3.2.2021,164.9658686
201,"['low', 2, 'high']",2,black,0.460825143,45,right,up,low,high,black_high_135-black_high_45-white_high_135-white_high_135,black_low_45_up,white_low_135_up,7,1.275891732,0.2467747,right,0.3431414,1,7,12,1,1,1,1,TRUE,FALSE,low_2_mask_high,0.75,-1,3,FALSE,5,,,,,,,,,,,,,,,,,,,165,3,3.2.2021,164.9658686
202,"['low', 3, 'high']",3,white,0.321454178,45,left,down,low,high,white_high_135-white_high_135-black_high_135-black_high_45,white_low_45_down,black_low_135_down,1,1.617251601,0.2503112,left,1.8341926,1,1,10,1,0,1,1,TRUE,FALSE,low_3_mask_high,0.75,-1,3,FALSE,3,,,,,,,,,,,,,,,,,,,165,3,3.2.2021,164.9658686
203,"['low', 2, 'low']",2,black,0.891100176,135,left,up,low,low,black_low_45-black_low_135-white_low_135-white_low_45,black_low_135_up,white_low_45_up,6,1.824489083,0.2485347,left,0.1656951,1,6,13,1,1,1,1,TRUE,FALSE,low_2_mask_low,0.75,-1,3,FALSE,6,,,,,,,,,,,,,,,,,,,165,3,3.2.2021,164.9658686
204,"['med', 1, 'low']",1,black,0.581871056,45,right,down,med,low,white_low_135-white_low_45-black_low_135-black_low_45,black_med_45_down,white_med_135_down,7,1.135323858,0.2485492,right,0.7534796,1,7,5,1,0,1,1,TRUE,FALSE,med_1_mask_low,0.75,-1,3,FALSE,0,,,,,,,,,,,,,,,,,,,165,3,3.2.2021,164.9658686
205,"['med', 2, 'high']",2,white,0.560612992,45,left,up,med,high,white_high_135-black_high_135-black_high_45-white_high_135,white_med_45_up,black_med_135_up,21,1.792461303,0.2485472,left,0.4834828,1,21,15,1,1,1,1,TRUE,FALSE,med_2_mask_high,0.75,-1,3,FALSE,10,,,,,,,,,,,,,,,,,,,165,3,3.2.2021,164.9658686
206,"['med', 3, 'high']",3,black,0.652294395,135,left,up,med,high,black_high_135-white_high_135-black_high_45-white_high_135,black_med_135_up,white_med_45_up,5,1.807310253,0.2485415,left,1.0467603,1,5,7,1,0,1,1,TRUE,FALSE,med_3_mask_high,0.75,-1,3,FALSE,1,,,,,,,,,,,,,,,,,,,165,3,3.2.2021,164.9658686
207,"['high', 2, 'low']",2,white,0.220704848,45,left,up,high,low,white_low_135-white_low_45-black_low_45-black_low_135,white_high_45_up,black_high_135_up,17,1.198869086,0.2485491,left,0.2491764,1,17,15,0,1,1,1,TRUE,FALSE,high_2_mask_low,0.75,-1,3,TRUE,9,,,,,,,,,,,,,,,,,,,165,3,3.2.2021,164.9658686
208,"['med', 2, 'high']",2,black,0.03643395,45,right,down,med,high,black_high_45-white_high_135-black_high_135-white_high_135,black_med_45_down,white_med_135_down,20,1.426297336,0.2485398,right,1.269132,1,20,16,1,1,1,1,TRUE,FALSE,med_2_mask_high,0.75,-1,3,FALSE,10,,,,,,,,,,,,,,,,,,,165,3,3.2.2021,164.9658686
209,"['low', 3, 'high']",3,black,0.993336142,45,right,up,low,high,white_high_135-white_high_135-black_high_135-black_high_45,black_low_45_up,white_low_135_up,1,1.405043421,0.2485511,right,1.7006386,1,1,11,1,0,1,1,TRUE,FALSE,low_3_mask_high,0.75,-1,3,FALSE,3,,,,,,,,,,,,,,,,,,,165,3,3.2.2021,164.9658686
210,"['low', 2, 'low']",2,white,0.578164948,135,right,down,low,low,black_low_135-white_low_135-white_low_45-black_low_45,white_low_135_down,black_low_45_down,5,1.632415012,0.2467312,right,0.2013339,1,5,14,1,1,1,1,TRUE,FALSE,low_2_mask_low,0.75,-1,3,FALSE,6,,,,,,,,,,,,,,,,,,,165,3,3.2.2021,164.9658686
211,"['high', 1, 'low']",1,white,0.158886551,135,right,down,high,low,white_low_135-white_low_45-black_low_45-black_low_135,white_high_135_down,black_high_45_down,21,1.498260098,0.2485246,right,1.3038157,1,21,11,1,0,1,1,TRUE,FALSE,high_1_mask_low,0.75,-1,3,FALSE,4,,,,,,,,,,,,,,,,,,,165,3,3.2.2021,164.9658686
212,"['low', 2, 'high']",2,white,0.481398116,135,right,down,low,high,black_high_135-white_high_135-white_high_135-black_high_45,white_low_135_down,black_low_45_down,6,1.333995721,0.2485463,right,0.3293338,1,6,13,1,1,1,1,TRUE,FALSE,low_2_mask_high,0.75,-1,3,FALSE,5,,,,,,,,,,,,,,,,,,,165,3,3.2.2021,164.9658686
213,"['high', 2, 'low']",2,black,0.748840617,45,right,up,high,low,white_low_135-black_low_45-black_low_135-white_low_45,black_high_45_up,white_high_135_up,16,1.163766377,0.2485421,left,1.2076105,0,16,16,1,1,1,1,TRUE,FALSE,high_2_mask_low,0.75,-1,3,TRUE,10,,,,,,,,,,,,,,,,,,,165,3,3.2.2021,164.9658686
214,"['med', 2, 'high']",2,white,0.567588537,135,right,up,med,high,white_high_135-white_high_135-black_high_135-black_high_45,white_med_135_up,black_med_45_up,19,1.771498001,0.2485516,right,0.1002831,1,19,17,1,1,1,1,TRUE,FALSE,med_2_mask_high,0.75,-1,3,FALSE,10,,,,,,,,,,,,,,,,,,,165,3,3.2.2021,164.9658686
215,"['med', 3, 'high']",3,black,0.928447097,135,left,up,med,high,white_high_135-black_high_135-black_high_45-white_high_135,black_med_135_up,white_med_45_up,4,1.520546495,0.2485403,right,0.945471,0,4,8,1,0,1,1,TRUE,FALSE,med_3_mask_high,0.75,-1,3,TRUE,2,,,,,,,,,,,,,,,,,,,165,3,3.2.2021,164.9658686
216,"['low', 2, 'low']",2,black,0.829197402,45,right,up,low,low,black_low_135-white_low_45-white_low_135-black_low_45,black_low_45_up,white_low_135_up,4,1.373053359,0.2485555,right,0.660813,1,4,15,1,1,1,1,TRUE,FALSE,low_2_mask_low,0.75,-1,3,FALSE,6,,,,,,,,,,,,,,,,,,,165,3,3.2.2021,164.9658686
217,"['med', 1, 'high']",1,black,0.049565102,135,left,down,med,high,white_high_135-white_high_135-black_high_45-black_high_135,black_med_135_down,white_med_45_down,23,1.53672649,0.2485507,left,0.7503925,1,23,13,1,1,1,1,TRUE,FALSE,med_1_mask_high,0.75,-1,3,FALSE,7,,,,,,,,,,,,,,,,,,,165,3,3.2.2021,164.9658686
218,"['high', 3, 'high']",3,white,0.13414117,135,right,up,high,high,black_high_45-white_high_135-white_high_135-black_high_135,white_high_135_up,black_high_45_up,20,1.239997821,0.2485509,right,0.2850622,1,20,12,0,0,1,1,TRUE,FALSE,high_3_mask_high,0.75,-1,3,TRUE,5,,,,,,,,,,,,,,,,,,,165,3,3.2.2021,164.9658686
219,"['high', 2, 'high']",2,white,0.040172504,135,right,up,high,high,white_high_135-black_high_135-white_high_135-black_high_45,white_high_135_up,black_high_45_up,13,1.911281883,0.2485438,right,0.4790628,1,13,11,1,0,1,1,TRUE,FALSE,high_2_mask_high,0.75,-1,3,FALSE,3,,,,,,,,,,,,,,,,,,,165,3,3.2.2021,164.9658686
220,"['med', 3, 'low']",3,white,0.697094978,45,left,up,med,low,white_low_45-white_low_135-black_low_45-black_low_135,white_med_45_up,black_med_135_up,14,1.603609523,0.248549,left,0.1205646,1,14,14,1,1,1,1,TRUE,FALSE,med_3_mask_low,0.75,-1,3,FALSE,10,,,,,,,,,,,,,,,,,,,165,3,3.2.2021,164.9658686
221,"['low', 1, 'low']",1,black,0.560805706,135,left,down,low,low,white_low_45-white_low_135-black_low_135-black_low_45,black_low_135_down,white_low_45_down,26,1.694202596,0.2502959,right,0.2977301,0,26,10,0,0,1,1,TRUE,FALSE,low_1_mask_low,0.75,-1,3,FALSE,4,,,,,,,,,,,,,,,,,,,165,3,3.2.2021,164.9658686
222,"['low', 3, 'high']",3,white,0.271397843,135,right,down,low,high,white_high_135-black_high_45-white_high_135-black_high_135,white_low_135_down,black_low_45_down,1,1.839115767,0.2467578,left,0.5905898,0,1,12,1,0,1,1,TRUE,FALSE,low_3_mask_high,0.75,-1,3,TRUE,4,,,,,,,,,,,,,,,,,,,165,3,3.2.2021,164.9658686
223,"['med', 3, 'low']",3,black,0.371403468,45,right,up,med,low,white_low_45-black_low_45-white_low_135-black_low_135,black_med_45_up,white_med_135_up,13,1.012093195,0.2485419,left,1.8676351,0,13,15,1,1,1,1,TRUE,FALSE,med_3_mask_low,0.75,-1,3,TRUE,11,,,,,,,,,,,,,,,,,,,165,3,3.2.2021,164.9658686
224,"['high', 3, 'low']",3,white,0.314272023,135,right,up,high,low,white_low_135-white_low_45-black_low_45-black_low_135,white_high_135_up,black_high_45_up,18,1.145634802,0.2470537,right,0.1309937,1,18,10,0,0,1,1,TRUE,FALSE,high_3_mask_low,0.75,-1,3,TRUE,5,,,,,,,,,,,,,,,,,,,165,3,3.2.2021,164.9658686
225,"['low', 3, 'low']",3,white,0.702131103,135,right,up,low,low,black_low_135-white_low_135-white_low_45-black_low_45,white_low_135_up,black_low_45_up,8,1.554219442,0.2485493,right,0.14799,1,8,15,0,1,1,1,TRUE,FALSE,low_3_mask_low,0.75,-1,3,TRUE,10,,,,,,,,,,,,,,,,,,,165,3,3.2.2021,164.9658686
226,"['high', 2, 'low']",2,white,0.473044774,135,right,up,high,low,black_low_135-white_low_135-white_low_45-black_low_45,white_high_135_up,black_high_45_up,19,1.969176226,0.2485502,right,0.1416381,1,19,17,0,1,1,1,TRUE,FALSE,high_2_mask_low,0.75,-1,3,TRUE,11,,,,,,,,,,,,,,,,,,,165,3,3.2.2021,164.9658686
227,"['low', 1, 'low']",1,white,0.349269743,135,right,up,low,low,white_low_45-black_low_45-white_low_135-black_low_135,white_low_135_up,black_low_45_up,29,1.439989185,0.2485464,right,0.1784773,1,29,11,0,0,1,1,TRUE,FALSE,low_1_mask_low,0.75,-1,3,TRUE,5,,,,,,,,,,,,,,,,,,,165,3,3.2.2021,164.9658686
228,"['med', 1, 'low']",1,white,0.72659742,45,left,down,med,low,black_low_135-white_low_135-white_low_45-black_low_45,white_med_45_down,black_med_135_down,6,1.999306177,0.2485429,left,4.6761465,1,6,6,1,0,1,1,TRUE,FALSE,med_1_mask_low,0.75,-1,3,FALSE,0,,,,,,,,,,,,,,,,,,,165,3,3.2.2021,164.9658686
229,"['med', 2, 'high']",2,white,0.377631355,45,left,up,med,high,black_high_45-white_high_135-black_high_135-white_high_135,white_med_45_up,black_med_135_up,18,1.646162996,0.2485484,left,0.1851594,1,18,18,1,1,1,1,TRUE,FALSE,med_2_mask_high,0.75,-1,3,FALSE,10,,,,,,,,,,,,,,,,,,,165,3,3.2.2021,164.9658686
230,"['low', 1, 'low']",1,black,0.519297927,45,right,down,low,low,white_low_45-black_low_45-white_low_135-black_low_135,black_low_45_down,white_low_135_down,28,1.57885161,0.2485389,left,0.581975,0,28,12,1,1,1,1,TRUE,FALSE,low_1_mask_low,0.75,-1,3,TRUE,6,,,,,,,,,,,,,,,,,,,165,3,3.2.2021,164.9658686
231,"['med', 1, 'high']",1,white,0.524040751,45,left,down,med,high,black_high_45-black_high_135-white_high_135-white_high_135,white_med_45_down,black_med_135_down,22,1.228842178,0.2467731,left,0.2048074,1,22,14,1,1,1,1,TRUE,FALSE,med_1_mask_high,0.75,-1,3,FALSE,7,,,,,,,,,,,,,,,,,,,165,3,3.2.2021,164.9658686
232,"['med', 1, 'low']",1,black,0.437604956,45,right,up,med,low,black_low_135-white_low_135-black_low_45-white_low_45,black_med_45_up,white_med_135_up,5,1.347942397,0.2485522,right,1.1703307,1,5,7,1,0,1,1,TRUE,FALSE,med_1_mask_low,0.75,-1,3,FALSE,0,,,,,,,,,,,,,,,,,,,165,3,3.2.2021,164.9658686
233,"['low', 1, 'high']",1,white,0.450133301,135,right,up,low,high,white_high_135-black_high_45-white_high_135-black_high_135,white_low_135_up,black_low_45_up,10,1.421192032,0.248543,right,0.4140502,1,10,10,1,0,1,1,TRUE,FALSE,low_1_mask_high,0.75,-1,3,FALSE,4,,,,,,,,,,,,,,,,,,,165,3,3.2.2021,164.9658686
234,"['med', 3, 'high']",3,white,0.730010055,45,left,down,med,high,white_high_135-white_high_135-black_high_135-black_high_45,white_med_45_down,black_med_135_down,7,1.497831876,0.2485565,left,0.8527463,1,7,9,0,0,1,1,TRUE,FALSE,med_3_mask_high,0.75,-1,3,TRUE,3,,,,,,,,,,,,,,,,,,,165,3,3.2.2021,164.9658686
235,"['low', 1, 'high']",1,white,0.298774202,45,left,up,low,high,white_high_135-black_high_135-black_high_45-white_high_135,white_low_45_up,black_low_135_up,9,1.383815218,0.2467308,left,0.2828096,1,9,11,1,0,1,1,TRUE,FALSE,low_1_mask_high,0.75,-1,3,FALSE,4,,,,,,,,,,,,,,,,,,,165,3,3.2.2021,164.9658686
236,"['high', 1, 'low']",1,white,0.139654235,45,left,up,high,low,white_low_135-white_low_45-black_low_45-black_low_135,white_high_45_up,black_high_135_up,20,1.461884364,0.2485523,left,0.1560538,1,20,12,1,0,1,1,TRUE,FALSE,high_1_mask_low,0.75,-1,3,FALSE,4,,,,,,,,,,,,,,,,,,,165,3,3.2.2021,164.9658686
237,"['low', 2, 'low']",2,white,0.410034154,135,right,up,low,low,white_low_45-black_low_45-white_low_135-black_low_135,white_low_135_up,black_low_45_up,3,1.382455651,0.2485452,left,1.6433309,0,3,16,1,1,1,1,TRUE,FALSE,low_2_mask_low,0.75,-1,3,TRUE,7,,,,,,,,,,,,,,,,,,,165,3,3.2.2021,164.9658686
238,"['high', 3, 'low']",3,white,0.464080288,45,left,down,high,low,black_low_135-black_low_45-white_low_135-white_low_45,white_high_45_down,black_high_135_down,17,1.737330738,0.2485486,right,0.3595209,0,17,11,1,1,1,1,TRUE,FALSE,high_3_mask_low,0.75,-1,3,TRUE,6,,,,,,,,,,,,,,,,,,,165,3,3.2.2021,164.9658686
239,"['high', 3, 'high']",3,white,0.900698662,135,right,up,high,high,white_high_135-white_high_135-black_high_135-black_high_45,white_high_135_up,black_high_45_up,19,1.237282694,0.2488575,right,0.1223132,1,19,13,1,1,1,1,TRUE,FALSE,high_3_mask_high,0.75,-1,3,FALSE,5,,,,,,,,,,,,,,,,,,,165,3,3.2.2021,164.9658686
240,"['high', 3, 'low']",3,black,0.931303264,135,left,down,high,low,black_low_135-black_low_45-white_low_135-white_low_45,black_high_135_down,white_high_45_down,20,1.306998172,0.2485484,right,0.5524334,0,20,12,0,1,1,1,TRUE,FALSE,high_3_mask_low,0.75,-1,3,FALSE,6,,,,,,,,,,,,,,,,,,,165,3,3.2.2021,164.9658686
241,"['low', 2, 'high']",2,white,0.408003699,135,right,up,low,high,white_high_135-black_high_45-black_high_135-white_high_135,white_low_135_up,black_low_45_up,5,1.781557912,0.2485378,right,0.2147079,1,5,14,1,1,1,1,TRUE,FALSE,low_2_mask_high,0.75,-1,3,FALSE,5,,,,,,,,,,,,,,,,,,,165,3,3.2.2021,164.9658686
242,"['high', 3, 'high']",3,black,0.757632643,45,right,down,high,high,white_high_135-black_high_45-white_high_135-black_high_135,black_high_45_down,white_high_135_down,18,1.84258854,0.248555,right,0.9348512,1,18,14,1,1,1,1,TRUE,FALSE,high_3_mask_high,0.75,-1,3,FALSE,5,,,,,,,,,,,,,,,,,,,165,3,3.2.2021,164.9658686
243,"['med', 1, 'low']",1,black,0.24717519,45,right,up,med,low,black_low_45-white_low_45-black_low_135-white_low_135,black_med_45_up,white_med_135_up,4,1.098885077,0.2485424,left,1.6415004,0,4,8,1,0,1,1,TRUE,FALSE,med_1_mask_low,0.75,-1,3,TRUE,1,,,,,,,,,,,,,,,,,,,165,3,3.2.2021,164.9658686
244,"['high', 1, 'low']",1,white,0.790540039,45,left,up,high,low,black_low_45-black_low_135-white_low_135-white_low_45,white_high_45_up,black_high_135_up,19,1.707025275,0.2485502,left,0.1160459,1,19,13,1,0,1,1,TRUE,FALSE,high_1_mask_low,0.75,-1,3,FALSE,4,,,,,,,,,,,,,,,,,,,165,3,3.2.2021,164.9658686
245,"['med', 3, 'low']",3,black,0.809767068,45,right,down,med,low,black_low_135-black_low_45-white_low_45-white_low_135,black_med_45_down,white_med_135_down,16,1.515032409,0.2485507,left,3.0836067,0,16,16,0,1,1,1,TRUE,FALSE,med_3_mask_low,0.75,-1,3,FALSE,11,,,,,,,,,,,,,,,,,,,165,3,3.2.2021,164.9658686
246,"['high', 3, 'low']",3,white,0.244462869,135,right,down,high,low,white_low_45-white_low_135-black_low_135-black_low_45,white_high_135_down,black_high_45_down,23,1.446288426,0.2488608,right,0.0449866,1,23,13,0,1,1,1,TRUE,FALSE,high_3_mask_low,0.75,-1,3,TRUE,7,,,,,,,,,,,,,,,,,,,165,3,3.2.2021,164.9658686
247,"['low', 1, 'low']",1,black,0.247819592,45,right,down,low,low,black_low_135-white_low_135-white_low_45-black_low_45,black_low_45_down,white_low_135_down,31,1.885222762,0.246753,right,0.5164966,1,31,13,0,1,1,1,TRUE,FALSE,low_1_mask_low,0.75,-1,3,TRUE,7,,,,,,,,,,,,,,,,,,,165,3,3.2.2021,164.9658686
248,"['high', 3, 'high']",3,white,0.07580624,135,right,down,high,high,white_high_135-black_high_45-white_high_135-black_high_135,white_high_135_down,black_high_45_down,17,1.98353477,0.2485446,right,0.1984006,1,17,15,1,1,1,1,TRUE,FALSE,high_3_mask_high,0.75,-1,3,FALSE,5,,,,,,,,,,,,,,,,,,,165,3,3.2.2021,164.9658686
249,"['med', 1, 'high']",1,black,0.092751341,45,right,down,med,high,white_high_135-black_high_135-white_high_135-black_high_45,black_med_45_down,white_med_135_down,21,1.97212543,0.2488404,left,0.3701829,0,21,15,1,1,1,1,TRUE,FALSE,med_1_mask_high,0.75,-1,3,TRUE,8,,,,,,,,,,,,,,,,,,,165,3,3.2.2021,164.9658686
250,"['low', 1, 'low']",1,black,0.198864499,135,left,up,low,low,black_low_45-white_low_45-white_low_135-black_low_135,black_low_135_up,white_low_45_up,30,1.965563064,0.2485558,right,0.1229782,0,30,14,1,1,1,1,TRUE,FALSE,low_1_mask_low,0.75,-1,3,TRUE,8,,,,,,,,,,,,,,,,,,,165,3,3.2.2021,164.9658686
251,"['high', 2, 'low']",2,black,0.002321613,45,right,up,high,low,white_low_135-black_low_45-black_low_135-white_low_45,black_high_45_up,white_high_135_up,18,1.706511502,0.248557,left,0.7027763,0,18,18,1,1,1,1,TRUE,FALSE,high_2_mask_low,0.75,-1,3,TRUE,12,,,,,,,,,,,,,,,,,,,165,3,3.2.2021,164.9658686
252,"['low', 2, 'high']",2,black,0.209614639,135,left,down,low,high,black_high_45-white_high_135-black_high_135-white_high_135,black_low_135_down,white_low_45_down,4,1.65656375,0.2485449,right,0.0795066,0,4,15,1,1,1,1,TRUE,FALSE,low_2_mask_high,0.75,-1,3,TRUE,6,,,,,,,,,,,,,,,,,,,165,3,3.2.2021,164.9658686
253,"['med', 2, 'high']",2,black,0.693927526,45,right,up,med,high,black_high_45-white_high_135-white_high_135-black_high_135,black_med_45_up,white_med_135_up,17,1.640193126,0.2485508,left,0.2541835,0,17,19,1,1,1,1,TRUE,FALSE,med_2_mask_high,0.75,-1,3,TRUE,11,,,,,,,,,,,,,,,,,,,165,3,3.2.2021,164.9658686
254,"['high', 2, 'high']",2,black,0.585960474,135,left,down,high,high,white_high_135-black_high_135-black_high_45-white_high_135,black_high_135_down,white_high_45_down,12,1.015751724,0.2485399,left,0.3449009,1,12,12,1,0,1,1,TRUE,FALSE,high_2_mask_high,0.75,-1,3,FALSE,3,,,,,,,,,,,,,,,,,,,165,3,3.2.2021,164.9658686
255,"['med', 3, 'low']",3,white,0.439485124,45,left,up,med,low,white_low_45-black_low_135-white_low_135-black_low_45,white_med_45_up,black_med_135_up,19,1.052419083,0.2485506,left,0.0073307,1,19,17,0,1,1,1,TRUE,FALSE,med_3_mask_low,0.75,-1,3,TRUE,12,,,,,,,,,,,,,,,,,,,165,3,3.2.2021,164.9658686
256,"['low', 3, 'high']",3,black,0.041416349,45,right,up,low,high,white_high_135-black_high_135-white_high_135-black_high_45,black_low_45_up,white_low_135_up,4,1.365669161,0.2467778,right,0.0896162,1,4,13,0,0,1,1,TRUE,FALSE,low_3_mask_high,0.75,-1,3,TRUE,5,,,,,,,,,,,,,,,,,,,165,3,3.2.2021,164.9658686
257,"['high', 1, 'low']",1,black,0.694211243,45,right,up,high,low,white_low_135-white_low_45-black_low_135-black_low_45,black_high_45_up,white_high_135_up,18,1.141022014,0.2485494,left,0.1597086,0,18,14,1,0,1,1,TRUE,FALSE,high_1_mask_low,0.75,-1,3,TRUE,5,,,,,,,,,,,,,,,,,,,165,3,3.2.2021,164.9658686
258,"['low', 3, 'high']",3,black,0.145103977,45,right,up,low,high,black_high_135-black_high_45-white_high_135-white_high_135,black_low_45_up,white_low_135_up,3,1.468015121,0.2485474,right,0.1672026,1,3,14,1,1,1,1,TRUE,FALSE,low_3_mask_high,0.75,-1,3,FALSE,5,,,,,,,,,,,,,,,,,,,165,3,3.2.2021,164.9658686
259,"['low', 3, 'low']",3,white,0.447794491,135,right,up,low,low,black_low_45-white_low_45-white_low_135-black_low_135,white_low_135_up,black_low_45_up,7,1.433695164,0.2485401,right,0.9043373,1,7,16,1,1,1,1,TRUE,FALSE,low_3_mask_low,0.75,-1,3,FALSE,10,,,,,,,,,,,,,,,,,,,165,3,3.2.2021,164.9658686
260,"['high', 2, 'high']",2,black,0.644525853,135,left,up,high,high,black_high_45-white_high_135-white_high_135-black_high_135,black_high_135_up,white_high_45_up,11,1.704191667,0.2485448,left,1.0594134,1,11,13,1,0,1,1,TRUE,FALSE,high_2_mask_high,0.75,-1,3,FALSE,3,,,,,,,,,,,,,,,,,,,165,3,3.2.2021,164.9658686
261,"['low', 1, 'low']",1,black,0.601983874,45,right,up,low,low,white_low_45-black_low_135-white_low_135-black_low_45,black_low_45_up,white_low_135_up,33,1.872875472,0.2482501,right,0.206718,1,33,15,0,1,1,1,TRUE,FALSE,low_1_mask_low,0.75,-1,3,TRUE,9,,,,,,,,,,,,,,,,,,,165,3,3.2.2021,164.9658686
262,"['high', 1, 'high']",1,black,0.079573207,45,right,down,high,high,black_high_45-white_high_135-black_high_135-white_high_135,black_high_45_down,white_high_135_down,11,1.422777788,0.2485428,right,0.6401584,1,11,5,1,0,1,1,TRUE,FALSE,high_1_mask_high,0.75,-1,3,FALSE,1,,,,,,,,,,,,,,,,,,,165,3,3.2.2021,164.9658686
263,"['high', 2, 'high']",2,white,0.946703279,45,left,up,high,high,white_high_135-black_high_45-white_high_135-black_high_135,white_high_45_up,black_high_135_up,10,1.73556696,0.2485512,left,0.0914712,1,10,14,1,0,1,1,TRUE,FALSE,high_2_mask_high,0.75,-1,3,FALSE,3,,,,,,,,,,,,,,,,,,,165,3,3.2.2021,164.9658686
264,"['high', 2, 'low']",2,black,0.253684206,135,left,up,high,low,white_low_45-black_low_135-black_low_45-white_low_135,black_high_135_up,white_high_45_up,21,1.297244654,0.2467702,left,0.6874563,1,21,19,0,1,1,1,TRUE,FALSE,high_2_mask_low,0.75,-1,3,TRUE,13,,,,,,,,,,,,,,,,,,,165,3,3.2.2021,164.9658686
265,"['med', 3, 'low']",3,black,0.429889093,45,right,down,med,low,white_low_135-white_low_45-black_low_135-black_low_45,black_med_45_down,white_med_135_down,18,1.652614778,0.2485428,right,0.9802573,1,18,18,1,1,1,1,TRUE,FALSE,med_3_mask_low,0.75,-1,3,FALSE,12,,,,,,,,,,,,,,,,,,,165,3,3.2.2021,164.9658686
266,"['med', 1, 'high']",1,black,0.880535893,135,left,down,med,high,black_high_135-black_high_45-white_high_135-white_high_135,black_med_135_down,white_med_45_down,24,1.00713589,0.2485433,right,0.809825,0,24,16,0,1,1,1,TRUE,FALSE,med_1_mask_high,0.75,-1,3,FALSE,8,,,,,,,,,,,,,,,,,,,165,3,3.2.2021,164.9658686
267,"['med', 1, 'low']",1,white,0.765925156,45,left,up,med,low,white_low_45-black_low_135-black_low_45-white_low_135,white_med_45_up,black_med_135_up,7,1.906884023,0.2467111,left,1.3804151,1,7,9,0,0,1,1,TRUE,FALSE,med_1_mask_low,0.75,-1,3,TRUE,2,,,,,,,,,,,,,,,,,,,165,3,3.2.2021,164.9658686
268,"['low', 2, 'high']",2,white,0.609684322,45,left,up,low,high,black_high_45-black_high_135-white_high_135-white_high_135,white_low_45_up,black_low_135_up,7,1.979462981,0.2485464,left,0.1828808,1,7,16,0,1,1,1,TRUE,FALSE,low_2_mask_high,0.75,-1,3,TRUE,7,,,,,,,,,,,,,,,,,,,165,3,3.2.2021,164.9658686
269,"['high', 3, 'low']",3,black,0.354783641,45,right,up,high,low,white_low_135-black_low_45-black_low_135-white_low_45,black_high_45_up,white_high_135_up,22,1.079285589,0.2485505,right,0.6342402,1,22,14,1,1,1,1,TRUE,FALSE,high_3_mask_low,0.75,-1,3,FALSE,7,,,,,,,,,,,,,,,,,,,165,3,3.2.2021,164.9658686
270,"['high', 3, 'high']",3,black,0.673231068,135,left,down,high,high,black_high_135-black_high_45-white_high_135-white_high_135,black_high_135_down,white_high_45_down,16,1.808089296,0.2485337,right,1.9379997,0,16,16,1,1,1,1,TRUE,FALSE,high_3_mask_high,0.75,-1,3,TRUE,6,,,,,,,,,,,,,,,,,,,165,3,3.2.2021,164.9658686
271,"['med', 2, 'low']",2,black,0.171753226,135,left,down,med,low,white_low_45-black_low_45-white_low_135-black_low_135,black_med_135_down,white_med_45_down,15,1.877179275,0.2485418,left,0.4729507,1,15,13,0,1,1,1,TRUE,FALSE,med_2_mask_low,0.75,-1,3,TRUE,6,,,,,,,,,,,,,,,,,,,165,3,3.2.2021,164.9658686
272,"['high', 1, 'low']",1,black,0.997867983,135,left,down,high,low,white_low_135-black_low_135-white_low_45-black_low_45,black_high_135_down,white_high_45_down,21,1.650470259,0.2485569,left,0.4208882,1,21,15,0,1,1,1,TRUE,FALSE,high_1_mask_low,0.75,-1,3,TRUE,6,,,,,,,,,,,,,,,,,,,165,3,3.2.2021,164.9658686
273,"['med', 1, 'high']",1,white,0.238104371,45,left,up,med,high,white_high_135-white_high_135-black_high_45-black_high_135,white_med_45_up,black_med_135_up,27,1.660150329,0.2485507,left,1.1598552,1,27,17,0,1,1,1,TRUE,FALSE,med_1_mask_high,0.75,-1,3,TRUE,9,,,,,,,,,,,,,,,,,,,165,3,3.2.2021,164.9658686
274,"['high', 3, 'high']",3,white,0.213913676,135,right,down,high,high,white_high_135-white_high_135-black_high_135-black_high_45,white_high_135_down,black_high_45_down,19,1.084628854,0.2488589,right,0.8545818,1,19,17,0,1,1,1,TRUE,FALSE,high_3_mask_high,0.75,-1,3,TRUE,7,,,,,,,,,,,,,,,,,,,165,3,3.2.2021,164.9658686
275,"['med', 2, 'low']",2,white,0.355906079,45,left,down,med,low,black_low_45-white_low_45-black_low_135-white_low_135,white_med_45_down,black_med_135_down,14,1.675001139,0.2485458,right,0.9596066,0,14,14,1,1,1,1,TRUE,FALSE,med_2_mask_low,0.75,-1,3,TRUE,7,,,,,,,,,,,,,,,,,,,165,3,3.2.2021,164.9658686
276,"['high', 2, 'high']",2,black,0.204320554,135,left,up,high,high,black_high_45-white_high_135-black_high_135-white_high_135,black_high_135_up,white_high_45_up,9,1.694627182,0.2485466,right,0.8331215,0,9,15,1,0,1,1,TRUE,FALSE,high_2_mask_high,0.75,-1,3,TRUE,4,,,,,,,,,,,,,,,,,,,165,3,3.2.2021,164.9658686
277,"['low', 1, 'low']",1,white,0.03055654,135,right,up,low,low,white_low_135-black_low_135-white_low_45-black_low_45,white_low_135_up,black_low_45_up,32,1.125020962,0.2485451,right,0.1128978,1,32,16,1,1,1,1,TRUE,FALSE,low_1_mask_low,0.75,-1,3,FALSE,9,,,,,,,,,,,,,,,,,,,165,3,3.2.2021,164.9658686
278,"['low', 2, 'low']",2,white,0.740054057,135,right,up,low,low,white_low_45-white_low_135-black_low_45-black_low_135,white_low_135_up,black_low_45_up,6,1.563554006,0.250292,right,1.1542563,1,6,17,0,1,1,1,TRUE,FALSE,low_2_mask_low,0.75,-1,3,TRUE,8,,,,,,,,,,,,,,,,,,,165,3,3.2.2021,164.9658686
279,"['low', 2, 'high']",2,black,0.273437716,135,left,up,low,high,black_high_45-white_high_135-white_high_135-black_high_135,black_low_135_up,white_low_45_up,6,1.999513127,0.2488408,left,0.0853353,1,6,17,1,1,1,1,TRUE,FALSE,low_2_mask_high,0.75,-1,3,FALSE,7,,,,,,,,,,,,,,,,,,,165,3,3.2.2021,164.9658686
280,"['low', 2, 'low']",2,black,0.224478238,135,left,up,low,low,black_low_45-white_low_45-black_low_135-white_low_135,black_low_135_up,white_low_45_up,5,1.392331803,0.2467295,right,0.7969834,0,5,18,1,1,1,1,TRUE,FALSE,low_2_mask_low,0.75,-1,3,TRUE,9,,,,,,,,,,,,,,,,,,,165,3,3.2.2021,164.9658686
281,"['high', 1, 'high']",1,black,0.656679571,135,left,down,high,high,black_high_45-white_high_135-white_high_135-black_high_135,black_high_135_down,white_high_45_down,10,1.273557909,0.2485492,right,0.2205709,0,10,6,1,0,1,1,TRUE,FALSE,high_1_mask_high,0.75,-1,3,TRUE,2,,,,,,,,,,,,,,,,,,,165,3,3.2.2021,164.9658686
282,"['low', 2, 'high']",2,black,0.060032361,135,left,up,low,high,white_high_135-black_high_135-white_high_135-black_high_45,black_low_135_up,white_low_45_up,5,1.650875686,0.2485674,left,0.2255614,1,5,18,1,1,1,1,TRUE,FALSE,low_2_mask_high,0.75,-1,3,FALSE,7,,,,,,,,,,,,,,,,,,,165,3,3.2.2021,164.9658686
283,"['low', 3, 'high']",3,white,0.373773208,135,right,down,low,high,white_high_135-white_high_135-black_high_135-black_high_45,white_low_135_down,black_low_45_down,2,1.170655369,0.2485449,right,0.3646113,1,2,15,1,1,1,1,TRUE,FALSE,low_3_mask_high,0.75,-1,3,FALSE,5,,,,,,,,,,,,,,,,,,,165,3,3.2.2021,164.9658686
284,"['high', 1, 'high']",1,white,0.873731661,45,left,down,high,high,white_high_135-white_high_135-black_high_135-black_high_45,white_high_45_down,black_high_135_down,13,1.419084066,0.2485431,left,0.3488657,1,13,7,0,0,1,1,TRUE,FALSE,high_1_mask_high,0.75,-1,3,TRUE,3,,,,,,,,,,,,,,,,,,,165,3,3.2.2021,164.9658686
285,"['low', 1, 'high']",1,black,0.546769487,45,right,up,low,high,white_high_135-white_high_135-black_high_45-black_high_135,black_low_45_up,white_low_135_up,8,1.03750212,0.2485529,left,0.4472588,0,8,12,1,0,1,1,TRUE,FALSE,low_1_mask_high,0.75,-1,3,TRUE,5,,,,,,,,,,,,,,,,,,,165,3,3.2.2021,164.9658686
286,"['low', 1, 'high']",1,black,0.665522499,135,left,up,low,high,white_high_135-black_high_45-white_high_135-black_high_135,black_low_135_up,white_low_45_up,11,1.975299333,0.2485457,left,1.8229523,1,11,13,0,1,1,1,TRUE,FALSE,low_1_mask_high,0.75,-1,3,TRUE,6,,,,,,,,,,,,,,,,,,,165,3,3.2.2021,164.9658686
287,"['high', 1, 'low']",1,white,0.296220361,45,left,up,high,low,black_low_45-white_low_45-white_low_135-black_low_135,white_high_45_up,black_high_135_up,20,1.890730052,0.2485396,left,0.1441394,1,20,16,1,1,1,1,TRUE,FALSE,high_1_mask_low,0.75,-1,3,FALSE,6,,,,,,,,,,,,,,,,,,,165,3,3.2.2021,164.9658686
288,"['low', 1, 'low']",1,white,0.23744213,45,left,up,low,low,black_low_45-white_low_135-black_low_135-white_low_45,white_low_45_up,black_low_135_up,31,1.332452469,0.2485365,left,0.0723281,1,31,17,1,1,1,1,TRUE,FALSE,low_1_mask_low,0.75,-1,3,FALSE,9,,,,,,,,,,,,,,,,,,,165,3,3.2.2021,164.9658686
289,"['med', 1, 'low']",1,black,0.259439728,45,right,up,med,low,black_low_135-black_low_45-white_low_135-white_low_45,black_med_45_up,white_med_135_up,6,1.461607594,0.2467035,left,1.2166071,0,6,10,1,0,1,1,TRUE,FALSE,med_1_mask_low,0.75,-1,3,TRUE,3,,,,,,,,,,,,,,,,,,,165,3,3.2.2021,164.9658686
290,"['high', 1, 'low']",1,black,0.915746841,135,left,up,high,low,black_low_135-white_low_45-black_low_45-white_low_135,black_high_135_up,white_high_45_up,19,1.018380197,0.2502862,left,0.4306013,1,19,17,1,1,1,1,TRUE,FALSE,high_1_mask_low,0.75,-1,3,FALSE,6,,,,,,,,,,,,,,,,,,,165,3,3.2.2021,164.9658686
291,"['low', 1, 'low']",1,black,0.083612581,135,left,down,low,low,white_low_135-black_low_135-white_low_45-black_low_45,black_low_135_down,white_low_45_down,30,1.840470541,0.2485388,left,0.4890629,1,30,18,1,1,1,1,TRUE,FALSE,low_1_mask_low,0.75,-1,3,FALSE,9,,,,,,,,,,,,,,,,,,,165,3,3.2.2021,164.9658686
292,"['high', 3, 'high']",3,white,0.464874191,135,right,down,high,high,black_high_135-black_high_45-white_high_135-white_high_135,white_high_135_down,black_high_45_down,18,1.78141101,0.2485469,right,1.6081899,1,18,18,1,1,1,1,TRUE,FALSE,high_3_mask_high,0.75,-1,3,FALSE,7,,,,,,,,,,,,,,,,,,,165,3,3.2.2021,164.9658686
293,"['low', 3, 'low']",3,black,0.902332553,135,left,down,low,low,black_low_135-white_low_45-white_low_135-black_low_45,black_low_135_down,white_low_45_down,6,1.891603897,0.2485441,right,0.2058393,0,6,17,1,1,1,1,TRUE,FALSE,low_3_mask_low,0.75,-1,3,TRUE,11,,,,,,,,,,,,,,,,,,,165,3,3.2.2021,164.9658686
294,"['low', 3, 'low']",3,white,0.542156035,135,right,down,low,low,black_low_135-white_low_135-black_low_45-white_low_45,white_low_135_down,black_low_45_down,9,1.179409811,0.2485415,right,0.1824497,1,9,18,0,1,1,1,TRUE,FALSE,low_3_mask_low,0.75,-1,3,TRUE,12,,,,,,,,,,,,,,,,,,,165,3,3.2.2021,164.9658686
295,"['high', 2, 'high']",2,white,0.129793898,45,left,up,high,high,black_high_135-black_high_45-white_high_135-white_high_135,white_high_45_up,black_high_135_up,12,1.859517401,0.248557,right,1.4870833,0,12,16,0,0,1,1,TRUE,FALSE,high_2_mask_high,0.75,-1,3,FALSE,4,,,,,,,,,,,,,,,,,,,165,3,3.2.2021,164.9658686
296,"['med', 1, 'high']",1,white,0.529170388,135,right,up,med,high,black_high_45-black_high_135-white_high_135-white_high_135,white_med_135_up,black_med_45_up,26,1.698081637,0.2485446,right,0.0536325,1,26,18,1,1,1,1,TRUE,FALSE,med_1_mask_high,0.75,-1,3,FALSE,9,,,,,,,,,,,,,,,,,,,165,3,3.2.2021,164.9658686
297,"['med', 1, 'low']",1,black,0.677017318,135,left,up,med,low,white_low_135-black_low_45-white_low_45-black_low_135,black_med_135_up,white_med_45_up,9,1.595760411,0.2485277,right,0.3744469,0,9,11,0,0,1,1,TRUE,FALSE,med_1_mask_low,0.75,-1,3,FALSE,3,,,,,,,,,,,,,,,,,,,165,3,3.2.2021,164.9658686
298,"['high', 3, 'high']",3,black,0.848934755,45,right,up,high,high,white_high_135-black_high_135-white_high_135-black_high_45,black_high_45_up,white_high_135_up,17,1.415076191,0.248552,left,1.652399,0,17,19,1,1,1,1,TRUE,FALSE,high_3_mask_high,0.75,-1,3,TRUE,8,,,,,,,,,,,,,,,,,,,165,3,3.2.2021,164.9658686
299,"['high', 1, 'low']",1,white,0.8493939,135,right,up,high,low,white_low_135-white_low_45-black_low_135-black_low_45,white_high_135_up,black_high_45_up,18,1.72080313,0.2485404,right,0.2747884,1,18,18,1,1,1,1,TRUE,FALSE,high_1_mask_low,0.75,-1,3,FALSE,6,,,,,,,,,,,,,,,,,,,165,3,3.2.2021,164.9658686
300,"['high', 1, 'low']",1,white,0.600655565,45,left,down,high,low,black_low_45-white_low_45-white_low_135-black_low_135,white_high_45_down,black_high_135_down,17,1.95692673,0.2467203,right,0.8652413,0,17,19,1,1,1,1,TRUE,FALSE,high_1_mask_low,0.75,-1,3,TRUE,7,,,,,,,,,,,,,,,,,,,165,3,3.2.2021,164.9658686
301,"['med', 1, 'high']",1,white,0.321417412,135,right,up,med,high,black_high_135-white_high_135-white_high_135-black_high_45,white_med_135_up,black_med_45_up,25,1.883443257,0.2467739,right,0.054065,1,25,19,1,1,1,1,TRUE,FALSE,med_1_mask_high,0.75,-1,3,FALSE,9,,,,,,,,,,,,,,,,,,,165,3,3.2.2021,164.9658686
302,"['high', 2, 'low']",2,black,0.255300076,135,left,up,high,low,black_low_45-white_low_45-white_low_135-black_low_135,black_high_135_up,white_high_45_up,20,1.515260714,0.2470669,left,0.368319,1,20,20,1,1,1,1,TRUE,FALSE,high_2_mask_low,0.75,-1,3,FALSE,13,,,,,,,,,,,,,,,,,,,165,3,3.2.2021,164.9658686
303,"['med', 3, 'high']",3,white,0.730318555,135,right,up,med,high,white_high_135-white_high_135-black_high_45-black_high_135,white_med_135_up,black_med_45_up,6,1.546188941,0.246778,right,0.3234958,1,6,10,1,0,1,1,TRUE,FALSE,med_3_mask_high,0.75,-1,3,FALSE,3,,,,,,,,,,,,,,,,,,,165,3,3.2.2021,164.9658686
304,"['low', 3, 'high']",3,black,0.016346381,45,right,up,low,high,black_high_135-white_high_135-white_high_135-black_high_45,black_low_45_up,white_low_135_up,1,1.813579577,0.2503123,left,1.4973289,0,1,16,1,1,1,1,TRUE,FALSE,low_3_mask_high,0.75,-1,3,TRUE,6,,,,,,,,,,,,,,,,,,,165,3,3.2.2021,164.9658686
305,"['med', 1, 'low']",1,white,0.354330537,45,left,down,med,low,white_low_45-black_low_45-white_low_135-black_low_135,white_med_45_down,black_med_135_down,12,1.356552898,0.2488461,left,0.7703777,1,12,12,0,0,1,1,TRUE,FALSE,med_1_mask_low,0.75,-1,3,TRUE,4,,,,,,,,,,,,,,,,,,,165,3,3.2.2021,164.9658686
306,"['high', 3, 'high']",3,black,0.44776827,45,right,down,high,high,black_high_135-white_high_135-white_high_135-black_high_45,black_high_45_down,white_high_135_down,20,1.900850488,0.2485409,right,0.4697278,1,20,20,0,1,1,1,TRUE,FALSE,high_3_mask_high,0.75,-1,3,TRUE,9,,,,,,,,,,,,,,,,,,,165,3,3.2.2021,164.9658686
307,"['med', 1, 'high']",1,black,0.796755503,135,left,up,med,high,white_high_135-black_high_45-black_high_135-white_high_135,black_med_135_up,white_med_45_up,24,1.878549695,0.2485489,right,0.7456121,0,24,20,1,1,1,1,TRUE,FALSE,med_1_mask_high,0.75,-1,3,TRUE,10,,,,,,,,,,,,,,,,,,,165,3,3.2.2021,164.9658686
308,"['med', 1, 'low']",1,white,0.029131355,45,left,down,med,low,black_low_45-white_low_45-black_low_135-white_low_135,white_med_45_down,black_med_135_down,11,1.26317449,0.2467242,left,0.4606117,1,11,13,1,0,1,1,TRUE,FALSE,med_1_mask_low,0.75,-1,3,FALSE,4,,,,,,,,,,,,,,,,,,,165,3,3.2.2021,164.9658686
309,"['med', 2, 'low']",2,black,0.406681758,45,right,up,med,low,black_low_45-white_low_135-white_low_45-black_low_135,black_med_45_up,white_med_135_up,17,1.840942786,0.2503155,right,0.3640355,1,17,15,0,1,1,1,TRUE,FALSE,med_2_mask_low,0.75,-1,3,TRUE,8,,,,,,,,,,,,,,,,,,,165,3,3.2.2021,164.9658686
310,"['low', 1, 'low']",1,white,0.177213932,135,right,down,low,low,white_low_135-black_low_135-black_low_45-white_low_45,white_low_135_down,black_low_45_down,29,1.220005328,0.2502981,right,0.0734843,1,29,19,1,1,1,1,TRUE,FALSE,low_1_mask_low,0.75,-1,3,FALSE,9,,,,,,,,,,,,,,,,,,,165,3,3.2.2021,164.9658686
311,"['low', 1, 'low']",1,white,0.341808244,45,left,up,low,low,black_low_135-black_low_45-white_low_45-white_low_135,white_low_45_up,black_low_135_up,28,1.949893076,0.2467778,left,0.0784731,1,28,20,1,1,1,1,TRUE,FALSE,low_1_mask_low,0.75,-1,3,FALSE,9,,,,,,,,,,,,,,,,,,,165,3,3.2.2021,164.9658686
312,"['low', 3, 'low']",3,black,0.102471273,135,left,up,low,low,black_low_135-white_low_45-white_low_135-black_low_45,black_low_135_up,white_low_45_up,8,1.284984077,0.2485517,left,0.1001358,1,8,19,1,1,1,1,TRUE,FALSE,low_3_mask_low,0.75,-1,3,FALSE,12,,,,,,,,,,,,,,,,,,,165,3,3.2.2021,164.9658686
313,"['low', 1, 'high']",1,black,0.870831888,135,left,up,low,high,white_high_135-black_high_135-black_high_45-white_high_135,black_low_135_up,white_low_45_up,10,1.904224381,0.2485432,left,0.5069382,1,10,14,1,1,1,1,TRUE,FALSE,low_1_mask_high,0.75,-1,3,FALSE,6,,,,,,,,,,,,,,,,,,,165,3,3.2.2021,164.9658686
314,"['med', 2, 'low']",2,black,0.480101774,135,left,down,med,low,white_low_135-black_low_135-white_low_45-black_low_45,black_med_135_down,white_med_45_down,16,1.182258902,0.2503153,right,0.3202818,0,16,16,1,1,1,1,TRUE,FALSE,med_2_mask_low,0.75,-1,3,TRUE,9,,,,,,,,,,,,,,,,,,,165,3,3.2.2021,164.9658686
315,"['low', 2, 'high']",2,white,0.719451215,135,right,down,low,high,white_high_135-black_high_45-black_high_135-white_high_135,white_low_135_down,black_low_45_down,4,1.508337852,0.2485385,left,0.5928332,0,4,19,1,1,1,1,TRUE,FALSE,low_2_mask_high,0.75,-1,3,TRUE,8,,,,,,,,,,,,,,,,,,,165,3,3.2.2021,164.9658686
316,"['high', 3, 'low']",3,black,0.652914915,45,right,up,high,low,black_low_135-white_low_45-black_low_45-white_low_135,black_high_45_up,white_high_135_up,21,1.862383953,0.2467552,right,0.5327116,1,21,15,1,1,1,1,TRUE,FALSE,high_3_mask_low,0.75,-1,3,FALSE,7,,,,,,,,,,,,,,,,,,,165,3,3.2.2021,164.9658686
317,"['low', 2, 'low']",2,black,0.807570149,45,right,down,low,low,black_low_45-black_low_135-white_low_135-white_low_45,black_low_45_down,white_low_135_down,8,1.823292644,0.2485466,right,0.1530817,1,8,19,0,1,1,1,TRUE,FALSE,low_2_mask_low,0.75,-1,3,TRUE,10,,,,,,,,,,,,,,,,,,,165,3,3.2.2021,164.9658686
318,"['high', 3, 'low']",3,black,0.022916886,135,left,down,high,low,black_low_135-white_low_135-black_low_45-white_low_45,black_high_135_down,white_high_45_down,20,1.111381922,0.248547,left,0.3558277,1,20,16,1,1,1,1,TRUE,FALSE,high_3_mask_low,0.75,-1,3,FALSE,7,,,,,,,,,,,,,,,,,,,165,3,3.2.2021,164.9658686
319,"['med', 1, 'low']",1,black,0.579384546,45,right,down,med,low,black_low_45-white_low_45-black_low_135-white_low_135,black_med_45_down,white_med_135_down,10,1.503046971,0.2467839,left,0.4101796,0,10,14,1,0,1,1,TRUE,FALSE,med_1_mask_low,0.75,-1,3,TRUE,5,,,,,,,,,,,,,,,,,,,165,3,3.2.2021,164.9658686
320,"['low', 1, 'high']",1,black,0.133967165,135,left,up,low,high,white_high_135-black_high_135-white_high_135-black_high_45,black_low_135_up,white_low_45_up,9,1.266434045,0.2485492,left,0.7401361,1,9,15,1,1,1,1,TRUE,FALSE,low_1_mask_high,0.75,-1,3,FALSE,6,,,,,,,,,,,,,,,,,,,165,3,3.2.2021,164.9658686
321,"['low', 1, 'high']",1,black,0.811732788,135,left,up,low,high,white_high_135-black_high_45-white_high_135-black_high_135,black_low_135_up,white_low_45_up,8,1.349699234,0.2485416,left,0.5556426,1,8,16,1,1,1,1,TRUE,FALSE,low_1_mask_high,0.75,-1,3,FALSE,6,,,,,,,,,,,,,,,,,,,165,3,3.2.2021,164.9658686
322,"['high', 1, 'low']",1,white,0.278934411,135,right,up,high,low,white_low_135-black_low_135-black_low_45-white_low_45,white_high_135_up,black_high_45_up,20,1.811043377,0.2485235,right,0.5203285,1,20,20,0,1,1,1,TRUE,FALSE,high_1_mask_low,0.75,-1,3,TRUE,8,,,,,,,,,,,,,,,,,,,165,3,3.2.2021,164.9658686
323,"['high', 2, 'high']",2,black,0.416858698,45,right,down,high,high,black_high_45-white_high_135-black_high_135-white_high_135,black_high_45_down,white_high_135_down,15,1.325421798,0.2485466,left,0.2718249,0,15,17,0,0,1,1,TRUE,FALSE,high_2_mask_high,0.75,-1,3,FALSE,4,,,,,,,,,,,,,,,,,,,165,3,3.2.2021,164.9658686
324,"['low', 2, 'high']",2,white,0.307867838,45,left,up,low,high,black_high_135-black_high_45-white_high_135-white_high_135,white_low_45_up,black_low_135_up,7,1.398430766,0.2468514,left,0.058472,1,7,20,0,1,1,1,TRUE,FALSE,low_2_mask_high,0.75,-1,3,TRUE,9,,,,,,,,,,,,,,,,,,,165,3,3.2.2021,164.9658686
325,"['med', 3, 'low']",3,white,0.72451148,45,left,up,med,low,black_low_135-black_low_45-white_low_135-white_low_45,white_med_45_up,black_med_135_up,17,1.721778713,0.2485563,left,0.1384553,1,17,19,1,1,1,1,TRUE,FALSE,med_3_mask_low,0.75,-1,3,FALSE,12,,,,,,,,,,,,,,,,,,,165,3,3.2.2021,164.9658686
