trial_number,trial_type,cycle_number,first_color,phase,first_orientation,correct_response,visual_field,spatial_frequency,mask_type,mask_images,first_stim,second_stim,stimulus_frame_duration,fixation_duration,mask_duration,answer,rt,accuracy,staircase_dv,staircase_trial_num,staircase_previous_correct,staircase_phase,staircase_step_size,staircase_powers_law,staircase_siam,staircase_over,staircase_name,staircase_conv_p,staircase_step_hit,staircase_step_miss,staircase_reversal,staircase_reversal_num,threshold_low1_mask_low,threshold_low2_mask_low,threshold_low3_mask_low,threshold_high1_mask_low,threshold_high2_mask_low,threshold_high3_mask_low,threshold_low1_mask_high,threshold_low2_mask_high,threshold_low3_mask_high,threshold_high1_mask_high,threshold_high2_mask_high,threshold_high3_mask_high,threshold_med1_mask_low,threshold_med2_mask_low,threshold_med3_mask_low,threshold_med1_mask_high,threshold_med2_mask_high,threshold_med3_mask_high,frame_rate,participant,psychopyVersion,frame_rate_detected
0,"['med', 2, 'high']",2,black,0.220708959,45,right,down,med,high,white_high_135-white_high_135-black_high_135-black_high_45,black_med_45_down,white_med_135_down,8,1.958169099,0.2485466,right,0.0991298,1,8,0,None,0,1,1,TRUE,FALSE,med_2_mask_high,0.75,-1,3,FALSE,0,,,,,,,,,,,,,,,,,,,165,11,3.2.2021,164.9514465
1,"['low', 1, 'high']",1,white,0.519237032,135,right,up,low,high,black_high_45-white_high_135-white_high_135-black_high_135,white_low_135_up,black_low_45_up,8,1.159920796,0.2485433,right,0.1984422,1,8,0,None,0,1,1,TRUE,FALSE,low_1_mask_high,0.75,-1,3,FALSE,0,,,,,,,,,,,,,,,,,,,165,11,3.2.2021,164.9514465
2,"['med', 2, 'low']",2,black,0.913342113,135,left,up,med,low,white_low_45-black_low_45-black_low_135-white_low_135,black_med_135_up,white_med_45_up,8,1.084914532,0.2449724,right,0.2546052,0,8,0,None,0,1,1,TRUE,FALSE,med_2_mask_low,0.75,-1,3,FALSE,0,,,,,,,,,,,,,,,,,,,165,11,3.2.2021,164.9514465
3,"['high', 2, 'high']",2,black,0.192072016,135,left,down,high,high,black_high_45-white_high_135-black_high_135-white_high_135,black_high_135_down,white_high_45_down,8,1.131277095,0.24854,right,0.3047088,0,8,0,None,0,1,1,TRUE,FALSE,high_2_mask_high,0.75,-1,3,FALSE,0,,,,,,,,,,,,,,,,,,,165,11,3.2.2021,164.9514465
4,"['low', 3, 'low']",3,white,0.107290639,45,left,up,low,low,white_low_45-black_low_45-black_low_135-white_low_135,white_low_45_up,black_low_135_up,3,1.061175511,0.2503071,left,0.2339338,1,3,0,None,0,1,1,TRUE,FALSE,low_3_mask_low,0.75,-1,3,FALSE,0,,,,,,,,,,,,,,,,,,,165,11,3.2.2021,164.9514465
5,"['low', 2, 'high']",2,black,0.406910862,135,left,up,low,high,black_high_45-white_high_135-white_high_135-black_high_135,black_low_135_up,white_low_45_up,3,1.063781421,0.2485608,left,0.2638341,1,3,0,None,0,1,1,TRUE,FALSE,low_2_mask_high,0.75,-1,3,FALSE,0,,,,,,,,,,,,,,,,,,,165,11,3.2.2021,164.9514465
6,"['high', 2, 'low']",2,white,0.76389097,135,right,up,high,low,white_low_45-white_low_135-black_low_135-black_low_45,white_high_135_up,black_high_45_up,8,1.725615412,0.2485475,left,0.1836723,0,8,0,None,0,1,1,TRUE,FALSE,high_2_mask_low,0.75,-1,3,FALSE,0,,,,,,,,,,,,,,,,,,,165,11,3.2.2021,164.9514465
7,"['med', 2, 'low']",2,white,0.44060313,135,right,up,med,low,black_low_45-white_low_135-black_low_135-white_low_45,white_med_135_up,black_med_45_up,11,1.151589199,0.2488461,right,0.6045027,1,11,1,0,0,1,1,TRUE,FALSE,med_2_mask_low,0.75,-1,3,TRUE,1,,,,,,,,,,,,,,,,,,,165,11,3.2.2021,164.9514465
8,"['med', 3, 'low']",3,black,0.351353196,135,left,down,med,low,black_low_135-black_low_45-white_low_45-white_low_135,black_med_135_down,white_med_45_down,8,1.263714832,0.2485526,right,0.1117364,0,8,0,None,0,1,1,TRUE,FALSE,med_3_mask_low,0.75,-1,3,FALSE,0,,,,,,,,,,,,,,,,,,,165,11,3.2.2021,164.9514465
9,"['low', 2, 'high']",2,white,0.812950626,135,right,down,low,high,black_high_45-white_high_135-black_high_135-white_high_135,white_low_135_down,black_low_45_down,2,1.262810854,0.2485391,right,0.2584178,1,2,1,1,0,1,1,TRUE,FALSE,low_2_mask_high,0.75,-1,3,FALSE,0,,,,,,,,,,,,,,,,,,,165,11,3.2.2021,164.9514465
10,"['med', 3, 'high']",3,white,0.821454143,45,left,down,med,high,white_high_135-white_high_135-black_high_45-black_high_135,white_med_45_down,black_med_135_down,8,1.373070972,0.250316,right,0.23588,0,8,0,None,0,1,1,TRUE,FALSE,med_3_mask_high,0.75,-1,3,FALSE,0,,,,,,,,,,,,,,,,,,,165,11,3.2.2021,164.9514465
11,"['high', 3, 'low']",3,white,0.886014027,45,left,down,high,low,white_low_135-white_low_45-black_low_135-black_low_45,white_high_45_down,black_high_135_down,8,1.53404462,0.2485774,right,0.2262191,0,8,0,None,0,1,1,TRUE,FALSE,high_3_mask_low,0.75,-1,3,FALSE,0,,,,,,,,,,,,,,,,,,,165,11,3.2.2021,164.9514465
12,"['high', 2, 'low']",2,black,0.753103719,135,left,down,high,low,black_low_45-black_low_135-white_low_135-white_low_45,black_high_135_down,white_high_45_down,11,1.155038675,0.2488459,right,0.1409621,0,11,1,0,0,1,1,TRUE,FALSE,high_2_mask_low,0.75,-1,3,FALSE,0,,,,,,,,,,,,,,,,,,,165,11,3.2.2021,164.9514465
13,"['med', 1, 'low']",1,white,0.381239306,45,left,up,med,low,white_low_135-black_low_135-black_low_45-white_low_45,white_med_45_up,black_med_135_up,12,1.994890219,0.2485576,left,0.595422,1,12,0,None,0,1,1,TRUE,FALSE,med_1_mask_low,0.75,-1,3,FALSE,0,,,,,,,,,,,,,,,,,,,165,11,3.2.2021,164.9514465
14,"['high', 1, 'low']",1,white,0.05490098,135,right,up,high,low,black_low_45-black_low_135-white_low_45-white_low_135,white_high_135_up,black_high_45_up,12,1.44529607,0.2467635,right,0.1838182,1,12,0,None,0,1,1,TRUE,FALSE,high_1_mask_low,0.75,-1,3,FALSE,0,,,,,,,,,,,,,,,,,,,165,11,3.2.2021,164.9514465
15,"['high', 2, 'high']",2,white,0.927824942,45,left,down,high,high,black_high_45-black_high_135-white_high_135-white_high_135,white_high_45_down,black_high_135_down,11,1.100176048,0.2485544,left,0.2470925,1,11,1,0,0,1,1,TRUE,FALSE,high_2_mask_high,0.75,-1,3,TRUE,1,,,,,,,,,,,,,,,,,,,165,11,3.2.2021,164.9514465
16,"['low', 2, 'high']",2,black,0.597119967,45,right,up,low,high,white_high_135-black_high_45-white_high_135-black_high_135,black_low_45_up,white_low_135_up,1,1.853686543,0.2467732,right,0.3265758,1,1,2,1,0,1,1,TRUE,FALSE,low_2_mask_high,0.75,-1,3,FALSE,0,,,,,,,,,,,,,,,,,,,165,11,3.2.2021,164.9514465
17,"['low', 2, 'high']",2,white,0.207199699,135,right,down,low,high,white_high_135-black_high_45-black_high_135-white_high_135,white_low_135_down,black_low_45_down,1,1.342444158,0.2485356,right,0.2898633,1,1,3,1,0,1,1,TRUE,FALSE,low_2_mask_high,0.75,-1,3,FALSE,0,,,,,,,,,,,,,,,,,,,165,11,3.2.2021,164.9514465
18,"['med', 1, 'low']",1,black,0.436815006,45,right,down,med,low,black_low_45-white_low_45-black_low_135-white_low_135,black_med_45_down,white_med_135_down,11,1.31353121,0.2488385,right,0.1347772,1,11,1,1,0,1,1,TRUE,FALSE,med_1_mask_low,0.75,-1,3,FALSE,0,,,,,,,,,,,,,,,,,,,165,11,3.2.2021,164.9514465
19,"['high', 1, 'high']",1,black,0.468610659,45,right,down,high,high,white_high_135-white_high_135-black_high_45-black_high_135,black_high_45_down,white_high_135_down,12,1.965712808,0.2485454,right,0.337407,1,12,0,None,0,1,1,TRUE,FALSE,high_1_mask_high,0.75,-1,3,FALSE,0,,,,,,,,,,,,,,,,,,,165,11,3.2.2021,164.9514465
20,"['high', 2, 'low']",2,white,0.062993034,45,left,up,high,low,black_low_45-white_low_45-white_low_135-black_low_135,white_high_45_up,black_high_135_up,14,1.765692175,0.2485461,left,0.1595314,1,14,2,0,0,1,1,TRUE,FALSE,high_2_mask_low,0.75,-1,3,TRUE,1,,,,,,,,,,,,,,,,,,,165,11,3.2.2021,164.9514465
21,"['med', 1, 'low']",1,black,0.189708227,135,left,down,med,low,white_low_135-black_low_45-white_low_45-black_low_135,black_med_135_down,white_med_45_down,10,1.948909537,0.2485383,right,0.2268297,0,10,2,1,0,1,1,TRUE,FALSE,med_1_mask_low,0.75,-1,3,TRUE,1,,,,,,,,,,,,,,,,,,,165,11,3.2.2021,164.9514465
22,"['med', 2, 'low']",2,black,0.078640385,45,right,down,med,low,white_low_135-white_low_45-black_low_135-black_low_45,black_med_45_down,white_med_135_down,10,1.178510405,0.2485449,right,0.0762347,1,10,2,1,0,1,1,TRUE,FALSE,med_2_mask_low,0.75,-1,3,FALSE,1,,,,,,,,,,,,,,,,,,,165,11,3.2.2021,164.9514465
23,"['med', 1, 'low']",1,black,0.862359817,45,right,down,med,low,white_low_45-black_low_45-white_low_135-black_low_135,black_med_45_down,white_med_135_down,13,1.010601699,0.2485439,right,0.0886226,1,13,3,0,0,1,1,TRUE,FALSE,med_1_mask_low,0.75,-1,3,TRUE,2,,,,,,,,,,,,,,,,,,,165,11,3.2.2021,164.9514465
24,"['low', 1, 'low']",1,white,0.919992105,135,right,up,low,low,black_low_45-white_low_135-black_low_135-white_low_45,white_low_135_up,black_low_45_up,8,1.268228347,0.2485387,right,0.3040068,1,8,0,None,0,1,1,TRUE,FALSE,low_1_mask_low,0.75,-1,3,FALSE,0,,,,,,,,,,,,,,,,,,,165,11,3.2.2021,164.9514465
25,"['med', 3, 'high']",3,white,0.420471391,45,left,up,med,high,black_high_45-black_high_135-white_high_135-white_high_135,white_med_45_up,black_med_135_up,11,1.399010241,0.2485508,left,0.057623,1,11,1,0,0,1,1,TRUE,FALSE,med_3_mask_high,0.75,-1,3,TRUE,1,,,,,,,,,,,,,,,,,,,165,11,3.2.2021,164.9514465
26,"['high', 2, 'high']",2,white,0.995116387,45,left,down,high,high,black_high_135-black_high_45-white_high_135-white_high_135,white_high_45_down,black_high_135_down,10,1.942910768,0.2485478,right,0.0364991,0,10,2,1,0,1,1,TRUE,FALSE,high_2_mask_high,0.75,-1,3,TRUE,2,,,,,,,,,,,,,,,,,,,165,11,3.2.2021,164.9514465
27,"['high', 3, 'high']",3,black,0.019337176,135,left,up,high,high,white_high_135-white_high_135-black_high_45-black_high_135,black_high_135_up,white_high_45_up,8,1.567585874,0.2485383,left,0.0736807,1,8,0,None,0,1,1,TRUE,FALSE,high_3_mask_high,0.75,-1,3,FALSE,0,,,,,,,,,,,,,,,,,,,165,11,3.2.2021,164.9514465
28,"['low', 3, 'high']",3,black,0.383690011,45,right,up,low,high,white_high_135-black_high_135-white_high_135-black_high_45,black_low_45_up,white_low_135_up,3,1.450771706,0.2467215,left,0.5341213,0,3,0,None,0,1,1,TRUE,FALSE,low_3_mask_high,0.75,-1,3,FALSE,0,,,,,,,,,,,,,,,,,,,165,11,3.2.2021,164.9514465
29,"['low', 1, 'high']",1,white,0.85952375,45,left,down,low,high,white_high_135-black_high_45-white_high_135-black_high_135,white_low_45_down,black_low_135_down,7,1.058221106,0.2485473,left,0.2379873,1,7,1,1,0,1,1,TRUE,FALSE,low_1_mask_high,0.75,-1,3,FALSE,0,,,,,,,,,,,,,,,,,,,165,11,3.2.2021,164.9514465
30,"['low', 1, 'high']",1,black,0.231190889,135,left,down,low,high,black_high_45-black_high_135-white_high_135-white_high_135,black_low_135_down,white_low_45_down,6,1.865928734,0.2467593,left,0.2350655,1,6,2,1,0,1,1,TRUE,FALSE,low_1_mask_high,0.75,-1,3,FALSE,0,,,,,,,,,,,,,,,,,,,165,11,3.2.2021,164.9514465
31,"['med', 3, 'low']",3,white,0.638513904,45,left,down,med,low,white_low_45-black_low_135-white_low_135-black_low_45,white_med_45_down,black_med_135_down,11,1.15217539,0.2485461,left,0.2496714,1,11,1,0,0,1,1,TRUE,FALSE,med_3_mask_low,0.75,-1,3,TRUE,1,,,,,,,,,,,,,,,,,,,165,11,3.2.2021,164.9514465
32,"['med', 1, 'low']",1,white,0.757011234,135,right,up,med,low,black_low_135-white_low_135-white_low_45-black_low_45,white_med_135_up,black_med_45_up,12,1.279689652,0.248847,left,0.2552666,0,12,4,1,0,1,1,TRUE,FALSE,med_1_mask_low,0.75,-1,3,TRUE,3,,,,,,,,,,,,,,,,,,,165,11,3.2.2021,164.9514465
33,"['low', 1, 'low']",1,black,0.202843257,135,left,down,low,low,white_low_45-black_low_135-white_low_135-black_low_45,black_low_135_down,white_low_45_down,7,1.607479671,0.2467247,left,0.2469147,1,7,1,1,0,1,1,TRUE,FALSE,low_1_mask_low,0.75,-1,3,FALSE,0,,,,,,,,,,,,,,,,,,,165,11,3.2.2021,164.9514465
34,"['high', 2, 'low']",2,black,0.714151915,135,left,up,high,low,black_low_135-white_low_135-black_low_45-white_low_45,black_high_135_up,white_high_45_up,13,1.741119828,0.2467736,left,0.2286827,1,13,3,1,0,1,1,TRUE,FALSE,high_2_mask_low,0.75,-1,3,FALSE,1,,,,,,,,,,,,,,,,,,,165,11,3.2.2021,164.9514465
35,"['med', 1, 'high']",1,white,0.304335553,45,left,up,med,high,black_high_135-white_high_135-black_high_45-white_high_135,white_med_45_up,black_med_135_up,12,1.514628976,0.2485381,left,0.2622162,1,12,0,None,0,1,1,TRUE,FALSE,med_1_mask_high,0.75,-1,3,FALSE,0,,,,,,,,,,,,,,,,,,,165,11,3.2.2021,164.9514465
36,"['high', 3, 'low']",3,black,0.377198875,135,left,up,high,low,black_low_45-white_low_135-black_low_135-white_low_45,black_high_135_up,white_high_45_up,11,1.674975526,0.2485511,left,0.2759534,1,11,1,0,0,1,1,TRUE,FALSE,high_3_mask_low,0.75,-1,3,TRUE,1,,,,,,,,,,,,,,,,,,,165,11,3.2.2021,164.9514465
37,"['low', 2, 'high']",2,white,0.945820812,45,left,up,low,high,black_high_45-white_high_135-white_high_135-black_high_135,white_low_45_up,black_low_135_up,1,1.551672255,0.2485429,left,0.6248942,1,1,4,1,0,1,1,TRUE,FALSE,low_2_mask_high,0.75,-1,3,FALSE,0,,,,,,,,,,,,,,,,,,,165,11,3.2.2021,164.9514465
38,"['low', 1, 'high']",1,black,0.920598161,45,right,down,low,high,white_high_135-black_high_45-white_high_135-black_high_135,black_low_45_down,white_low_135_down,5,1.599075298,0.2467375,right,0.1207139,1,5,3,1,0,1,1,TRUE,FALSE,low_1_mask_high,0.75,-1,3,FALSE,0,,,,,,,,,,,,,,,,,,,165,11,3.2.2021,164.9514465
39,"['med', 2, 'low']",2,black,0.160976365,135,left,down,med,low,white_low_45-white_low_135-black_low_135-black_low_45,black_med_135_down,white_med_45_down,9,1.301876107,0.2485457,right,0.4732005,0,9,3,1,0,1,1,TRUE,FALSE,med_2_mask_low,0.75,-1,3,TRUE,2,,,,,,,,,,,,,,,,,,,165,11,3.2.2021,164.9514465
40,"['high', 3, 'low']",3,black,0.501167605,45,right,down,high,low,white_low_135-black_low_45-black_low_135-white_low_45,black_high_45_down,white_high_135_down,10,1.760335545,0.2485484,left,0.3229252,0,10,2,1,0,1,1,TRUE,FALSE,high_3_mask_low,0.75,-1,3,TRUE,2,,,,,,,,,,,,,,,,,,,165,11,3.2.2021,164.9514465
41,"['high', 1, 'low']",1,white,0.542811721,135,right,down,high,low,black_low_45-black_low_135-white_low_135-white_low_45,white_high_135_down,black_high_45_down,11,1.876526472,0.2488412,right,0.2006512,1,11,1,1,0,1,1,TRUE,FALSE,high_1_mask_low,0.75,-1,3,FALSE,0,,,,,,,,,,,,,,,,,,,165,11,3.2.2021,164.9514465
42,"['low', 3, 'high']",3,white,0.745006102,135,right,down,low,high,black_high_135-black_high_45-white_high_135-white_high_135,white_low_135_down,black_low_45_down,6,1.497685319,0.2485521,right,0.1112447,1,6,1,0,0,1,1,TRUE,FALSE,low_3_mask_high,0.75,-1,3,TRUE,1,,,,,,,,,,,,,,,,,,,165,11,3.2.2021,164.9514465
43,"['low', 1, 'high']",1,white,0.619153845,135,right,down,low,high,white_high_135-black_high_45-white_high_135-black_high_135,white_low_135_down,black_low_45_down,4,1.506122544,0.2485508,right,0.2883236,1,4,4,1,0,1,1,TRUE,FALSE,low_1_mask_high,0.75,-1,3,FALSE,0,,,,,,,,,,,,,,,,,,,165,11,3.2.2021,164.9514465
44,"['high', 1, 'low']",1,black,0.455093338,135,left,down,high,low,black_low_135-white_low_45-white_low_135-black_low_45,black_high_135_down,white_high_45_down,10,1.353575919,0.2467442,right,0.1292879,0,10,2,1,0,1,1,TRUE,FALSE,high_1_mask_low,0.75,-1,3,TRUE,1,,,,,,,,,,,,,,,,,,,165,11,3.2.2021,164.9514465
45,"['low', 1, 'high']",1,black,0.761320379,45,right,down,low,high,white_high_135-white_high_135-black_high_135-black_high_45,black_low_45_down,white_low_135_down,3,1.054106677,0.2485049,right,0.303282,1,3,5,1,0,1,1,TRUE,FALSE,low_1_mask_high,0.75,-1,3,FALSE,0,,,,,,,,,,,,,,,,,,,165,11,3.2.2021,164.9514465
46,"['med', 1, 'low']",1,black,0.633905902,45,right,down,med,low,white_low_45-white_low_135-black_low_135-black_low_45,black_med_45_down,white_med_135_down,15,1.428090614,0.2503217,right,0.1960828,1,15,5,0,0,1,1,TRUE,FALSE,med_1_mask_low,0.75,-1,3,TRUE,4,,,,,,,,,,,,,,,,,,,165,11,3.2.2021,164.9514465
47,"['high', 2, 'high']",2,black,0.655352082,135,left,up,high,high,white_high_135-white_high_135-black_high_135-black_high_45,black_high_135_up,white_high_45_up,13,1.753992898,0.2485668,left,0.4741701,1,13,3,0,0,1,1,TRUE,FALSE,high_2_mask_high,0.75,-1,3,TRUE,3,,,,,,,,,,,,,,,,,,,165,11,3.2.2021,164.9514465
48,"['low', 2, 'high']",2,black,0.154867913,135,left,up,low,high,black_high_135-white_high_135-white_high_135-black_high_45,black_low_135_up,white_low_45_up,1,1.345814793,0.2466871,left,0.9795085,1,1,5,1,0,1,1,TRUE,FALSE,low_2_mask_high,0.75,-1,3,FALSE,0,,,,,,,,,,,,,,,,,,,165,11,3.2.2021,164.9514465
49,"['high', 2, 'low']",2,white,0.43944849,45,left,down,high,low,white_low_45-white_low_135-black_low_45-black_low_135,white_high_45_down,black_high_135_down,12,1.841592231,0.2485465,left,0.037869,1,12,4,1,0,1,1,TRUE,FALSE,high_2_mask_low,0.75,-1,3,FALSE,1,,,,,,,,,,,,,,,,,,,165,11,3.2.2021,164.9514465
50,"['high', 1, 'high']",1,black,0.810122365,45,right,down,high,high,white_high_135-black_high_135-black_high_45-white_high_135,black_high_45_down,white_high_135_down,11,1.683909942,0.2502903,right,0.0833526,1,11,1,1,0,1,1,TRUE,FALSE,high_1_mask_high,0.75,-1,3,FALSE,0,,,,,,,,,,,,,,,,,,,165,11,3.2.2021,164.9514465
51,"['med', 3, 'low']",3,white,0.83150813,45,left,up,med,low,white_low_135-white_low_45-black_low_135-black_low_45,white_med_45_up,black_med_135_up,10,1.639409421,0.2467706,left,0.3899756,1,10,2,1,0,1,1,TRUE,FALSE,med_3_mask_low,0.75,-1,3,FALSE,1,,,,,,,,,,,,,,,,,,,165,11,3.2.2021,164.9514465
52,"['high', 1, 'low']",1,white,0.605226688,135,right,up,high,low,black_low_45-white_low_135-white_low_45-black_low_135,white_high_135_up,black_high_45_up,13,1.645515871,0.2485378,left,1.5508985,0,13,3,0,0,1,1,TRUE,FALSE,high_1_mask_low,0.75,-1,3,FALSE,1,,,,,,,,,,,,,,,,,,,165,11,3.2.2021,164.9514465
53,"['high', 3, 'high']",3,white,0.777918549,45,left,up,high,high,black_high_135-white_high_135-white_high_135-black_high_45,white_high_45_up,black_high_135_up,7,1.570951253,0.2485703,left,0.0779962,1,7,1,1,0,1,1,TRUE,FALSE,high_3_mask_high,0.75,-1,3,FALSE,0,,,,,,,,,,,,,,,,,,,165,11,3.2.2021,164.9514465
54,"['high', 3, 'low']",3,black,0.717015755,135,left,down,high,low,white_low_45-black_low_45-black_low_135-white_low_135,black_high_135_down,white_high_45_down,13,1.309402193,0.2485516,right,0.4578986,0,13,3,0,0,1,1,TRUE,FALSE,high_3_mask_low,0.75,-1,3,FALSE,2,,,,,,,,,,,,,,,,,,,165,11,3.2.2021,164.9514465
55,"['med', 1, 'high']",1,black,0.390753717,135,left,down,med,high,black_high_45-white_high_135-white_high_135-black_high_135,black_med_135_down,white_med_45_down,11,1.126350183,0.2485435,left,0.2403875,1,11,1,1,0,1,1,TRUE,FALSE,med_1_mask_high,0.75,-1,3,FALSE,0,,,,,,,,,,,,,,,,,,,165,11,3.2.2021,164.9514465
56,"['med', 2, 'low']",2,black,0.926715467,135,left,down,med,low,white_low_45-black_low_45-black_low_135-white_low_135,black_med_135_down,white_med_45_down,12,1.748821165,0.2485314,left,0.2828383,1,12,4,0,0,1,1,TRUE,FALSE,med_2_mask_low,0.75,-1,3,TRUE,3,,,,,,,,,,,,,,,,,,,165,11,3.2.2021,164.9514465
57,"['med', 1, 'high']",1,white,0.787273907,135,right,up,med,high,white_high_135-black_high_45-black_high_135-white_high_135,white_med_135_up,black_med_45_up,10,1.680357959,0.2485425,right,0.1559773,1,10,2,1,0,1,1,TRUE,FALSE,med_1_mask_high,0.75,-1,3,FALSE,0,,,,,,,,,,,,,,,,,,,165,11,3.2.2021,164.9514465
58,"['low', 3, 'high']",3,white,0.793186823,135,right,up,low,high,white_high_135-black_high_45-white_high_135-black_high_135,white_low_135_up,black_low_45_up,5,1.0051821,0.2485387,left,0.2330395,0,5,2,1,0,1,1,TRUE,FALSE,low_3_mask_high,0.75,-1,3,TRUE,2,,,,,,,,,,,,,,,,,,,165,11,3.2.2021,164.9514465
59,"['low', 2, 'low']",2,black,0.964006329,135,left,up,low,low,black_low_45-white_low_135-white_low_45-black_low_135,black_low_135_up,white_low_45_up,3,1.018107582,0.2485539,left,0.2213704,1,3,0,None,0,1,1,TRUE,FALSE,low_2_mask_low,0.75,-1,3,FALSE,0,,,,,,,,,,,,,,,,,,,165,11,3.2.2021,164.9514465
60,"['med', 2, 'high']",2,black,0.895708112,45,right,down,med,high,black_high_135-white_high_135-black_high_45-white_high_135,black_med_45_down,white_med_135_down,7,1.555205506,0.2471089,right,0.0448825,1,7,1,1,0,1,1,TRUE,FALSE,med_2_mask_high,0.75,-1,3,FALSE,0,,,,,,,,,,,,,,,,,,,165,11,3.2.2021,164.9514465
61,"['med', 3, 'low']",3,white,0.657606418,45,left,up,med,low,black_low_45-white_low_135-black_low_135-white_low_45,white_med_45_up,black_med_135_up,9,1.827469187,0.2502859,left,0.4395403,1,9,3,1,0,1,1,TRUE,FALSE,med_3_mask_low,0.75,-1,3,FALSE,1,,,,,,,,,,,,,,,,,,,165,11,3.2.2021,164.9514465
62,"['low', 3, 'high']",3,black,0.854760071,45,right,up,low,high,black_high_135-white_high_135-black_high_45-white_high_135,black_low_45_up,white_low_135_up,8,1.465921936,0.2467688,left,0.1409769,0,8,3,0,0,1,1,TRUE,FALSE,low_3_mask_high,0.75,-1,3,FALSE,2,,,,,,,,,,,,,,,,,,,165,11,3.2.2021,164.9514465
63,"['low', 1, 'low']",1,black,0.001613259,135,left,up,low,low,black_low_45-white_low_45-black_low_135-white_low_135,black_low_135_up,white_low_45_up,6,1.093650094,0.2485503,left,0.2262175,1,6,2,1,0,1,1,TRUE,FALSE,low_1_mask_low,0.75,-1,3,FALSE,0,,,,,,,,,,,,,,,,,,,165,11,3.2.2021,164.9514465
64,"['low', 3, 'low']",3,white,0.848301273,45,left,down,low,low,black_low_135-white_low_45-black_low_45-white_low_135,white_low_45_down,black_low_135_down,2,1.458839719,0.2485346,left,0.2933453,1,2,1,1,0,1,1,TRUE,FALSE,low_3_mask_low,0.75,-1,3,FALSE,0,,,,,,,,,,,,,,,,,,,165,11,3.2.2021,164.9514465
65,"['high', 1, 'low']",1,black,0.999512776,45,right,down,high,low,black_low_135-black_low_45-white_low_45-white_low_135,black_high_45_down,white_high_135_down,16,1.256456542,0.2485453,left,0.3432006,0,16,4,0,0,1,1,TRUE,FALSE,high_1_mask_low,0.75,-1,3,FALSE,1,,,,,,,,,,,,,,,,,,,165,11,3.2.2021,164.9514465
66,"['high', 2, 'high']",2,black,0.716958105,135,left,up,high,high,white_high_135-black_high_45-white_high_135-black_high_135,black_high_135_up,white_high_45_up,12,1.313250408,0.2503186,left,0.2820392,1,12,4,1,0,1,1,TRUE,FALSE,high_2_mask_high,0.75,-1,3,FALSE,3,,,,,,,,,,,,,,,,,,,165,11,3.2.2021,164.9514465
67,"['low', 1, 'low']",1,white,0.003367442,135,right,up,low,low,white_low_45-black_low_135-white_low_135-black_low_45,white_low_135_up,black_low_45_up,5,1.3353881,0.2485438,right,0.2552461,1,5,3,1,0,1,1,TRUE,FALSE,low_1_mask_low,0.75,-1,3,FALSE,0,,,,,,,,,,,,,,,,,,,165,11,3.2.2021,164.9514465
68,"['med', 1, 'low']",1,black,0.569688848,135,left,up,med,low,white_low_45-black_low_45-black_low_135-white_low_135,black_med_135_up,white_med_45_up,14,1.867900978,0.2485411,left,0.2787196,1,14,6,1,0,1,1,TRUE,FALSE,med_1_mask_low,0.75,-1,3,FALSE,4,,,,,,,,,,,,,,,,,,,165,11,3.2.2021,164.9514465
69,"['low', 3, 'low']",3,black,0.319703138,45,right,up,low,low,black_low_135-white_low_135-white_low_45-black_low_45,black_low_45_up,white_low_135_up,1,1.497620447,0.2485232,left,0.2467631,0,1,2,1,0,1,1,TRUE,FALSE,low_3_mask_low,0.75,-1,3,TRUE,1,,,,,,,,,,,,,,,,,,,165,11,3.2.2021,164.9514465
70,"['low', 3, 'high']",3,white,0.615270065,45,left,down,low,high,white_high_135-white_high_135-black_high_45-black_high_135,white_low_45_down,black_low_135_down,11,1.902641873,0.2485461,left,0.154238,1,11,4,0,0,1,1,TRUE,FALSE,low_3_mask_high,0.75,-1,3,TRUE,3,,,,,,,,,,,,,,,,,,,165,11,3.2.2021,164.9514465
71,"['med', 3, 'high']",3,white,0.199849676,135,right,down,med,high,white_high_135-white_high_135-black_high_45-black_high_135,white_med_135_down,black_med_45_down,10,1.18522109,0.2485487,right,0.1145778,1,10,2,1,0,1,1,TRUE,FALSE,med_3_mask_high,0.75,-1,3,FALSE,1,,,,,,,,,,,,,,,,,,,165,11,3.2.2021,164.9514465
72,"['low', 1, 'high']",1,black,0.914817829,45,right,up,low,high,black_high_135-white_high_135-black_high_45-white_high_135,black_low_45_up,white_low_135_up,2,1.151798689,0.2485458,left,0.9922129,0,2,6,1,0,1,1,TRUE,FALSE,low_1_mask_high,0.75,-1,3,TRUE,1,,,,,,,,,,,,,,,,,,,165,11,3.2.2021,164.9514465
73,"['med', 3, 'high']",3,black,0.949089887,135,left,down,med,high,white_high_135-white_high_135-black_high_135-black_high_45,black_med_135_down,white_med_45_down,9,1.403638938,0.2488472,left,0.2212848,1,9,3,1,0,1,1,TRUE,FALSE,med_3_mask_high,0.75,-1,3,FALSE,1,,,,,,,,,,,,,,,,,,,165,11,3.2.2021,164.9514465
74,"['high', 2, 'high']",2,black,0.092487148,135,left,down,high,high,white_high_135-black_high_135-black_high_45-white_high_135,black_high_135_down,white_high_45_down,11,1.867942221,0.248571,right,0.5044768,0,11,5,1,0,1,1,TRUE,FALSE,high_2_mask_high,0.75,-1,3,TRUE,4,,,,,,,,,,,,,,,,,,,165,11,3.2.2021,164.9514465
75,"['low', 1, 'high']",1,black,0.578854743,135,left,up,low,high,white_high_135-black_high_135-white_high_135-black_high_45,black_low_135_up,white_low_45_up,5,1.575263705,0.250301,left,0.1944908,1,5,7,0,0,1,1,TRUE,FALSE,low_1_mask_high,0.75,-1,3,TRUE,2,,,,,,,,,,,,,,,,,,,165,11,3.2.2021,164.9514465
76,"['high', 2, 'high']",2,white,0.365616812,45,left,down,high,high,white_high_135-white_high_135-black_high_45-black_high_135,white_high_45_down,black_high_135_down,14,1.595263689,0.2488422,left,0.2104547,1,14,6,0,0,1,1,TRUE,FALSE,high_2_mask_high,0.75,-1,3,TRUE,5,,,,,,,,,,,,,,,,,,,165,11,3.2.2021,164.9514465
77,"['med', 1, 'low']",1,black,0.546542337,45,right,down,med,low,white_low_45-white_low_135-black_low_135-black_low_45,black_med_45_down,white_med_135_down,13,1.02225267,0.248555,right,0.1401423,1,13,7,1,0,1,1,TRUE,FALSE,med_1_mask_low,0.75,-1,3,FALSE,4,,,,,,,,,,,,,,,,,,,165,11,3.2.2021,164.9514465
78,"['low', 1, 'low']",1,white,0.117739772,135,right,down,low,low,white_low_45-black_low_45-white_low_135-black_low_135,white_low_135_down,black_low_45_down,4,1.729147658,0.2485429,right,0.2318337,1,4,4,1,0,1,1,TRUE,FALSE,low_1_mask_low,0.75,-1,3,FALSE,0,,,,,,,,,,,,,,,,,,,165,11,3.2.2021,164.9514465
79,"['high', 3, 'low']",3,white,0.107400785,45,left,up,high,low,white_low_45-white_low_135-black_low_135-black_low_45,white_high_45_up,black_high_135_up,16,1.264896601,0.2485509,left,0.1736587,1,16,4,0,0,1,1,TRUE,FALSE,high_3_mask_low,0.75,-1,3,TRUE,3,,,,,,,,,,,,,,,,,,,165,11,3.2.2021,164.9514465
80,"['low', 2, 'low']",2,black,0.893733606,45,right,down,low,low,black_low_135-white_low_45-white_low_135-black_low_45,black_low_45_down,white_low_135_down,2,1.729616468,0.2485517,right,0.31418,1,2,1,1,0,1,1,TRUE,FALSE,low_2_mask_low,0.75,-1,3,FALSE,0,,,,,,,,,,,,,,,,,,,165,11,3.2.2021,164.9514465
81,"['low', 2, 'high']",2,black,0.910051245,45,right,up,low,high,white_high_135-black_high_45-white_high_135-black_high_135,black_low_45_up,white_low_135_up,1,1.985459907,0.2467516,left,0.4627781,0,1,6,1,0,1,1,TRUE,FALSE,low_2_mask_high,0.75,-1,3,TRUE,1,,,,,,,,,,,,,,,,,,,165,11,3.2.2021,164.9514465
82,"['high', 1, 'high']",1,white,0.004086828,45,left,up,high,high,white_high_135-white_high_135-black_high_135-black_high_45,white_high_45_up,black_high_135_up,10,1.997510114,0.2485378,left,0.2122528,1,10,2,1,0,1,1,TRUE,FALSE,high_1_mask_high,0.75,-1,3,FALSE,0,,,,,,,,,,,,,,,,,,,165,11,3.2.2021,164.9514465
83,"['low', 1, 'high']",1,black,0.073352939,135,left,up,low,high,black_high_135-white_high_135-black_high_45-white_high_135,black_low_135_up,white_low_45_up,4,1.030946199,0.2485432,right,0.2994268,0,4,8,1,0,1,1,TRUE,FALSE,low_1_mask_high,0.75,-1,3,TRUE,3,,,,,,,,,,,,,,,,,,,165,11,3.2.2021,164.9514465
84,"['med', 3, 'low']",3,black,0.736268484,45,right,up,med,low,black_low_135-white_low_45-white_low_135-black_low_45,black_med_45_up,white_med_135_up,8,1.985401267,0.2485466,left,0.1171362,0,8,4,1,0,1,1,TRUE,FALSE,med_3_mask_low,0.75,-1,3,TRUE,2,,,,,,,,,,,,,,,,,,,165,11,3.2.2021,164.9514465
85,"['med', 2, 'low']",2,white,0.824187282,135,right,down,med,low,black_low_135-white_low_45-white_low_135-black_low_45,white_med_135_down,black_med_45_down,11,1.883643271,0.2485464,right,0.3540635,1,11,5,1,0,1,1,TRUE,FALSE,med_2_mask_low,0.75,-1,3,FALSE,3,,,,,,,,,,,,,,,,,,,165,11,3.2.2021,164.9514465
86,"['low', 2, 'low']",2,black,0.592410329,45,right,up,low,low,white_low_135-black_low_135-black_low_45-white_low_45,black_low_45_up,white_low_135_up,1,1.516583246,0.2485472,left,0.5150285,0,1,2,1,0,1,1,TRUE,FALSE,low_2_mask_low,0.75,-1,3,TRUE,1,,,,,,,,,,,,,,,,,,,165,11,3.2.2021,164.9514465
87,"['high', 1, 'low']",1,black,0.11846261,135,left,down,high,low,white_low_135-black_low_45-white_low_45-black_low_135,black_high_135_down,white_high_45_down,19,1.616275937,0.2485439,right,0.1585337,0,19,5,0,0,1,1,TRUE,FALSE,high_1_mask_low,0.75,-1,3,FALSE,1,,,,,,,,,,,,,,,,,,,165,11,3.2.2021,164.9514465
88,"['med', 3, 'high']",3,white,0.961615903,135,right,down,med,high,black_high_135-white_high_135-black_high_45-white_high_135,white_med_135_down,black_med_45_down,8,1.556226354,0.2485504,right,0.0427515,1,8,4,1,0,1,1,TRUE,FALSE,med_3_mask_high,0.75,-1,3,FALSE,1,,,,,,,,,,,,,,,,,,,165,11,3.2.2021,164.9514465
89,"['high', 1, 'low']",1,black,0.246786582,45,right,up,high,low,black_low_135-white_low_135-white_low_45-black_low_45,black_high_45_up,white_high_135_up,22,1.652776469,0.248536,left,0.2705814,0,22,6,0,0,1,1,TRUE,FALSE,high_1_mask_low,0.75,-1,3,FALSE,1,,,,,,,,,,,,,,,,,,,165,11,3.2.2021,164.9514465
90,"['low', 1, 'high']",1,white,0.780008356,135,right,up,low,high,black_high_45-white_high_135-black_high_135-white_high_135,white_low_135_up,black_low_45_up,7,1.391751784,0.2485385,right,0.3931359,1,7,9,0,0,1,1,TRUE,FALSE,low_1_mask_high,0.75,-1,3,TRUE,4,,,,,,,,,,,,,,,,,,,165,11,3.2.2021,164.9514465
91,"['med', 3, 'low']",3,white,0.189014985,135,right,up,med,low,black_low_135-white_low_135-white_low_45-black_low_45,white_med_135_up,black_med_45_up,11,1.22586081,0.2485504,right,0.398143,1,11,5,0,0,1,1,TRUE,FALSE,med_3_mask_low,0.75,-1,3,TRUE,3,,,,,,,,,,,,,,,,,,,165,11,3.2.2021,164.9514465
92,"['med', 1, 'high']",1,black,0.894130733,135,left,down,med,high,black_high_45-white_high_135-black_high_135-white_high_135,black_med_135_down,white_med_45_down,9,1.122644217,0.2503068,right,0.2668711,0,9,3,1,0,1,1,TRUE,FALSE,med_1_mask_high,0.75,-1,3,TRUE,1,,,,,,,,,,,,,,,,,,,165,11,3.2.2021,164.9514465
93,"['high', 2, 'high']",2,white,0.662323937,135,right,down,high,high,black_high_135-black_high_45-white_high_135-white_high_135,white_high_135_down,black_high_45_down,13,1.806448984,0.2485439,right,0.3247671,1,13,7,1,1,1,1,TRUE,FALSE,high_2_mask_high,0.75,-1,3,FALSE,5,,,,,,,,,,,,,,,,,,,165,11,3.2.2021,164.9514465
94,"['med', 1, 'low']",1,white,0.940318873,135,right,up,med,low,black_low_135-white_low_45-white_low_135-black_low_45,white_med_135_up,black_med_45_up,12,1.286159124,0.2502946,left,0.1799081,0,12,8,1,0,1,1,TRUE,FALSE,med_1_mask_low,0.75,-1,3,TRUE,5,,,,,,,,,,,,,,,,,,,165,11,3.2.2021,164.9514465
95,"['low', 3, 'low']",3,white,0.538868419,135,right,down,low,low,black_low_135-white_low_135-white_low_45-black_low_45,white_low_135_down,black_low_45_down,4,1.03617755,0.248557,right,0.0927873,1,4,3,0,0,1,1,TRUE,FALSE,low_3_mask_low,0.75,-1,3,TRUE,2,,,,,,,,,,,,,,,,,,,165,11,3.2.2021,164.9514465
96,"['high', 3, 'low']",3,white,0.555435975,45,left,down,high,low,black_low_45-white_low_45-white_low_135-black_low_135,white_high_45_down,black_high_135_down,15,1.077468265,0.2503315,left,0.2584232,1,15,5,1,0,1,1,TRUE,FALSE,high_3_mask_low,0.75,-1,3,FALSE,3,,,,,,,,,,,,,,,,,,,165,11,3.2.2021,164.9514465
97,"['high', 1, 'high']",1,white,0.459921443,135,right,down,high,high,black_high_45-white_high_135-white_high_135-black_high_135,white_high_135_down,black_high_45_down,9,1.768298658,0.248544,right,0.2697457,1,9,3,1,0,1,1,TRUE,FALSE,high_1_mask_high,0.75,-1,3,FALSE,0,,,,,,,,,,,,,,,,,,,165,11,3.2.2021,164.9514465
98,"['low', 1, 'low']",1,black,0.815107758,135,left,down,low,low,white_low_135-black_low_45-black_low_135-white_low_45,black_low_135_down,white_low_45_down,3,1.100600185,0.2485503,right,0.3591491,0,3,5,1,0,1,1,TRUE,FALSE,low_1_mask_low,0.75,-1,3,TRUE,1,,,,,,,,,,,,,,,,,,,165,11,3.2.2021,164.9514465
99,"['med', 2, 'low']",2,black,0.848034688,135,left,down,med,low,black_low_135-white_low_45-white_low_135-black_low_45,black_med_135_down,white_med_45_down,10,1.155445837,0.2485538,right,0.2986849,0,10,6,1,0,1,1,TRUE,FALSE,med_2_mask_low,0.75,-1,3,TRUE,4,,,,,,,,,,,,,,,,,,,165,11,3.2.2021,164.9514465
100,"['high', 3, 'high']",3,white,0.90980746,45,left,up,high,high,black_high_135-black_high_45-white_high_135-white_high_135,white_high_45_up,black_high_135_up,6,1.331128323,0.2467764,left,0.1716672,1,6,2,1,0,1,1,TRUE,FALSE,high_3_mask_high,0.75,-1,3,FALSE,0,,,,,,,,,,,,,,,,,,,165,11,3.2.2021,164.9514465
101,"['low', 2, 'low']",2,white,0.66219839,135,right,up,low,low,black_low_135-white_low_45-white_low_135-black_low_45,white_low_135_up,black_low_45_up,4,1.760763509,0.2467786,right,0.274532,1,4,3,0,0,1,1,TRUE,FALSE,low_2_mask_low,0.75,-1,3,TRUE,2,,,,,,,,,,,,,,,,,,,165,11,3.2.2021,164.9514465
102,"['med', 3, 'high']",3,black,0.481799907,45,right,up,med,high,white_high_135-black_high_135-white_high_135-black_high_45,black_med_45_up,white_med_135_up,7,1.997531283,0.2488485,left,0.1045634,0,7,5,1,0,1,1,TRUE,FALSE,med_3_mask_high,0.75,-1,3,TRUE,2,,,,,,,,,,,,,,,,,,,165,11,3.2.2021,164.9514465
103,"['low', 1, 'low']",1,black,0.879649036,45,right,up,low,low,white_low_45-white_low_135-black_low_135-black_low_45,black_low_45_up,white_low_135_up,6,1.336973238,0.2485434,right,0.3342584,1,6,6,0,0,1,1,TRUE,FALSE,low_1_mask_low,0.75,-1,3,TRUE,2,,,,,,,,,,,,,,,,,,,165,11,3.2.2021,164.9514465
104,"['med', 1, 'low']",1,white,0.778373026,135,right,down,med,low,black_low_135-white_low_135-black_low_45-white_low_45,white_med_135_down,black_med_45_down,15,1.640677931,0.2485571,right,0.0426424,1,15,9,0,1,1,1,TRUE,FALSE,med_1_mask_low,0.75,-1,3,TRUE,6,,,,,,,,,,,,,,,,,,,165,11,3.2.2021,164.9514465
105,"['low', 1, 'high']",1,white,0.405673702,45,left,up,low,high,white_high_135-black_high_45-black_high_135-white_high_135,white_low_45_up,black_low_135_up,6,1.456587815,0.2467095,left,0.1282051,1,6,10,1,0,1,1,TRUE,FALSE,low_1_mask_high,0.75,-1,3,FALSE,4,,,,,,,,,,,,,,,,,,,165,11,3.2.2021,164.9514465
106,"['high', 2, 'high']",2,black,0.577112112,135,left,up,high,high,black_high_135-white_high_135-black_high_45-white_high_135,black_high_135_up,white_high_45_up,12,1.118522559,0.2485474,left,0.5762081,1,12,8,1,1,1,1,TRUE,FALSE,high_2_mask_high,0.75,-1,3,FALSE,5,,,,,,,,,,,,,,,,,,,165,11,3.2.2021,164.9514465
107,"['med', 1, 'high']",1,white,0.336666971,135,right,up,med,high,white_high_135-black_high_135-black_high_45-white_high_135,white_med_135_up,black_med_45_up,12,1.940923788,0.2467761,right,0.1038448,1,12,4,0,0,1,1,TRUE,FALSE,med_1_mask_high,0.75,-1,3,TRUE,2,,,,,,,,,,,,,,,,,,,165,11,3.2.2021,164.9514465
108,"['high', 1, 'high']",1,white,0.219379137,135,right,up,high,high,black_high_45-white_high_135-white_high_135-black_high_135,white_high_135_up,black_high_45_up,8,1.929098875,0.2485486,left,0.4607094,0,8,4,1,0,1,1,TRUE,FALSE,high_1_mask_high,0.75,-1,3,TRUE,1,,,,,,,,,,,,,,,,,,,165,11,3.2.2021,164.9514465
109,"['low', 1, 'low']",1,black,0.012314456,45,right,up,low,low,black_low_45-white_low_45-black_low_135-white_low_135,black_low_45_up,white_low_135_up,5,1.389774904,0.2485366,right,0.2192163,1,5,7,1,0,1,1,TRUE,FALSE,low_1_mask_low,0.75,-1,3,FALSE,2,,,,,,,,,,,,,,,,,,,165,11,3.2.2021,164.9514465
110,"['high', 2, 'high']",2,black,0.666991931,45,right,down,high,high,black_high_135-white_high_135-white_high_135-black_high_45,black_high_45_down,white_high_135_down,11,1.066284213,0.2485388,left,0.1728512,0,11,9,1,1,1,1,TRUE,FALSE,high_2_mask_high,0.75,-1,3,TRUE,6,,,,,,,,,,,,,,,,,,,165,11,3.2.2021,164.9514465
111,"['high', 2, 'low']",2,black,0.716831538,135,left,up,high,low,white_low_45-white_low_135-black_low_45-black_low_135,black_high_135_up,white_high_45_up,11,1.814351268,0.2488568,right,0.0230829,0,11,5,1,0,1,1,TRUE,FALSE,high_2_mask_low,0.75,-1,3,TRUE,2,,,,,,,,,,,,,,,,,,,165,11,3.2.2021,164.9514465
112,"['low', 1, 'low']",1,white,0.132549192,45,left,down,low,low,white_low_45-white_low_135-black_low_135-black_low_45,white_low_45_down,black_low_135_down,4,1.017963838,0.2485471,right,0.7271308,0,4,8,1,0,1,1,TRUE,FALSE,low_1_mask_low,0.75,-1,3,TRUE,3,,,,,,,,,,,,,,,,,,,165,11,3.2.2021,164.9514465
113,"['low', 2, 'low']",2,white,0.36063221,135,right,down,low,low,white_low_135-white_low_45-black_low_45-black_low_135,white_low_135_down,black_low_45_down,3,1.608262661,0.2467225,left,0.1632729,0,3,4,1,0,1,1,TRUE,FALSE,low_2_mask_low,0.75,-1,3,TRUE,3,,,,,,,,,,,,,,,,,,,165,11,3.2.2021,164.9514465
114,"['med', 1, 'low']",1,black,0.553088384,135,left,down,med,low,black_low_135-black_low_45-white_low_45-white_low_135,black_med_135_down,white_med_45_down,14,1.888116009,0.2485428,right,0.1881302,0,14,10,1,1,1,1,TRUE,FALSE,med_1_mask_low,0.75,-1,3,TRUE,7,,,,,,,,,,,,,,,,,,,165,11,3.2.2021,164.9514465
115,"['low', 3, 'high']",3,white,0.061597257,135,right,down,low,high,white_high_135-white_high_135-black_high_45-black_high_135,white_low_135_down,black_low_45_down,10,1.871389212,0.2485584,left,0.2999917,0,10,5,1,0,1,1,TRUE,FALSE,low_3_mask_high,0.75,-1,3,TRUE,4,,,,,,,,,,,,,,,,,,,165,11,3.2.2021,164.9514465
116,"['high', 1, 'high']",1,black,0.68926739,135,left,down,high,high,white_high_135-black_high_45-black_high_135-white_high_135,black_high_135_down,white_high_45_down,11,1.430623271,0.2485446,right,0.0815495,0,11,5,0,0,1,1,TRUE,FALSE,high_1_mask_high,0.75,-1,3,FALSE,1,,,,,,,,,,,,,,,,,,,165,11,3.2.2021,164.9514465
117,"['high', 1, 'high']",1,black,0.011169636,135,left,down,high,high,white_high_135-white_high_135-black_high_135-black_high_45,black_high_135_down,white_high_45_down,14,1.232062517,0.2449785,right,0.1883584,0,14,6,0,0,1,1,TRUE,FALSE,high_1_mask_high,0.75,-1,3,FALSE,1,,,,,,,,,,,,,,,,,,,165,11,3.2.2021,164.9514465
118,"['med', 2, 'high']",2,white,0.378551588,135,right,down,med,high,black_high_135-white_high_135-white_high_135-black_high_45,white_med_135_down,black_med_45_down,6,1.074631195,0.2485427,left,0.1614719,0,6,2,1,0,1,1,TRUE,FALSE,med_2_mask_high,0.75,-1,3,TRUE,1,,,,,,,,,,,,,,,,,,,165,11,3.2.2021,164.9514465
119,"['med', 1, 'high']",1,black,0.223781343,135,left,up,med,high,black_high_45-white_high_135-black_high_135-white_high_135,black_med_135_up,white_med_45_up,11,1.296772564,0.2485448,right,0.7787316,0,11,5,1,0,1,1,TRUE,FALSE,med_1_mask_high,0.75,-1,3,TRUE,3,,,,,,,,,,,,,,,,,,,165,11,3.2.2021,164.9514465
120,"['med', 3, 'low']",3,black,0.421559897,135,left,up,med,low,white_low_135-black_low_45-white_low_45-black_low_135,black_med_135_up,white_med_45_up,10,1.178707713,0.2485578,right,0.2301647,0,10,6,1,0,1,1,TRUE,FALSE,med_3_mask_low,0.75,-1,3,TRUE,4,,,,,,,,,,,,,,,,,,,165,11,3.2.2021,164.9514465
121,"['high', 1, 'high']",1,black,0.246208916,135,left,up,high,high,white_high_135-white_high_135-black_high_135-black_high_45,black_high_135_up,white_high_45_up,17,1.604282677,0.2485457,right,0.1689496,0,17,7,0,0,1,1,TRUE,FALSE,high_1_mask_high,0.75,-1,3,FALSE,1,,,,,,,,,,,,,,,,,,,165,11,3.2.2021,164.9514465
122,"['low', 1, 'high']",1,black,0.39919748,45,right,down,low,high,white_high_135-black_high_45-black_high_135-white_high_135,black_low_45_down,white_low_135_down,5,1.64736178,0.2485425,right,0.2272483,1,5,11,1,0,1,1,TRUE,FALSE,low_1_mask_high,0.75,-1,3,FALSE,4,,,,,,,,,,,,,,,,,,,165,11,3.2.2021,164.9514465
123,"['high', 3, 'low']",3,white,0.509826389,135,right,down,high,low,black_low_45-black_low_135-white_low_135-white_low_45,white_high_135_down,black_high_45_down,14,1.656109548,0.2485503,right,0.136954,1,14,6,1,0,1,1,TRUE,FALSE,high_3_mask_low,0.75,-1,3,FALSE,3,,,,,,,,,,,,,,,,,,,165,11,3.2.2021,164.9514465
124,"['med', 2, 'low']",2,black,0.980543093,45,right,up,med,low,white_low_45-black_low_45-black_low_135-white_low_135,black_med_45_up,white_med_135_up,13,1.84070827,0.2485501,right,0.183693,1,13,7,0,0,1,1,TRUE,FALSE,med_2_mask_low,0.75,-1,3,TRUE,5,,,,,,,,,,,,,,,,,,,165,11,3.2.2021,164.9514465
125,"['high', 1, 'high']",1,black,0.613740799,135,left,down,high,high,black_high_135-black_high_45-white_high_135-white_high_135,black_high_135_down,white_high_45_down,20,1.259586543,0.2449839,right,0.1549232,0,20,8,0,0,1,1,TRUE,FALSE,high_1_mask_high,0.75,-1,3,FALSE,1,,,,,,,,,,,,,,,,,,,165,11,3.2.2021,164.9514465
126,"['high', 1, 'high']",1,black,0.341959614,45,right,down,high,high,black_high_45-black_high_135-white_high_135-white_high_135,black_high_45_down,white_high_135_down,23,1.177045441,0.2485374,right,0.471017,1,23,9,0,0,1,1,TRUE,FALSE,high_1_mask_high,0.75,-1,3,TRUE,2,,,,,,,,,,,,,,,,,,,165,11,3.2.2021,164.9514465
127,"['high', 3, 'low']",3,black,0.190407038,45,right,down,high,low,black_low_135-white_low_45-white_low_135-black_low_45,black_high_45_down,white_high_135_down,13,1.306782138,0.2485511,left,0.2496564,0,13,7,1,0,1,1,TRUE,FALSE,high_3_mask_low,0.75,-1,3,TRUE,4,,,,,,,,,,,,,,,,,,,165,11,3.2.2021,164.9514465
128,"['low', 3, 'high']",3,white,0.579442808,135,right,up,low,high,white_high_135-black_high_135-black_high_45-white_high_135,white_low_135_up,black_low_45_up,13,1.379209713,0.2485458,right,0.0630367,1,13,6,0,0,1,1,TRUE,FALSE,low_3_mask_high,0.75,-1,3,TRUE,5,,,,,,,,,,,,,,,,,,,165,11,3.2.2021,164.9514465
129,"['high', 2, 'low']",2,white,0.048984429,135,right,up,high,low,black_low_45-white_low_45-black_low_135-white_low_135,white_high_135_up,black_high_45_up,14,1.13750019,0.2467466,right,0.2460469,1,14,6,0,0,1,1,TRUE,FALSE,high_2_mask_low,0.75,-1,3,TRUE,3,,,,,,,,,,,,,,,,,,,165,11,3.2.2021,164.9514465
130,"['med', 2, 'high']",2,black,0.359784507,45,right,up,med,high,black_high_45-white_high_135-white_high_135-black_high_135,black_med_45_up,white_med_135_up,9,1.789996036,0.2467705,right,0.3651646,1,9,3,0,0,1,1,TRUE,FALSE,med_2_mask_high,0.75,-1,3,TRUE,2,,,,,,,,,,,,,,,,,,,165,11,3.2.2021,164.9514465
131,"['med', 2, 'low']",2,black,0.399670558,135,left,down,med,low,white_low_135-black_low_135-white_low_45-black_low_45,black_med_135_down,white_med_45_down,12,1.423531645,0.2502865,left,0.2541076,1,12,8,1,1,1,1,TRUE,FALSE,med_2_mask_low,0.75,-1,3,FALSE,5,,,,,,,,,,,,,,,,,,,165,11,3.2.2021,164.9514465
132,"['low', 3, 'high']",3,black,0.375364873,135,left,up,low,high,white_high_135-black_high_135-black_high_45-white_high_135,black_low_135_up,white_low_45_up,12,1.852484351,0.2485468,left,0.2851407,1,12,7,1,1,1,1,TRUE,FALSE,low_3_mask_high,0.75,-1,3,FALSE,5,,,,,,,,,,,,,,,,,,,165,11,3.2.2021,164.9514465
133,"['low', 2, 'high']",2,white,0.512512636,135,right,up,low,high,black_high_135-white_high_135-white_high_135-black_high_45,white_low_135_up,black_low_45_up,4,1.212537292,0.2488454,right,0.1306258,1,4,7,0,0,1,1,TRUE,FALSE,low_2_mask_high,0.75,-1,3,TRUE,2,,,,,,,,,,,,,,,,,,,165,11,3.2.2021,164.9514465
134,"['med', 3, 'low']",3,white,0.835681866,45,left,up,med,low,black_low_45-white_low_45-white_low_135-black_low_135,white_med_45_up,black_med_135_up,13,1.076787079,0.2485531,left,0.053372,1,13,7,0,0,1,1,TRUE,FALSE,med_3_mask_low,0.75,-1,3,TRUE,5,,,,,,,,,,,,,,,,,,,165,11,3.2.2021,164.9514465
135,"['low', 3, 'high']",3,white,0.388591047,135,right,down,low,high,black_high_45-black_high_135-white_high_135-white_high_135,white_low_135_down,black_low_45_down,11,1.002437297,0.248541,right,0.0425785,1,11,8,1,1,1,1,TRUE,FALSE,low_3_mask_high,0.75,-1,3,FALSE,5,,,,,,,,,,,,,,,,,,,165,11,3.2.2021,164.9514465
136,"['high', 1, 'high']",1,white,0.606841666,45,left,down,high,high,black_high_45-black_high_135-white_high_135-white_high_135,white_high_45_down,black_high_135_down,22,1.179076563,0.2488463,left,0.3473342,1,22,10,1,0,1,1,TRUE,FALSE,high_1_mask_high,0.75,-1,3,FALSE,2,,,,,,,,,,,,,,,,,,,165,11,3.2.2021,164.9514465
137,"['med', 1, 'high']",1,white,0.252869107,45,left,up,med,high,black_high_45-white_high_135-black_high_135-white_high_135,white_med_45_up,black_med_135_up,14,1.593016861,0.2467095,left,0.1357245,1,14,6,0,0,1,1,TRUE,FALSE,med_1_mask_high,0.75,-1,3,TRUE,4,,,,,,,,,,,,,,,,,,,165,11,3.2.2021,164.9514465
138,"['med', 2, 'high']",2,black,0.800782415,45,right,down,med,high,white_high_135-black_high_45-white_high_135-black_high_135,black_med_45_down,white_med_135_down,8,1.331687673,0.2485449,right,0.1302155,1,8,4,1,0,1,1,TRUE,FALSE,med_2_mask_high,0.75,-1,3,FALSE,2,,,,,,,,,,,,,,,,,,,165,11,3.2.2021,164.9514465
139,"['low', 3, 'high']",3,white,0.601183341,45,left,up,low,high,white_high_135-black_high_45-white_high_135-black_high_135,white_low_45_up,black_low_135_up,10,1.58220484,0.2485485,left,0.0496061,1,10,9,1,1,1,1,TRUE,FALSE,low_3_mask_high,0.75,-1,3,FALSE,5,,,,,,,,,,,,,,,,,,,165,11,3.2.2021,164.9514465
140,"['low', 2, 'low']",2,white,0.483625067,135,right,down,low,low,white_low_135-white_low_45-black_low_45-black_low_135,white_low_135_down,black_low_45_down,6,1.469500331,0.2485582,right,0.052178,1,6,5,0,0,1,1,TRUE,FALSE,low_2_mask_low,0.75,-1,3,TRUE,4,,,,,,,,,,,,,,,,,,,165,11,3.2.2021,164.9514465
141,"['med', 3, 'high']",3,white,0.312150457,45,left,down,med,high,white_high_135-white_high_135-black_high_135-black_high_45,white_med_45_down,black_med_135_down,10,1.384505012,0.2485569,right,0.1396465,0,10,6,0,0,1,1,TRUE,FALSE,med_3_mask_high,0.75,-1,3,FALSE,2,,,,,,,,,,,,,,,,,,,165,11,3.2.2021,164.9514465
142,"['high', 2, 'low']",2,black,0.584921797,45,right,up,high,low,black_low_135-white_low_45-white_low_135-black_low_45,black_high_45_up,white_high_135_up,13,1.682896839,0.2485479,left,0.3296086,0,13,7,1,0,1,1,TRUE,FALSE,high_2_mask_low,0.75,-1,3,TRUE,4,,,,,,,,,,,,,,,,,,,165,11,3.2.2021,164.9514465
143,"['med', 2, 'low']",2,black,0.985733543,45,right,up,med,low,white_low_135-black_low_135-black_low_45-white_low_45,black_med_45_up,white_med_135_up,11,1.507730985,0.2503074,right,0.1742562,1,11,9,1,1,1,1,TRUE,FALSE,med_2_mask_low,0.75,-1,3,FALSE,5,,,,,,,,,,,,,,,,,,,165,11,3.2.2021,164.9514465
144,"['low', 2, 'low']",2,white,0.554234047,135,right,down,low,low,white_low_45-black_low_45-white_low_135-black_low_135,white_low_135_down,black_low_45_down,5,1.512512025,0.2485423,right,0.1088954,1,5,6,1,0,1,1,TRUE,FALSE,low_2_mask_low,0.75,-1,3,FALSE,4,,,,,,,,,,,,,,,,,,,165,11,3.2.2021,164.9514465
145,"['low', 1, 'low']",1,white,0.591614041,135,right,down,low,low,white_low_45-white_low_135-black_low_135-black_low_45,white_low_135_down,black_low_45_down,7,1.32997218,0.2467707,right,0.1851203,1,7,9,0,0,1,1,TRUE,FALSE,low_1_mask_low,0.75,-1,3,TRUE,4,,,,,,,,,,,,,,,,,,,165,11,3.2.2021,164.9514465
146,"['low', 2, 'low']",2,white,0.590082008,135,right,up,low,low,white_low_45-black_low_135-black_low_45-white_low_135,white_low_135_up,black_low_45_up,4,1.445054946,0.2467685,right,0.2175972,1,4,7,1,0,1,1,TRUE,FALSE,low_2_mask_low,0.75,-1,3,FALSE,4,,,,,,,,,,,,,,,,,,,165,11,3.2.2021,164.9514465
147,"['med', 1, 'high']",1,white,0.285180817,45,left,down,med,high,white_high_135-black_high_45-white_high_135-black_high_135,white_med_45_down,black_med_135_down,13,1.698860733,0.2467719,left,0.0887794,1,13,7,1,0,1,1,TRUE,FALSE,med_1_mask_high,0.75,-1,3,FALSE,4,,,,,,,,,,,,,,,,,,,165,11,3.2.2021,164.9514465
148,"['high', 1, 'high']",1,white,0.059565268,45,left,down,high,high,white_high_135-white_high_135-black_high_45-black_high_135,white_high_45_down,black_high_135_down,21,1.425530214,0.248554,left,0.4463203,1,21,11,1,0,1,1,TRUE,FALSE,high_1_mask_high,0.75,-1,3,FALSE,2,,,,,,,,,,,,,,,,,,,165,11,3.2.2021,164.9514465
149,"['med', 3, 'high']",3,white,0.735928931,45,left,down,med,high,black_high_45-black_high_135-white_high_135-white_high_135,white_med_45_down,black_med_135_down,13,1.304542039,0.2485412,left,0.0627269,1,13,7,0,0,1,1,TRUE,FALSE,med_3_mask_high,0.75,-1,3,TRUE,3,,,,,,,,,,,,,,,,,,,165,11,3.2.2021,164.9514465
150,"['low', 2, 'high']",2,white,0.358256191,45,left,up,low,high,black_high_45-black_high_135-white_high_135-white_high_135,white_low_45_up,black_low_135_up,3,1.053720005,0.248543,left,0.2138033,1,3,8,1,0,1,1,TRUE,FALSE,low_2_mask_high,0.75,-1,3,FALSE,2,,,,,,,,,,,,,,,,,,,165,11,3.2.2021,164.9514465
151,"['med', 3, 'low']",3,white,0.312297391,45,left,down,med,low,white_low_45-black_low_45-black_low_135-white_low_135,white_med_45_down,black_med_135_down,12,1.671372374,0.2470602,left,0.1337058,1,12,8,1,1,1,1,TRUE,FALSE,med_3_mask_low,0.75,-1,3,FALSE,5,,,,,,,,,,,,,,,,,,,165,11,3.2.2021,164.9514465
152,"['low', 3, 'high']",3,black,0.378515501,45,right,up,low,high,white_high_135-white_high_135-black_high_45-black_high_135,black_low_45_up,white_low_135_up,9,1.168934332,0.2503037,left,0.1398652,0,9,10,1,1,1,1,TRUE,FALSE,low_3_mask_high,0.75,-1,3,TRUE,6,,,,,,,,,,,,,,,,,,,165,11,3.2.2021,164.9514465
153,"['med', 2, 'high']",2,black,0.065315092,135,left,down,med,high,white_high_135-black_high_45-black_high_135-white_high_135,black_med_135_down,white_med_45_down,7,1.813442474,0.2502928,right,0.1050947,0,7,5,1,0,1,1,TRUE,FALSE,med_2_mask_high,0.75,-1,3,TRUE,3,,,,,,,,,,,,,,,,,,,165,11,3.2.2021,164.9514465
154,"['low', 1, 'high']",1,white,0.896952844,45,left,up,low,high,white_high_135-white_high_135-black_high_135-black_high_45,white_low_45_up,black_low_135_up,4,1.597867806,0.2485447,left,1.1351637,1,4,12,1,0,1,1,TRUE,FALSE,low_1_mask_high,0.75,-1,3,FALSE,4,,,,,,,,,,,,,,,,,,,165,11,3.2.2021,164.9514465
155,"['low', 3, 'low']",3,white,0.818724376,45,left,down,low,low,black_low_45-white_low_45-white_low_135-black_low_135,white_low_45_down,black_low_135_down,3,1.801218535,0.2467551,left,0.2048137,1,3,4,1,0,1,1,TRUE,FALSE,low_3_mask_low,0.75,-1,3,FALSE,2,,,,,,,,,,,,,,,,,,,165,11,3.2.2021,164.9514465
156,"['high', 3, 'low']",3,black,0.393477881,135,left,down,high,low,black_low_135-white_low_45-black_low_45-white_low_135,black_high_135_down,white_high_45_down,16,1.4537358,0.2488431,right,0.2234808,0,16,8,0,0,1,1,TRUE,FALSE,high_3_mask_low,0.75,-1,3,FALSE,4,,,,,,,,,,,,,,,,,,,165,11,3.2.2021,164.9514465
157,"['med', 1, 'high']",1,black,0.876494816,45,right,down,med,high,white_high_135-white_high_135-black_high_135-black_high_45,black_med_45_down,white_med_135_down,12,1.477280666,0.2449883,right,0.3051344,1,12,8,1,0,1,1,TRUE,FALSE,med_1_mask_high,0.75,-1,3,FALSE,4,,,,,,,,,,,,,,,,,,,165,11,3.2.2021,164.9514465
158,"['high', 2, 'high']",2,black,0.252720562,45,right,up,high,high,black_high_45-white_high_135-white_high_135-black_high_135,black_high_45_up,white_high_135_up,14,1.699040662,0.2485429,left,0.0744051,0,14,10,0,1,1,1,TRUE,FALSE,high_2_mask_high,0.75,-1,3,FALSE,6,,,,,,,,,,,,,,,,,,,165,11,3.2.2021,164.9514465
159,"['low', 3, 'high']",3,black,0.672719164,135,left,up,low,high,white_high_135-black_high_45-black_high_135-white_high_135,black_low_135_up,white_low_45_up,12,1.15477714,0.2488395,left,0.3735157,1,12,11,0,1,1,1,TRUE,FALSE,low_3_mask_high,0.75,-1,3,TRUE,7,,,,,,,,,,,,,,,,,,,165,11,3.2.2021,164.9514465
160,"['high', 2, 'low']",2,white,0.509518749,135,right,down,high,low,white_low_45-black_low_135-white_low_135-black_low_45,white_high_135_down,black_high_45_down,16,1.687585573,0.248534,right,0.0942358,1,16,8,0,0,1,1,TRUE,FALSE,high_2_mask_low,0.75,-1,3,TRUE,5,,,,,,,,,,,,,,,,,,,165,11,3.2.2021,164.9514465
161,"['high', 2, 'high']",2,white,0.78947331,45,left,up,high,high,white_high_135-black_high_45-black_high_135-white_high_135,white_high_45_up,black_high_135_up,17,1.029458764,0.248556,left,0.092643,1,17,11,0,1,1,1,TRUE,FALSE,high_2_mask_high,0.75,-1,3,TRUE,7,,,,,,,,,,,,,,,,,,,165,11,3.2.2021,164.9514465
162,"['low', 2, 'high']",2,black,0.116549052,135,left,down,low,high,white_high_135-black_high_135-black_high_45-white_high_135,black_low_135_down,white_low_45_down,2,1.236975852,0.2485466,right,0.2321216,0,2,9,1,0,1,1,TRUE,FALSE,low_2_mask_high,0.75,-1,3,TRUE,3,,,,,,,,,,,,,,,,,,,165,11,3.2.2021,164.9514465
163,"['med', 3, 'high']",3,white,0.801824174,45,left,up,med,high,black_high_45-white_high_135-white_high_135-black_high_135,white_med_45_up,black_med_135_up,12,1.69969662,0.248548,left,0.0593117,1,12,8,1,0,1,1,TRUE,FALSE,med_3_mask_high,0.75,-1,3,FALSE,3,,,,,,,,,,,,,,,,,,,165,11,3.2.2021,164.9514465
164,"['low', 3, 'low']",3,white,0.151525618,45,left,up,low,low,white_low_135-black_low_45-white_low_45-black_low_135,white_low_45_up,black_low_135_up,2,1.06619222,0.2485496,left,0.7063265,1,2,5,1,0,1,1,TRUE,FALSE,low_3_mask_low,0.75,-1,3,FALSE,2,,,,,,,,,,,,,,,,,,,165,11,3.2.2021,164.9514465
165,"['low', 1, 'high']",1,black,0.285224881,45,right,up,low,high,black_high_45-black_high_135-white_high_135-white_high_135,black_low_45_up,white_low_135_up,3,1.176150192,0.2485195,left,0.4372899,0,3,13,1,0,1,1,TRUE,FALSE,low_1_mask_high,0.75,-1,3,TRUE,5,,,,,,,,,,,,,,,,,,,165,11,3.2.2021,164.9514465
166,"['low', 1, 'low']",1,black,0.562674259,45,right,up,low,low,black_low_45-black_low_135-white_low_135-white_low_45,black_low_45_up,white_low_135_up,6,1.225509473,0.2485459,right,0.188856,1,6,10,1,0,1,1,TRUE,FALSE,low_1_mask_low,0.75,-1,3,FALSE,4,,,,,,,,,,,,,,,,,,,165,11,3.2.2021,164.9514465
167,"['med', 3, 'high']",3,white,0.600229892,135,right,down,med,high,black_high_135-white_high_135-white_high_135-black_high_45,white_med_135_down,black_med_45_down,11,1.393027541,0.248544,right,0.4048221,1,11,9,1,0,1,1,TRUE,FALSE,med_3_mask_high,0.75,-1,3,FALSE,3,,,,,,,,,,,,,,,,,,,165,11,3.2.2021,164.9514465
168,"['low', 3, 'low']",3,white,0.390333669,45,left,down,low,low,white_low_135-black_low_135-white_low_45-black_low_45,white_low_45_down,black_low_135_down,1,1.952116793,0.2485403,right,0.4697602,0,1,6,1,0,1,1,TRUE,FALSE,low_3_mask_low,0.75,-1,3,TRUE,3,,,,,,,,,,,,,,,,,,,165,11,3.2.2021,164.9514465
169,"['med', 3, 'low']",3,white,0.454044724,135,right,down,med,low,black_low_45-white_low_135-white_low_45-black_low_135,white_med_135_down,black_med_45_down,11,1.61624167,0.2485534,right,0.3657527,1,11,9,1,1,1,1,TRUE,FALSE,med_3_mask_low,0.75,-1,3,FALSE,5,,,,,,,,,,,,,,,,,,,165,11,3.2.2021,164.9514465
170,"['med', 2, 'high']",2,white,0.591017325,135,right,up,med,high,black_high_135-black_high_45-white_high_135-white_high_135,white_med_135_up,black_med_45_up,10,1.827726902,0.248551,left,0.035797,0,10,6,0,0,1,1,TRUE,FALSE,med_2_mask_high,0.75,-1,3,FALSE,3,,,,,,,,,,,,,,,,,,,165,11,3.2.2021,164.9514465
171,"['high', 2, 'low']",2,white,0.959792068,45,left,up,high,low,white_low_135-white_low_45-black_low_45-black_low_135,white_high_45_up,black_high_135_up,15,1.154470963,0.2488444,left,0.107152,1,15,9,1,1,1,1,TRUE,FALSE,high_2_mask_low,0.75,-1,3,FALSE,5,,,,,,,,,,,,,,,,,,,165,11,3.2.2021,164.9514465
172,"['med', 1, 'low']",1,white,0.046345812,135,right,down,med,low,white_low_45-white_low_135-black_low_135-black_low_45,white_med_135_down,black_med_45_down,17,1.33565059,0.2449828,right,0.0478707,1,17,11,0,1,1,1,TRUE,FALSE,med_1_mask_low,0.75,-1,3,TRUE,8,,,,,,,,,,,,,,,,,,,165,11,3.2.2021,164.9514465
173,"['high', 2, 'high']",2,white,0.591348159,135,right,down,high,high,black_high_135-white_high_135-white_high_135-black_high_45,white_high_135_down,black_high_45_down,16,1.38920987,0.2488608,right,0.4175349,1,16,12,1,1,1,1,TRUE,FALSE,high_2_mask_high,0.75,-1,3,FALSE,7,,,,,,,,,,,,,,,,,,,165,11,3.2.2021,164.9514465
174,"['med', 1, 'low']",1,black,0.435581186,45,right,up,med,low,black_low_45-white_low_45-black_low_135-white_low_135,black_med_45_up,white_med_135_up,16,1.336809553,0.2485468,left,0.0846151,0,16,12,1,1,1,1,TRUE,FALSE,med_1_mask_low,0.75,-1,3,TRUE,9,,,,,,,,,,,,,,,,,,,165,11,3.2.2021,164.9514465
175,"['high', 2, 'high']",2,white,0.404189872,135,right,up,high,high,white_high_135-black_high_45-white_high_135-black_high_135,white_high_135_up,black_high_45_up,15,1.505763684,0.2485398,right,0.2771631,1,15,13,1,1,1,1,TRUE,FALSE,high_2_mask_high,0.75,-1,3,FALSE,7,,,,,,,,,,,,,,,,,,,165,11,3.2.2021,164.9514465
176,"['low', 2, 'high']",2,black,0.23803349,135,left,down,low,high,black_high_45-white_high_135-black_high_135-white_high_135,black_low_135_down,white_low_45_down,5,1.461914718,0.2503152,left,0.242948,1,5,10,0,0,1,1,TRUE,FALSE,low_2_mask_high,0.75,-1,3,TRUE,4,,,,,,,,,,,,,,,,,,,165,11,3.2.2021,164.9514465
177,"['low', 2, 'low']",2,black,0.657154839,45,right,down,low,low,black_low_135-white_low_45-black_low_45-white_low_135,black_low_45_down,white_low_135_down,3,1.541705316,0.2485483,left,0.1980232,0,3,8,1,0,1,1,TRUE,FALSE,low_2_mask_low,0.75,-1,3,TRUE,5,,,,,,,,,,,,,,,,,,,165,11,3.2.2021,164.9514465
178,"['med', 3, 'high']",3,white,0.934600294,45,left,up,med,high,black_high_45-black_high_135-white_high_135-white_high_135,white_med_45_up,black_med_135_up,10,1.83732668,0.2485435,left,0.0749886,1,10,10,1,0,1,1,TRUE,FALSE,med_3_mask_high,0.75,-1,3,FALSE,3,,,,,,,,,,,,,,,,,,,165,11,3.2.2021,164.9514465
179,"['low', 3, 'low']",3,white,0.108158215,45,left,down,low,low,white_low_135-black_low_135-black_low_45-white_low_45,white_low_45_down,black_low_135_down,4,1.754079551,0.2467592,left,0.2883792,1,4,7,0,0,1,1,TRUE,FALSE,low_3_mask_low,0.75,-1,3,TRUE,4,,,,,,,,,,,,,,,,,,,165,11,3.2.2021,164.9514465
180,"['med', 1, 'high']",1,white,0.047321361,45,left,up,med,high,white_high_135-black_high_135-white_high_135-black_high_45,white_med_45_up,black_med_135_up,11,1.44003714,0.2485422,left,0.1705835,1,11,9,1,0,1,1,TRUE,FALSE,med_1_mask_high,0.75,-1,3,FALSE,4,,,,,,,,,,,,,,,,,,,165,11,3.2.2021,164.9514465
181,"['low', 3, 'low']",3,black,0.502730089,45,right,down,low,low,white_low_135-black_low_45-black_low_135-white_low_45,black_low_45_down,white_low_135_down,3,1.661441384,0.2485446,right,0.21167,1,3,8,1,0,1,1,TRUE,FALSE,low_3_mask_low,0.75,-1,3,FALSE,4,,,,,,,,,,,,,,,,,,,165,11,3.2.2021,164.9514465
182,"['high', 1, 'low']",1,white,0.571921845,135,right,down,high,low,white_low_45-black_low_135-black_low_45-white_low_135,white_high_135_down,black_high_45_down,25,1.980051358,0.248546,right,0.3071576,1,25,7,0,0,1,1,TRUE,FALSE,high_1_mask_low,0.75,-1,3,TRUE,2,,,,,,,,,,,,,,,,,,,165,11,3.2.2021,164.9514465
183,"['med', 2, 'high']",2,white,0.191288689,135,right,up,med,high,black_high_45-white_high_135-white_high_135-black_high_135,white_med_135_up,black_med_45_up,13,1.566624457,0.2485393,right,0.0894713,1,13,7,0,0,1,1,TRUE,FALSE,med_2_mask_high,0.75,-1,3,TRUE,4,,,,,,,,,,,,,,,,,,,165,11,3.2.2021,164.9514465
184,"['high', 3, 'low']",3,white,0.164667877,135,right,up,high,low,white_low_135-black_low_135-white_low_45-black_low_45,white_high_135_up,black_high_45_up,19,1.211895697,0.247071,right,0.1769145,1,19,9,0,0,1,1,TRUE,FALSE,high_3_mask_low,0.75,-1,3,TRUE,5,,,,,,,,,,,,,,,,,,,165,11,3.2.2021,164.9514465
185,"['high', 3, 'low']",3,black,0.192940542,45,right,up,high,low,white_low_45-white_low_135-black_low_135-black_low_45,black_high_45_up,white_high_135_up,18,1.145123451,0.2470582,right,0.0657629,1,18,10,1,1,1,1,TRUE,FALSE,high_3_mask_low,0.75,-1,3,FALSE,5,,,,,,,,,,,,,,,,,,,165,11,3.2.2021,164.9514465
186,"['med', 2, 'low']",2,white,0.525926787,135,right,up,med,low,black_low_45-white_low_135-white_low_45-black_low_135,white_med_135_up,black_med_45_up,10,1.032005233,0.2485461,right,0.2088898,1,10,10,1,1,1,1,TRUE,FALSE,med_2_mask_low,0.75,-1,3,FALSE,5,,,,,,,,,,,,,,,,,,,165,11,3.2.2021,164.9514465
187,"['high', 3, 'high']",3,black,0.477816141,135,left,up,high,high,white_high_135-black_high_135-black_high_45-white_high_135,black_high_135_up,white_high_45_up,5,1.791362185,0.2467689,left,0.2203234,1,5,3,1,0,1,1,TRUE,FALSE,high_3_mask_high,0.75,-1,3,FALSE,0,,,,,,,,,,,,,,,,,,,165,11,3.2.2021,164.9514465
188,"['low', 2, 'low']",2,white,0.61229454,45,left,down,low,low,white_low_135-black_low_45-white_low_45-black_low_135,white_low_45_down,black_low_135_down,6,1.683182666,0.2467663,left,0.2023173,1,6,9,0,1,1,1,TRUE,FALSE,low_2_mask_low,0.75,-1,3,TRUE,6,,,,,,,,,,,,,,,,,,,165,11,3.2.2021,164.9514465
189,"['high', 2, 'high']",2,black,0.160044683,135,left,up,high,high,white_high_135-black_high_45-black_high_135-white_high_135,black_high_135_up,white_high_45_up,14,1.936247631,0.2485462,right,0.0744503,0,14,14,1,1,1,1,TRUE,FALSE,high_2_mask_high,0.75,-1,3,TRUE,8,,,,,,,,,,,,,,,,,,,165,11,3.2.2021,164.9514465
190,"['high', 1, 'high']",1,white,0.28767453,45,left,up,high,high,black_high_135-black_high_45-white_high_135-white_high_135,white_high_45_up,black_high_135_up,20,1.563801676,0.2485442,left,0.1894998,1,20,12,1,0,1,1,TRUE,FALSE,high_1_mask_high,0.75,-1,3,FALSE,2,,,,,,,,,,,,,,,,,,,165,11,3.2.2021,164.9514465
191,"['low', 3, 'high']",3,black,0.62461541,135,left,down,low,high,white_high_135-black_high_45-white_high_135-black_high_135,black_low_135_down,white_low_45_down,11,1.442019848,0.2485368,right,0.3646697,0,11,12,1,1,1,1,TRUE,FALSE,low_3_mask_high,0.75,-1,3,TRUE,8,,,,,,,,,,,,,,,,,,,165,11,3.2.2021,164.9514465
192,"['med', 1, 'high']",1,black,0.995409547,45,right,down,med,high,black_high_135-white_high_135-black_high_45-white_high_135,black_med_45_down,white_med_135_down,10,1.061913144,0.2485478,right,0.1498098,1,10,10,1,0,1,1,TRUE,FALSE,med_1_mask_high,0.75,-1,3,FALSE,4,,,,,,,,,,,,,,,,,,,165,11,3.2.2021,164.9514465
193,"['high', 1, 'high']",1,black,0.341321429,135,left,up,high,high,white_high_135-white_high_135-black_high_45-black_high_135,black_high_135_up,white_high_45_up,19,1.078778292,0.2467826,left,0.2764119,1,19,13,1,0,1,1,TRUE,FALSE,high_1_mask_high,0.75,-1,3,FALSE,2,,,,,,,,,,,,,,,,,,,165,11,3.2.2021,164.9514465
194,"['low', 1, 'high']",1,black,0.707065338,45,right,up,low,high,black_high_135-white_high_135-white_high_135-black_high_45,black_low_45_up,white_low_135_up,6,1.754250841,0.2467773,right,0.2033408,1,6,14,0,1,1,1,TRUE,FALSE,low_1_mask_high,0.75,-1,3,TRUE,6,,,,,,,,,,,,,,,,,,,165,11,3.2.2021,164.9514465
195,"['high', 3, 'low']",3,white,0.708345815,45,left,down,high,low,black_low_45-white_low_45-white_low_135-black_low_135,white_high_45_down,black_high_135_down,17,1.459293297,0.2488394,left,0.1244117,1,17,11,1,1,1,1,TRUE,FALSE,high_3_mask_low,0.75,-1,3,FALSE,5,,,,,,,,,,,,,,,,,,,165,11,3.2.2021,164.9514465
196,"['med', 3, 'low']",3,white,0.605330008,45,left,up,med,low,white_low_135-black_low_45-white_low_45-black_low_135,white_med_45_up,black_med_135_up,10,1.101065994,0.2485417,left,0.1545818,1,10,10,1,1,1,1,TRUE,FALSE,med_3_mask_low,0.75,-1,3,FALSE,5,,,,,,,,,,,,,,,,,,,165,11,3.2.2021,164.9514465
197,"['high', 3, 'high']",3,black,0.732915496,135,left,up,high,high,white_high_135-black_high_45-black_high_135-white_high_135,black_high_135_up,white_high_45_up,4,1.268936215,0.2485413,left,0.2484583,1,4,4,1,0,1,1,TRUE,FALSE,high_3_mask_high,0.75,-1,3,FALSE,0,,,,,,,,,,,,,,,,,,,165,11,3.2.2021,164.9514465
198,"['low', 2, 'high']",2,white,0.050845745,135,right,down,low,high,black_high_45-white_high_135-white_high_135-black_high_135,white_low_135_down,black_low_45_down,4,1.802842676,0.2467786,right,0.2527273,1,4,11,1,0,1,1,TRUE,FALSE,low_2_mask_high,0.75,-1,3,FALSE,4,,,,,,,,,,,,,,,,,,,165,11,3.2.2021,164.9514465
199,"['high', 3, 'high']",3,white,0.26692269,45,left,up,high,high,white_high_135-white_high_135-black_high_135-black_high_45,white_high_45_up,black_high_135_up,3,1.827909617,0.2488467,left,0.2483762,1,3,5,1,0,1,1,TRUE,FALSE,high_3_mask_high,0.75,-1,3,FALSE,0,,,,,,,,,,,,,,,,,,,165,11,3.2.2021,164.9514465
200,"['low', 3, 'low']",3,white,0.775278657,135,right,down,low,low,white_low_135-black_low_45-white_low_45-black_low_135,white_low_135_down,black_low_45_down,2,1.023586159,0.2470566,right,0.2411759,1,2,9,1,0,1,1,TRUE,FALSE,low_3_mask_low,0.75,-1,3,FALSE,4,,,,,,,,,,,,,,,,,,,165,11,3.2.2021,164.9514465
201,"['high', 2, 'low']",2,black,0.039033467,135,left,up,high,low,white_low_45-black_low_45-black_low_135-white_low_135,black_high_135_up,white_high_45_up,14,1.759763295,0.2485534,right,0.4517641,0,14,10,1,1,1,1,TRUE,FALSE,high_2_mask_low,0.75,-1,3,TRUE,6,,,,,,,,,,,,,,,,,,,165,11,3.2.2021,164.9514465
202,"['high', 1, 'low']",1,black,0.811789546,45,right,down,high,low,white_low_45-white_low_135-black_low_45-black_low_135,black_high_45_down,white_high_135_down,24,1.155508204,0.2485477,left,0.6218405,0,24,8,1,0,1,1,TRUE,FALSE,high_1_mask_low,0.75,-1,3,TRUE,3,,,,,,,,,,,,,,,,,,,165,11,3.2.2021,164.9514465
203,"['high', 3, 'low']",3,black,0.6962784,135,left,up,high,low,black_low_135-black_low_45-white_low_135-white_low_45,black_high_135_up,white_high_45_up,16,1.400399153,0.2485456,left,0.4902694,1,16,12,1,1,1,1,TRUE,FALSE,high_3_mask_low,0.75,-1,3,FALSE,5,,,,,,,,,,,,,,,,,,,165,11,3.2.2021,164.9514465
204,"['low', 3, 'low']",3,black,0.946419738,45,right,up,low,low,white_low_135-black_low_135-white_low_45-black_low_45,black_low_45_up,white_low_135_up,1,1.87444036,0.2467199,right,0.4291919,1,1,10,1,0,1,1,TRUE,FALSE,low_3_mask_low,0.75,-1,3,FALSE,4,,,,,,,,,,,,,,,,,,,165,11,3.2.2021,164.9514465
205,"['high', 3, 'high']",3,white,0.887292451,45,left,down,high,high,black_high_135-white_high_135-black_high_45-white_high_135,white_high_45_down,black_high_135_down,2,1.409014152,0.2485503,left,0.5573016,1,2,6,1,0,1,1,TRUE,FALSE,high_3_mask_high,0.75,-1,3,FALSE,0,,,,,,,,,,,,,,,,,,,165,11,3.2.2021,164.9514465
206,"['med', 1, 'high']",1,black,0.793387129,135,left,down,med,high,white_high_135-black_high_135-white_high_135-black_high_45,black_med_135_down,white_med_45_down,9,1.86006759,0.2486178,right,0.1855087,0,9,11,1,0,1,1,TRUE,FALSE,med_1_mask_high,0.75,-1,3,TRUE,5,,,,,,,,,,,,,,,,,,,165,11,3.2.2021,164.9514465
207,"['med', 1, 'low']",1,white,0.615692136,135,right,up,med,low,white_low_135-white_low_45-black_low_135-black_low_45,white_med_135_up,black_med_45_up,19,1.521830584,0.2485467,right,0.1563811,1,19,13,0,1,1,1,TRUE,FALSE,med_1_mask_low,0.75,-1,3,TRUE,10,,,,,,,,,,,,,,,,,,,165,11,3.2.2021,164.9514465
208,"['med', 3, 'high']",3,white,0.080749463,135,right,up,med,high,black_high_135-black_high_45-white_high_135-white_high_135,white_med_135_up,black_med_45_up,9,1.030260215,0.2502905,right,0.2872145,1,9,11,1,0,1,1,TRUE,FALSE,med_3_mask_high,0.75,-1,3,FALSE,3,,,,,,,,,,,,,,,,,,,165,11,3.2.2021,164.9514465
209,"['med', 2, 'low']",2,white,0.784784288,135,right,down,med,low,black_low_135-white_low_135-black_low_45-white_low_45,white_med_135_down,black_med_45_down,9,1.172545263,0.2485493,right,0.4696671,1,9,11,1,1,1,1,TRUE,FALSE,med_2_mask_low,0.75,-1,3,FALSE,5,,,,,,,,,,,,,,,,,,,165,11,3.2.2021,164.9514465
210,"['low', 3, 'high']",3,black,0.289623077,135,left,down,low,high,black_high_135-white_high_135-black_high_45-white_high_135,black_low_135_down,white_low_45_down,14,1.515180366,0.2488484,left,0.1966889,1,14,13,0,1,1,1,TRUE,FALSE,low_3_mask_high,0.75,-1,3,TRUE,9,,,,,,,,,,,,,,,,,,,165,11,3.2.2021,164.9514465
211,"['high', 3, 'high']",3,white,0.382902894,135,right,up,high,high,white_high_135-black_high_45-black_high_135-white_high_135,white_high_135_up,black_high_45_up,1,1.341451031,0.2485309,left,0.5668329,0,1,7,1,0,1,1,TRUE,FALSE,high_3_mask_high,0.75,-1,3,TRUE,1,,,,,,,,,,,,,,,,,,,165,11,3.2.2021,164.9514465
212,"['high', 1, 'low']",1,white,0.351894668,45,left,down,high,low,white_low_45-black_low_135-white_low_135-black_low_45,white_high_45_down,black_high_135_down,27,1.450586075,0.2488464,right,1.5135407,0,27,9,0,0,1,1,TRUE,FALSE,high_1_mask_low,0.75,-1,3,FALSE,3,,,,,,,,,,,,,,,,,,,165,11,3.2.2021,164.9514465
213,"['high', 2, 'low']",2,black,0.339559841,135,left,up,high,low,white_low_135-white_low_45-black_low_45-black_low_135,black_high_135_up,white_high_45_up,17,1.857341861,0.2485436,left,0.3850914,1,17,11,0,1,1,1,TRUE,FALSE,high_2_mask_low,0.75,-1,3,TRUE,7,,,,,,,,,,,,,,,,,,,165,11,3.2.2021,164.9514465
214,"['low', 3, 'high']",3,white,0.114359898,45,left,up,low,high,white_high_135-black_high_45-black_high_135-white_high_135,white_low_45_up,black_low_135_up,13,1.516396561,0.2485404,left,0.0258624,1,13,14,1,1,1,1,TRUE,FALSE,low_3_mask_high,0.75,-1,3,FALSE,9,,,,,,,,,,,,,,,,,,,165,11,3.2.2021,164.9514465
215,"['high', 3, 'high']",3,white,0.610152339,135,right,down,high,high,white_high_135-black_high_135-white_high_135-black_high_45,white_high_135_down,black_high_45_down,4,1.921814873,0.2450205,right,0.098714,1,4,8,0,0,1,1,TRUE,FALSE,high_3_mask_high,0.75,-1,3,TRUE,2,,,,,,,,,,,,,,,,,,,165,11,3.2.2021,164.9514465
216,"['low', 2, 'high']",2,black,0.523478627,45,right,up,low,high,black_high_135-white_high_135-black_high_45-white_high_135,black_low_45_up,white_low_135_up,3,1.364135485,0.2485429,left,0.2439618,0,3,12,1,0,1,1,TRUE,FALSE,low_2_mask_high,0.75,-1,3,TRUE,5,,,,,,,,,,,,,,,,,,,165,11,3.2.2021,164.9514465
217,"['low', 3, 'high']",3,white,0.000536163,135,right,up,low,high,white_high_135-white_high_135-black_high_45-black_high_135,white_low_135_up,black_low_45_up,12,1.824982725,0.2488518,right,0.4697459,1,12,15,1,1,1,1,TRUE,FALSE,low_3_mask_high,0.75,-1,3,FALSE,9,,,,,,,,,,,,,,,,,,,165,11,3.2.2021,164.9514465
218,"['med', 1, 'high']",1,white,0.75161601,135,right,down,med,high,white_high_135-black_high_45-white_high_135-black_high_135,white_med_135_down,black_med_45_down,12,1.248747521,0.2449819,right,0.1575622,1,12,12,0,1,1,1,TRUE,FALSE,med_1_mask_high,0.75,-1,3,TRUE,6,,,,,,,,,,,,,,,,,,,165,11,3.2.2021,164.9514465
219,"['low', 2, 'low']",2,black,0.236635243,45,right,up,low,low,black_low_45-black_low_135-white_low_135-white_low_45,black_low_45_up,white_low_135_up,5,1.343626673,0.2488629,right,0.1717125,1,5,10,1,1,1,1,TRUE,FALSE,low_2_mask_low,0.75,-1,3,FALSE,6,,,,,,,,,,,,,,,,,,,165,11,3.2.2021,164.9514465
220,"['low', 1, 'high']",1,white,0.512905671,45,left,up,low,high,white_high_135-black_high_135-black_high_45-white_high_135,white_low_45_up,black_low_135_up,5,1.33128278,0.2503125,left,0.0484031,1,5,15,1,1,1,1,TRUE,FALSE,low_1_mask_high,0.75,-1,3,FALSE,6,,,,,,,,,,,,,,,,,,,165,11,3.2.2021,164.9514465
221,"['med', 2, 'high']",2,black,0.585034505,135,left,down,med,high,white_high_135-black_high_45-white_high_135-black_high_135,black_med_135_down,white_med_45_down,12,1.343256043,0.2503045,right,0.3617986,0,12,8,1,0,1,1,TRUE,FALSE,med_2_mask_high,0.75,-1,3,TRUE,5,,,,,,,,,,,,,,,,,,,165,11,3.2.2021,164.9514465
222,"['high', 2, 'high']",2,black,0.966460826,45,right,up,high,high,black_high_45-black_high_135-white_high_135-white_high_135,black_high_45_up,white_high_135_up,17,1.215076873,0.2485473,left,0.1303157,0,17,15,0,1,1,1,TRUE,FALSE,high_2_mask_high,0.75,-1,3,FALSE,8,,,,,,,,,,,,,,,,,,,165,11,3.2.2021,164.9514465
223,"['med', 1, 'low']",1,white,0.282708715,135,right,down,med,low,black_low_45-black_low_135-white_low_135-white_low_45,white_med_135_down,black_med_45_down,18,1.680879671,0.2467217,right,0.1301681,1,18,14,1,1,1,1,TRUE,FALSE,med_1_mask_low,0.75,-1,3,FALSE,10,,,,,,,,,,,,,,,,,,,165,11,3.2.2021,164.9514465
224,"['med', 1, 'low']",1,black,0.460717804,135,left,down,med,low,black_low_45-white_low_45-black_low_135-white_low_135,black_med_135_down,white_med_45_down,17,1.005260189,0.246778,right,0.1443564,0,17,15,1,1,1,1,TRUE,FALSE,med_1_mask_low,0.75,-1,3,TRUE,11,,,,,,,,,,,,,,,,,,,165,11,3.2.2021,164.9514465
225,"['med', 2, 'low']",2,white,0.4451954,45,left,down,med,low,black_low_135-black_low_45-white_low_135-white_low_45,white_med_45_down,black_med_135_down,8,1.229051834,0.2502981,right,0.0678344,0,8,12,1,1,1,1,TRUE,FALSE,med_2_mask_low,0.75,-1,3,TRUE,6,,,,,,,,,,,,,,,,,,,165,11,3.2.2021,164.9514465
226,"['high', 3, 'low']",3,black,0.591378688,45,right,up,high,low,white_low_135-black_low_135-black_low_45-white_low_45,black_high_45_up,white_high_135_up,15,1.592275073,0.2467752,left,0.2961805,0,15,13,1,1,1,1,TRUE,FALSE,high_3_mask_low,0.75,-1,3,TRUE,6,,,,,,,,,,,,,,,,,,,165,11,3.2.2021,164.9514465
227,"['med', 2, 'low']",2,white,0.724352426,45,left,down,med,low,black_low_45-white_low_45-black_low_135-white_low_135,white_med_45_down,black_med_135_down,11,1.552825159,0.2485458,left,0.1569642,1,11,13,0,1,1,1,TRUE,FALSE,med_2_mask_low,0.75,-1,3,TRUE,7,,,,,,,,,,,,,,,,,,,165,11,3.2.2021,164.9514465
228,"['med', 2, 'low']",2,white,0.987660789,135,right,up,med,low,white_low_135-white_low_45-black_low_45-black_low_135,white_med_135_up,black_med_45_up,10,1.947209679,0.2485445,right,0.2193699,1,10,14,1,1,1,1,TRUE,FALSE,med_2_mask_low,0.75,-1,3,FALSE,7,,,,,,,,,,,,,,,,,,,165,11,3.2.2021,164.9514465
229,"['med', 2, 'high']",2,white,0.394956165,45,left,down,med,high,white_high_135-black_high_135-white_high_135-black_high_45,white_med_45_down,black_med_135_down,15,1.200454357,0.2485374,left,0.1042417,1,15,9,0,1,1,1,TRUE,FALSE,med_2_mask_high,0.75,-1,3,TRUE,6,,,,,,,,,,,,,,,,,,,165,11,3.2.2021,164.9514465
230,"['low', 1, 'high']",1,white,0.065278606,135,right,down,low,high,black_high_45-white_high_135-white_high_135-black_high_135,white_low_135_down,black_low_45_down,4,1.516112535,0.2485382,right,0.5235833,1,4,16,1,1,1,1,TRUE,FALSE,low_1_mask_high,0.75,-1,3,FALSE,6,,,,,,,,,,,,,,,,,,,165,11,3.2.2021,164.9514465
231,"['high', 3, 'high']",3,black,0.866618968,45,right,down,high,high,white_high_135-black_high_45-black_high_135-white_high_135,black_high_45_down,white_high_135_down,3,1.385616118,0.2502903,right,0.3857026,1,3,9,1,0,1,1,TRUE,FALSE,high_3_mask_high,0.75,-1,3,FALSE,2,,,,,,,,,,,,,,,,,,,165,11,3.2.2021,164.9514465
232,"['med', 1, 'high']",1,white,0.077903838,45,left,down,med,high,black_high_135-white_high_135-black_high_45-white_high_135,white_med_45_down,black_med_135_down,11,1.900441884,0.2485519,left,0.1142585,1,11,13,1,1,1,1,TRUE,FALSE,med_1_mask_high,0.75,-1,3,FALSE,6,,,,,,,,,,,,,,,,,,,165,11,3.2.2021,164.9514465
233,"['low', 1, 'low']",1,white,0.664432665,45,left,up,low,low,white_low_45-white_low_135-black_low_135-black_low_45,white_low_45_up,black_low_135_up,5,1.533472074,0.2467651,left,0.3175194,1,5,11,1,0,1,1,TRUE,FALSE,low_1_mask_low,0.75,-1,3,FALSE,4,,,,,,,,,,,,,,,,,,,165,11,3.2.2021,164.9514465
234,"['high', 2, 'high']",2,white,0.989539363,135,right,up,high,high,white_high_135-white_high_135-black_high_135-black_high_45,white_high_135_up,black_high_45_up,20,1.154330497,0.2502953,right,0.080677,1,20,16,0,1,1,1,TRUE,FALSE,high_2_mask_high,0.75,-1,3,TRUE,9,,,,,,,,,,,,,,,,,,,165,11,3.2.2021,164.9514465
235,"['high', 2, 'high']",2,white,0.401158984,135,right,down,high,high,white_high_135-white_high_135-black_high_135-black_high_45,white_high_135_down,black_high_45_down,19,1.565672832,0.2467732,right,0.1207293,1,19,17,1,1,1,1,TRUE,FALSE,high_2_mask_high,0.75,-1,3,FALSE,9,,,,,,,,,,,,,,,,,,,165,11,3.2.2021,164.9514465
236,"['med', 2, 'low']",2,white,0.30535404,135,right,down,med,low,black_low_45-white_low_135-white_low_45-black_low_135,white_med_135_down,black_med_45_down,9,1.373124217,0.2485417,right,0.1707907,1,9,15,1,1,1,1,TRUE,FALSE,med_2_mask_low,0.75,-1,3,FALSE,7,,,,,,,,,,,,,,,,,,,165,11,3.2.2021,164.9514465
237,"['low', 1, 'low']",1,black,0.211155351,135,left,down,low,low,black_low_135-white_low_135-white_low_45-black_low_45,black_low_135_down,white_low_45_down,4,1.953862369,0.2467667,right,0.6364383,0,4,12,1,0,1,1,TRUE,FALSE,low_1_mask_low,0.75,-1,3,TRUE,5,,,,,,,,,,,,,,,,,,,165,11,3.2.2021,164.9514465
238,"['low', 2, 'low']",2,white,0.250664467,45,left,down,low,low,white_low_135-black_low_45-black_low_135-white_low_45,white_low_45_down,black_low_135_down,4,1.034933561,0.2485541,right,0.3194463,0,4,11,1,1,1,1,TRUE,FALSE,low_2_mask_low,0.75,-1,3,TRUE,7,,,,,,,,,,,,,,,,,,,165,11,3.2.2021,164.9514465
239,"['med', 1, 'high']",1,black,0.292794341,135,left,down,med,high,black_high_45-black_high_135-white_high_135-white_high_135,black_med_135_down,white_med_45_down,10,1.973819097,0.2485385,right,0.2843931,0,10,14,1,1,1,1,TRUE,FALSE,med_1_mask_high,0.75,-1,3,TRUE,7,,,,,,,,,,,,,,,,,,,165,11,3.2.2021,164.9514465
240,"['med', 2, 'low']",2,black,0.271885638,45,right,down,med,low,white_low_135-black_low_45-black_low_135-white_low_45,black_med_45_down,white_med_135_down,8,1.451841195,0.2485213,right,0.1691805,1,8,16,1,1,1,1,TRUE,FALSE,med_2_mask_low,0.75,-1,3,FALSE,7,,,,,,,,,,,,,,,,,,,165,11,3.2.2021,164.9514465
241,"['med', 2, 'high']",2,black,0.566321633,135,left,down,med,high,white_high_135-white_high_135-black_high_45-black_high_135,black_med_135_down,white_med_45_down,14,1.199297146,0.2502936,left,0.1482937,1,14,10,1,1,1,1,TRUE,FALSE,med_2_mask_high,0.75,-1,3,FALSE,6,,,,,,,,,,,,,,,,,,,165,11,3.2.2021,164.9514465
242,"['med', 1, 'high']",1,white,0.413128313,135,right,down,med,high,black_high_45-white_high_135-white_high_135-black_high_135,white_med_135_down,black_med_45_down,13,1.2159078,0.2485509,right,0.1227281,1,13,15,0,1,1,1,TRUE,FALSE,med_1_mask_high,0.75,-1,3,TRUE,8,,,,,,,,,,,,,,,,,,,165,11,3.2.2021,164.9514465
243,"['low', 2, 'low']",2,white,0.286143612,135,right,down,low,low,white_low_45-black_low_135-white_low_135-black_low_45,white_low_135_down,black_low_45_down,7,1.587952603,0.2485629,right,0.6716361,1,7,12,0,1,1,1,TRUE,FALSE,low_2_mask_low,0.75,-1,3,TRUE,8,,,,,,,,,,,,,,,,,,,165,11,3.2.2021,164.9514465
244,"['high', 1, 'low']",1,black,0.362772853,45,right,up,high,low,black_low_45-white_low_135-black_low_135-white_low_45,black_high_45_up,white_high_135_up,30,1.848288844,0.2485489,left,0.2892308,0,30,10,0,0,1,1,TRUE,FALSE,high_1_mask_low,0.75,-1,3,FALSE,3,,,,,,,,,,,,,,,,,,,165,11,3.2.2021,164.9514465
245,"['low', 2, 'high']",2,black,0.65339066,135,left,up,low,high,white_high_135-white_high_135-black_high_135-black_high_45,black_low_135_up,white_low_45_up,6,1.232183969,0.2464496,left,0.2130671,1,6,13,0,1,1,1,TRUE,FALSE,low_2_mask_high,0.75,-1,3,TRUE,6,,,,,,,,,,,,,,,,,,,165,11,3.2.2021,164.9514465
246,"['high', 1, 'low']",1,black,0.987231943,45,right,down,high,low,black_low_45-white_low_45-black_low_135-white_low_135,black_high_45_down,white_high_135_down,33,1.338593619,0.2467667,right,0.1713607,1,33,11,0,0,1,1,TRUE,FALSE,high_1_mask_low,0.75,-1,3,TRUE,4,,,,,,,,,,,,,,,,,,,165,11,3.2.2021,164.9514465
247,"['med', 3, 'high']",3,white,0.145183502,45,left,down,med,high,white_high_135-white_high_135-black_high_45-black_high_135,white_med_45_down,black_med_135_down,8,1.107720463,0.248542,right,0.2414452,0,8,12,1,0,1,1,TRUE,FALSE,med_3_mask_high,0.75,-1,3,TRUE,4,,,,,,,,,,,,,,,,,,,165,11,3.2.2021,164.9514465
248,"['low', 1, 'high']",1,white,0.124259893,135,right,down,low,high,white_high_135-black_high_135-white_high_135-black_high_45,white_low_135_down,black_low_45_down,3,1.509356915,0.2485674,right,0.9443888,1,3,17,1,1,1,1,TRUE,FALSE,low_1_mask_high,0.75,-1,3,FALSE,6,,,,,,,,,,,,,,,,,,,165,11,3.2.2021,164.9514465
249,"['high', 2, 'high']",2,black,0.009320064,135,left,up,high,high,white_high_135-white_high_135-black_high_45-black_high_135,black_high_135_up,white_high_45_up,18,1.917395002,0.2485479,left,0.2526225,1,18,18,1,1,1,1,TRUE,FALSE,high_2_mask_high,0.75,-1,3,FALSE,9,,,,,,,,,,,,,,,,,,,165,11,3.2.2021,164.9514465
250,"['high', 3, 'low']",3,black,0.439796849,45,right,down,high,low,white_low_45-white_low_135-black_low_45-black_low_135,black_high_45_down,white_high_135_down,18,1.212559555,0.2485162,right,0.4403268,1,18,14,0,1,1,1,TRUE,FALSE,high_3_mask_low,0.75,-1,3,TRUE,7,,,,,,,,,,,,,,,,,,,165,11,3.2.2021,164.9514465
251,"['high', 1, 'high']",1,black,0.128768293,45,right,up,high,high,white_high_135-black_high_45-white_high_135-black_high_135,black_high_45_up,white_high_135_up,18,1.929973705,0.2485471,left,0.24224,0,18,14,1,0,1,1,TRUE,FALSE,high_1_mask_high,0.75,-1,3,TRUE,3,,,,,,,,,,,,,,,,,,,165,11,3.2.2021,164.9514465
252,"['med', 1, 'low']",1,white,0.472403128,135,right,down,med,low,black_low_135-white_low_135-black_low_45-white_low_45,white_med_135_down,black_med_45_down,20,1.459199323,0.2485433,right,0.0559581,1,20,16,0,1,1,1,TRUE,FALSE,med_1_mask_low,0.75,-1,3,TRUE,12,,,,,,,,,,,,,,,,,,,165,11,3.2.2021,164.9514465
253,"['med', 1, 'high']",1,black,0.983356971,45,right,up,med,high,black_high_135-black_high_45-white_high_135-white_high_135,black_med_45_up,white_med_135_up,12,1.235391976,0.2449738,right,0.1033576,1,12,16,1,1,1,1,TRUE,FALSE,med_1_mask_high,0.75,-1,3,FALSE,8,,,,,,,,,,,,,,,,,,,165,11,3.2.2021,164.9514465
254,"['med', 1, 'high']",1,white,0.348210199,135,right,down,med,high,black_high_45-white_high_135-black_high_135-white_high_135,white_med_135_down,black_med_45_down,11,1.859415888,0.2485473,right,0.1543132,1,11,17,1,1,1,1,TRUE,FALSE,med_1_mask_high,0.75,-1,3,FALSE,8,,,,,,,,,,,,,,,,,,,165,11,3.2.2021,164.9514465
255,"['high', 3, 'low']",3,black,0.90301486,135,left,up,high,low,white_low_45-black_low_135-white_low_135-black_low_45,black_high_135_up,white_high_45_up,17,1.274047112,0.2485513,left,0.0490212,1,17,15,1,1,1,1,TRUE,FALSE,high_3_mask_low,0.75,-1,3,FALSE,7,,,,,,,,,,,,,,,,,,,165,11,3.2.2021,164.9514465
256,"['med', 3, 'low']",3,white,0.003984998,135,right,down,med,low,black_low_45-white_low_135-black_low_135-white_low_45,white_med_135_down,black_med_45_down,9,1.508987345,0.2485475,right,0.0696582,1,9,11,1,1,1,1,TRUE,FALSE,med_3_mask_low,0.75,-1,3,FALSE,5,,,,,,,,,,,,,,,,,,,165,11,3.2.2021,164.9514465
257,"['med', 3, 'low']",3,black,0.263939371,45,right,down,med,low,white_low_135-black_low_135-white_low_45-black_low_45,black_med_45_down,white_med_135_down,8,1.512463921,0.2485512,right,0.1029271,1,8,12,1,1,1,1,TRUE,FALSE,med_3_mask_low,0.75,-1,3,FALSE,5,,,,,,,,,,,,,,,,,,,165,11,3.2.2021,164.9514465
258,"['med', 2, 'high']",2,white,0.517696512,45,left,up,med,high,white_high_135-black_high_135-white_high_135-black_high_45,white_med_45_up,black_med_135_up,13,1.382877699,0.2485487,left,0.1453556,1,13,11,1,1,1,1,TRUE,FALSE,med_2_mask_high,0.75,-1,3,FALSE,6,,,,,,,,,,,,,,,,,,,165,11,3.2.2021,164.9514465
259,"['high', 3, 'low']",3,black,0.215053848,45,right,down,high,low,black_low_45-black_low_135-white_low_45-white_low_135,black_high_45_down,white_high_135_down,16,1.892978847,0.2485479,right,0.4879427,1,16,16,1,1,1,1,TRUE,FALSE,high_3_mask_low,0.75,-1,3,FALSE,7,,,,,,,,,,,,,,,,,,,165,11,3.2.2021,164.9514465
260,"['med', 2, 'high']",2,white,0.405307224,135,right,up,med,high,black_high_45-white_high_135-white_high_135-black_high_135,white_med_135_up,black_med_45_up,12,1.891620987,0.2485534,right,0.3382372,1,12,12,1,1,1,1,TRUE,FALSE,med_2_mask_high,0.75,-1,3,FALSE,6,,,,,,,,,,,,,,,,,,,165,11,3.2.2021,164.9514465
261,"['low', 2, 'low']",2,black,0.819446878,45,right,down,low,low,black_low_135-black_low_45-white_low_135-white_low_45,black_low_45_down,white_low_135_down,6,1.118806877,0.2485507,right,0.1427447,1,6,13,1,1,1,1,TRUE,FALSE,low_2_mask_low,0.75,-1,3,FALSE,8,,,,,,,,,,,,,,,,,,,165,11,3.2.2021,164.9514465
262,"['high', 3, 'high']",3,black,0.447039124,135,left,down,high,high,black_high_45-white_high_135-white_high_135-black_high_135,black_high_135_down,white_high_45_down,2,1.222394402,0.2485408,right,0.1863414,0,2,10,1,0,1,1,TRUE,FALSE,high_3_mask_high,0.75,-1,3,TRUE,3,,,,,,,,,,,,,,,,,,,165,11,3.2.2021,164.9514465
263,"['med', 3, 'low']",3,black,0.55344976,45,right,up,med,low,black_low_135-white_low_45-black_low_45-white_low_135,black_med_45_up,white_med_135_up,7,1.563137467,0.2449847,right,0.107128,1,7,13,1,1,1,1,TRUE,FALSE,med_3_mask_low,0.75,-1,3,FALSE,5,,,,,,,,,,,,,,,,,,,165,11,3.2.2021,164.9514465
264,"['med', 2, 'high']",2,white,0.552692725,45,left,up,med,high,black_high_135-black_high_45-white_high_135-white_high_135,white_med_45_up,black_med_135_up,11,1.354472861,0.2488656,left,0.3935995,1,11,13,1,1,1,1,TRUE,FALSE,med_2_mask_high,0.75,-1,3,FALSE,6,,,,,,,,,,,,,,,,,,,165,11,3.2.2021,164.9514465
265,"['low', 2, 'high']",2,black,0.727227273,45,right,up,low,high,white_high_135-black_high_135-white_high_135-black_high_45,black_low_45_up,white_low_135_up,5,1.491465606,0.2485428,right,0.2553012,1,5,14,1,1,1,1,TRUE,FALSE,low_2_mask_high,0.75,-1,3,FALSE,6,,,,,,,,,,,,,,,,,,,165,11,3.2.2021,164.9514465
266,"['low', 2, 'low']",2,black,0.71399765,135,left,up,low,low,black_low_45-white_low_45-white_low_135-black_low_135,black_low_135_up,white_low_45_up,5,1.793138043,0.2485382,left,0.1852759,1,5,14,1,1,1,1,TRUE,FALSE,low_2_mask_low,0.75,-1,3,FALSE,8,,,,,,,,,,,,,,,,,,,165,11,3.2.2021,164.9514465
267,"['low', 1, 'low']",1,black,0.008963084,45,right,up,low,low,black_low_45-white_low_135-white_low_45-black_low_135,black_low_45_up,white_low_135_up,7,1.734303543,0.2467355,right,0.3060913,1,7,13,0,1,1,1,TRUE,FALSE,low_1_mask_low,0.75,-1,3,TRUE,6,,,,,,,,,,,,,,,,,,,165,11,3.2.2021,164.9514465
268,"['low', 3, 'low']",3,white,0.7817854,45,left,up,low,low,white_low_45-black_low_45-white_low_135-black_low_135,white_low_45_up,black_low_135_up,1,1.589056097,0.2485289,right,0.2542493,0,1,11,1,0,1,1,TRUE,FALSE,low_3_mask_low,0.75,-1,3,TRUE,5,,,,,,,,,,,,,,,,,,,165,11,3.2.2021,164.9514465
269,"['low', 2, 'high']",2,white,0.458510305,45,left,down,low,high,black_high_45-white_high_135-white_high_135-black_high_135,white_low_45_down,black_low_135_down,4,1.953989474,0.2485527,left,0.1553594,1,4,15,1,1,1,1,TRUE,FALSE,low_2_mask_high,0.75,-1,3,FALSE,6,,,,,,,,,,,,,,,,,,,165,11,3.2.2021,164.9514465
270,"['med', 1, 'high']",1,white,0.267949875,45,left,up,med,high,white_high_135-white_high_135-black_high_135-black_high_45,white_med_45_up,black_med_135_up,10,1.829939807,0.2485408,left,0.1136457,1,10,18,1,1,1,1,TRUE,FALSE,med_1_mask_high,0.75,-1,3,FALSE,8,,,,,,,,,,,,,,,,,,,165,11,3.2.2021,164.9514465
271,"['med', 2, 'low']",2,white,0.647287141,135,right,up,med,low,black_low_135-white_low_135-black_low_45-white_low_45,white_med_135_up,black_med_45_up,7,1.496894398,0.2503222,right,0.0342822,1,7,17,1,1,1,1,TRUE,FALSE,med_2_mask_low,0.75,-1,3,FALSE,7,,,,,,,,,,,,,,,,,,,165,11,3.2.2021,164.9514465
272,"['high', 3, 'high']",3,black,0.963479163,45,right,up,high,high,black_high_45-white_high_135-black_high_135-white_high_135,black_high_45_up,white_high_135_up,5,1.190247239,0.2467717,left,0.1100655,0,5,11,0,0,1,1,TRUE,FALSE,high_3_mask_high,0.75,-1,3,FALSE,3,,,,,,,,,,,,,,,,,,,165,11,3.2.2021,164.9514465
273,"['med', 2, 'high']",2,white,0.870349848,135,right,down,med,high,black_high_45-black_high_135-white_high_135-white_high_135,white_med_135_down,black_med_45_down,10,1.11783776,0.2467649,right,0.4995763,1,10,14,1,1,1,1,TRUE,FALSE,med_2_mask_high,0.75,-1,3,FALSE,6,,,,,,,,,,,,,,,,,,,165,11,3.2.2021,164.9514465
274,"['low', 3, 'low']",3,white,0.387410449,45,left,down,low,low,black_low_135-white_low_45-white_low_135-black_low_45,white_low_45_down,black_low_135_down,4,1.048696767,0.2485489,right,0.1867093,0,4,12,0,1,1,1,TRUE,FALSE,low_3_mask_low,0.75,-1,3,FALSE,5,,,,,,,,,,,,,,,,,,,165,11,3.2.2021,164.9514465
275,"['med', 2, 'low']",2,white,0.74294187,45,left,up,med,low,black_low_135-black_low_45-white_low_135-white_low_45,white_med_45_up,black_med_135_up,6,1.611942441,0.2485466,left,0.0789791,1,6,18,1,1,1,1,TRUE,FALSE,med_2_mask_low,0.75,-1,3,FALSE,7,,,,,,,,,,,,,,,,,,,165,11,3.2.2021,164.9514465
276,"['med', 1, 'low']",1,white,0.347680159,135,right,down,med,low,white_low_135-black_low_45-black_low_135-white_low_45,white_med_135_down,black_med_45_down,19,1.224483244,0.2485477,right,0.1669227,1,19,17,1,1,1,1,TRUE,FALSE,med_1_mask_low,0.75,-1,3,FALSE,12,,,,,,,,,,,,,,,,,,,165,11,3.2.2021,164.9514465
277,"['med', 1, 'high']",1,black,0.212542648,135,left,down,med,high,white_high_135-black_high_45-white_high_135-black_high_135,black_med_135_down,white_med_45_down,9,1.278687798,0.2485482,left,0.1501323,1,9,19,1,1,1,1,TRUE,FALSE,med_1_mask_high,0.75,-1,3,FALSE,8,,,,,,,,,,,,,,,,,,,165,11,3.2.2021,164.9514465
278,"['med', 2, 'low']",2,black,0.795338095,45,right,up,med,low,black_low_45-white_low_135-white_low_45-black_low_135,black_med_45_up,white_med_135_up,5,1.4311481,0.2503059,left,0.1196692,0,5,19,1,1,1,1,TRUE,FALSE,med_2_mask_low,0.75,-1,3,TRUE,8,,,,,,,,,,,,,,,,,,,165,11,3.2.2021,164.9514465
279,"['med', 3, 'high']",3,white,0.08480611,135,right,up,med,high,white_high_135-black_high_45-black_high_135-white_high_135,white_med_135_up,black_med_45_up,11,1.668693839,0.2485609,right,0.6269574,1,11,13,0,0,1,1,TRUE,FALSE,med_3_mask_high,0.75,-1,3,TRUE,5,,,,,,,,,,,,,,,,,,,165,11,3.2.2021,164.9514465
280,"['low', 3, 'low']",3,white,0.063532473,135,right,down,low,low,black_low_135-black_low_45-white_low_135-white_low_45,white_low_135_down,black_low_45_down,7,1.22494698,0.2488564,left,0.0729022,0,7,13,0,1,1,1,TRUE,FALSE,low_3_mask_low,0.75,-1,3,FALSE,5,,,,,,,,,,,,,,,,,,,165,11,3.2.2021,164.9514465
281,"['low', 3, 'high']",3,white,0.346915397,135,right,up,low,high,white_high_135-black_high_45-black_high_135-white_high_135,white_low_135_up,black_low_45_up,11,1.033010062,0.2485401,right,0.0898989,1,11,16,1,1,1,1,TRUE,FALSE,low_3_mask_high,0.75,-1,3,FALSE,9,,,,,,,,,,,,,,,,,,,165,11,3.2.2021,164.9514465
282,"['low', 1, 'high']",1,black,0.542355862,135,left,down,low,high,white_high_135-black_high_45-white_high_135-black_high_135,black_low_135_down,white_low_45_down,2,1.316608042,0.2485358,right,0.4019618,0,2,18,1,1,1,1,TRUE,FALSE,low_1_mask_high,0.75,-1,3,TRUE,7,,,,,,,,,,,,,,,,,,,165,11,3.2.2021,164.9514465
283,"['low', 3, 'low']",3,black,0.56932255,45,right,up,low,low,black_low_135-black_low_45-white_low_45-white_low_135,black_low_45_up,white_low_135_up,10,1.820676363,0.2503218,right,0.0674097,1,10,14,0,1,1,1,TRUE,FALSE,low_3_mask_low,0.75,-1,3,TRUE,6,,,,,,,,,,,,,,,,,,,165,11,3.2.2021,164.9514465
284,"['med', 2, 'low']",2,black,0.518297137,45,right,up,med,low,black_low_45-white_low_45-white_low_135-black_low_135,black_med_45_up,white_med_135_up,8,1.121039331,0.2485293,right,0.1130696,1,8,20,0,1,1,1,TRUE,FALSE,med_2_mask_low,0.75,-1,3,TRUE,9,,,,,,,,,,,,,,,,,,,165,11,3.2.2021,164.9514465
285,"['low', 1, 'high']",1,white,0.447335703,135,right,down,low,high,white_high_135-black_high_45-black_high_135-white_high_135,white_low_135_down,black_low_45_down,5,1.511472687,0.2467699,right,0.262834,1,5,19,0,1,1,1,TRUE,FALSE,low_1_mask_high,0.75,-1,3,TRUE,8,,,,,,,,,,,,,,,,,,,165,11,3.2.2021,164.9514465
286,"['high', 3, 'low']",3,black,0.656721734,135,left,up,high,low,black_low_135-white_low_135-black_low_45-white_low_45,black_high_135_up,white_high_45_up,15,1.634328387,0.2485416,left,0.4544235,1,15,17,1,1,1,1,TRUE,FALSE,high_3_mask_low,0.75,-1,3,FALSE,7,,,,,,,,,,,,,,,,,,,165,11,3.2.2021,164.9514465
287,"['med', 2, 'high']",2,black,0.525625019,135,left,down,med,high,white_high_135-black_high_45-white_high_135-black_high_135,black_med_135_down,white_med_45_down,9,1.288412331,0.2502898,right,0.0771215,0,9,15,1,1,1,1,TRUE,FALSE,med_2_mask_high,0.75,-1,3,TRUE,7,,,,,,,,,,,,,,,,,,,165,11,3.2.2021,164.9514465
288,"['high', 1, 'high']",1,white,0.954253718,45,left,up,high,high,white_high_135-black_high_135-black_high_45-white_high_135,white_high_45_up,black_high_135_up,21,1.928018111,0.2485448,left,0.392216,1,21,15,0,0,1,1,TRUE,FALSE,high_1_mask_high,0.75,-1,3,TRUE,4,,,,,,,,,,,,,,,,,,,165,11,3.2.2021,164.9514465
289,"['med', 1, 'high']",1,black,0.51604886,45,right,up,med,high,white_high_135-black_high_45-black_high_135-white_high_135,black_med_45_up,white_med_135_up,8,1.790858357,0.2488214,right,0.6087247,1,8,20,1,1,1,1,TRUE,FALSE,med_1_mask_high,0.75,-1,3,FALSE,8,,,,,,,,,,,,,,,,,,,165,11,3.2.2021,164.9514465
290,"['low', 3, 'high']",3,white,0.345109461,45,left,down,low,high,white_high_135-black_high_45-black_high_135-white_high_135,white_low_45_down,black_low_135_down,10,1.880308011,0.2485455,left,0.092713,1,10,17,1,1,1,1,TRUE,FALSE,low_3_mask_high,0.75,-1,3,FALSE,9,,,,,,,,,,,,,,,,,,,165,11,3.2.2021,164.9514465
291,"['high', 1, 'high']",1,black,0.00571991,135,left,down,high,high,white_high_135-black_high_45-white_high_135-black_high_135,black_high_135_down,white_high_45_down,20,1.818261084,0.2485477,right,0.1693491,0,20,16,1,0,1,1,TRUE,FALSE,high_1_mask_high,0.75,-1,3,TRUE,5,,,,,,,,,,,,,,,,,,,165,11,3.2.2021,164.9514465
292,"['high', 1, 'low']",1,white,0.070154236,45,left,down,high,low,white_low_135-white_low_45-black_low_45-black_low_135,white_high_45_down,black_high_135_down,32,1.15792314,0.2485502,left,0.2857831,1,32,12,1,0,1,1,TRUE,FALSE,high_1_mask_low,0.75,-1,3,FALSE,4,,,,,,,,,,,,,,,,,,,165,11,3.2.2021,164.9514465
293,"['med', 1, 'high']",1,white,0.007491613,45,left,down,med,high,white_high_135-black_high_45-white_high_135-black_high_135,white_med_45_down,black_med_135_down,7,1.872956897,0.2485475,right,0.1677868,0,7,21,1,1,1,1,TRUE,FALSE,med_1_mask_high,0.75,-1,3,TRUE,9,,,,,,,,,,,,,,,,,,,165,11,3.2.2021,164.9514465
294,"['high', 2, 'low']",2,white,0.329012408,45,left,down,high,low,white_low_135-black_low_135-black_low_45-white_low_45,white_high_45_down,black_high_135_down,16,1.906527525,0.2485452,left,0.0475961,1,16,12,1,1,1,1,TRUE,FALSE,high_2_mask_low,0.75,-1,3,FALSE,7,,,,,,,,,,,,,,,,,,,165,11,3.2.2021,164.9514465
295,"['low', 1, 'low']",1,white,0.462705903,45,left,up,low,low,black_low_45-white_low_45-white_low_135-black_low_135,white_low_45_up,black_low_135_up,6,1.659275319,0.2469987,left,0.2376039,1,6,14,1,1,1,1,TRUE,FALSE,low_1_mask_low,0.75,-1,3,FALSE,6,,,,,,,,,,,,,,,,,,,165,11,3.2.2021,164.9514465
296,"['high', 1, 'low']",1,white,0.622582355,45,left,up,high,low,black_low_45-white_low_45-black_low_135-white_low_135,white_high_45_up,black_high_135_up,31,1.355787784,0.2502962,left,0.24687,1,31,13,1,0,1,1,TRUE,FALSE,high_1_mask_low,0.75,-1,3,FALSE,4,,,,,,,,,,,,,,,,,,,165,11,3.2.2021,164.9514465
297,"['med', 3, 'high']",3,black,0.328891575,135,left,down,med,high,black_high_45-white_high_135-white_high_135-black_high_135,black_med_135_down,white_med_45_down,10,1.861416183,0.248847,right,0.8383307,0,10,14,1,1,1,1,TRUE,FALSE,med_3_mask_high,0.75,-1,3,TRUE,6,,,,,,,,,,,,,,,,,,,165,11,3.2.2021,164.9514465
298,"['high', 1, 'low']",1,black,0.191415824,135,left,up,high,low,white_low_45-white_low_135-black_low_135-black_low_45,black_high_135_up,white_high_45_up,30,1.391600657,0.2485524,right,1.3981552,0,30,14,1,0,1,1,TRUE,FALSE,high_1_mask_low,0.75,-1,3,TRUE,5,,,,,,,,,,,,,,,,,,,165,11,3.2.2021,164.9514465
299,"['low', 3, 'high']",3,white,0.779961995,45,left,up,low,high,black_high_45-white_high_135-black_high_135-white_high_135,white_low_45_up,black_low_135_up,9,1.479840863,0.2467529,left,0.1966347,1,9,18,1,1,1,1,TRUE,FALSE,low_3_mask_high,0.75,-1,3,FALSE,9,,,,,,,,,,,,,,,,,,,165,11,3.2.2021,164.9514465
300,"['high', 2, 'high']",2,white,0.770659878,45,left,down,high,high,white_high_135-white_high_135-black_high_45-black_high_135,white_high_45_down,black_high_135_down,17,1.247238796,0.248797,right,0.2095936,0,17,19,1,1,1,1,TRUE,FALSE,high_2_mask_high,0.75,-1,3,TRUE,10,,,,,,,,,,,,,,,,,,,165,11,3.2.2021,164.9514465
301,"['low', 2, 'low']",2,black,0.581122222,45,right,down,low,low,black_low_45-black_low_135-white_low_135-white_low_45,black_low_45_down,white_low_135_down,4,1.62177111,0.2467482,right,0.1779935,1,4,15,1,1,1,1,TRUE,FALSE,low_2_mask_low,0.75,-1,3,FALSE,8,,,,,,,,,,,,,,,,,,,165,11,3.2.2021,164.9514465
302,"['low', 3, 'low']",3,black,0.376578732,45,right,down,low,low,black_low_135-white_low_135-white_low_45-black_low_45,black_low_45_down,white_low_135_down,9,1.71503377,0.2467744,right,0.2649096,1,9,15,1,1,1,1,TRUE,FALSE,low_3_mask_low,0.75,-1,3,FALSE,6,,,,,,,,,,,,,,,,,,,165,11,3.2.2021,164.9514465
303,"['low', 1, 'high']",1,black,0.261161354,135,left,down,low,high,black_high_135-white_high_135-black_high_45-white_high_135,black_low_135_down,white_low_45_down,4,1.47549685,0.250313,left,0.2223639,1,4,20,1,1,1,1,TRUE,FALSE,low_1_mask_high,0.75,-1,3,FALSE,8,,,,,,,,,,,,,,,,,,,165,11,3.2.2021,164.9514465
304,"['low', 3, 'high']",3,white,0.620071848,45,left,down,low,high,white_high_135-black_high_45-black_high_135-white_high_135,white_low_45_down,black_low_135_down,8,1.984286074,0.2485409,left,0.0998454,1,8,19,1,1,1,1,TRUE,FALSE,low_3_mask_high,0.75,-1,3,FALSE,9,,,,,,,,,,,,,,,,,,,165,11,3.2.2021,164.9514465
305,"['low', 1, 'low']",1,white,0.171581674,45,left,down,low,low,black_low_45-black_low_135-white_low_45-white_low_135,white_low_45_down,black_low_135_down,5,1.622886334,0.2485489,right,0.2694264,0,5,15,1,1,1,1,TRUE,FALSE,low_1_mask_low,0.75,-1,3,TRUE,7,,,,,,,,,,,,,,,,,,,165,11,3.2.2021,164.9514465
306,"['low', 2, 'high']",2,black,0.227530659,45,right,down,low,high,white_high_135-white_high_135-black_high_45-black_high_135,black_low_45_down,white_low_135_down,3,1.781653715,0.2467303,right,0.1750448,1,3,16,1,1,1,1,TRUE,FALSE,low_2_mask_high,0.75,-1,3,FALSE,6,,,,,,,,,,,,,,,,,,,165,11,3.2.2021,164.9514465
307,"['med', 2, 'low']",2,black,0.300771191,135,left,up,med,low,white_low_135-black_low_135-white_low_45-black_low_45,black_med_135_up,white_med_45_up,7,1.20691971,0.2485407,left,0.0277781,1,7,21,1,1,1,1,TRUE,FALSE,med_2_mask_low,0.75,-1,3,FALSE,9,,,,,,,,,,,,,,,,,,,165,11,3.2.2021,164.9514465
308,"['low', 3, 'low']",3,white,0.35261322,135,right,down,low,low,black_low_45-white_low_135-black_low_135-white_low_45,white_low_135_down,black_low_45_down,8,1.567388752,0.2485463,left,0.2515574,0,8,16,1,1,1,1,TRUE,FALSE,low_3_mask_low,0.75,-1,3,TRUE,7,,,,,,,,,,,,,,,,,,,165,11,3.2.2021,164.9514465
309,"['med', 1, 'low']",1,white,0.926175627,135,right,down,med,low,black_low_45-white_low_45-white_low_135-black_low_135,white_med_135_down,black_med_45_down,18,1.224117591,0.250298,right,0.2097663,1,18,18,1,1,1,1,TRUE,FALSE,med_1_mask_low,0.75,-1,3,FALSE,12,,,,,,,,,,,,,,,,,,,165,11,3.2.2021,164.9514465
310,"['high', 3, 'low']",3,black,0.180961049,45,right,up,high,low,black_low_45-white_low_135-black_low_135-white_low_45,black_high_45_up,white_high_135_up,14,1.275649858,0.2506473,left,0.3664608,0,14,18,1,1,1,1,TRUE,FALSE,high_3_mask_low,0.75,-1,3,TRUE,8,,,,,,,,,,,,,,,,,,,165,11,3.2.2021,164.9514465
311,"['high', 1, 'low']",1,white,0.66220325,45,left,up,high,low,white_low_45-black_low_135-black_low_45-white_low_135,white_high_45_up,black_high_135_up,33,1.471246283,0.2485431,left,0.2157798,1,33,15,0,1,1,1,TRUE,FALSE,high_1_mask_low,0.75,-1,3,TRUE,6,,,,,,,,,,,,,,,,,,,165,11,3.2.2021,164.9514465
312,"['low', 3, 'high']",3,black,0.7297207,45,right,down,low,high,white_high_135-white_high_135-black_high_45-black_high_135,black_low_45_down,white_low_135_down,7,1.696561535,0.2485505,left,0.1703266,0,7,20,1,1,1,1,TRUE,FALSE,low_3_mask_high,0.75,-1,3,TRUE,10,,,,,,,,,,,,,,,,,,,165,11,3.2.2021,164.9514465
313,"['med', 2, 'high']",2,black,0.334159051,45,right,up,med,high,black_high_135-white_high_135-black_high_45-white_high_135,black_med_45_up,white_med_135_up,12,1.370528189,0.2485341,right,0.1424263,1,12,16,0,1,1,1,TRUE,FALSE,med_2_mask_high,0.75,-1,3,TRUE,8,,,,,,,,,,,,,,,,,,,165,11,3.2.2021,164.9514465
314,"['low', 1, 'low']",1,white,0.66252336,45,left,up,low,low,black_low_135-black_low_45-white_low_45-white_low_135,white_low_45_up,black_low_135_up,8,1.063588991,0.2467796,left,0.1019471,1,8,16,0,1,1,1,TRUE,FALSE,low_1_mask_low,0.75,-1,3,TRUE,8,,,,,,,,,,,,,,,,,,,165,11,3.2.2021,164.9514465
315,"['low', 2, 'high']",2,black,0.211794067,45,right,down,low,high,black_high_45-black_high_135-white_high_135-white_high_135,black_low_45_down,white_low_135_down,2,1.932461023,0.2467712,right,0.2229937,1,2,17,1,1,1,1,TRUE,FALSE,low_2_mask_high,0.75,-1,3,FALSE,6,,,,,,,,,,,,,,,,,,,165,11,3.2.2021,164.9514465
316,"['med', 2, 'high']",2,white,0.263894589,135,right,up,med,high,black_high_45-black_high_135-white_high_135-white_high_135,white_med_135_up,black_med_45_up,11,1.481668777,0.2467699,right,0.1901174,1,11,17,1,1,1,1,TRUE,FALSE,med_2_mask_high,0.75,-1,3,FALSE,8,,,,,,,,,,,,,,,,,,,165,11,3.2.2021,164.9514465
317,"['med', 3, 'high']",3,white,0.463143926,135,right,up,med,high,black_high_45-black_high_135-white_high_135-white_high_135,white_med_135_up,black_med_45_up,13,1.617479171,0.2467073,right,0.0146281,1,13,15,0,1,1,1,TRUE,FALSE,med_3_mask_high,0.75,-1,3,TRUE,7,,,,,,,,,,,,,,,,,,,165,11,3.2.2021,164.9514465
318,"['med', 2, 'high']",2,black,0.887984921,135,left,down,med,high,black_high_135-white_high_135-white_high_135-black_high_45,black_med_135_down,white_med_45_down,10,1.597944503,0.2502926,left,0.1235714,1,10,18,1,1,1,1,TRUE,FALSE,med_2_mask_high,0.75,-1,3,FALSE,8,,,,,,,,,,,,,,,,,,,165,11,3.2.2021,164.9514465
319,"['low', 2, 'low']",2,white,0.823713925,135,right,up,low,low,white_low_135-black_low_45-white_low_45-black_low_135,white_low_135_up,black_low_45_up,3,1.664638722,0.2502969,left,0.2115246,0,3,16,1,1,1,1,TRUE,FALSE,low_2_mask_low,0.75,-1,3,TRUE,9,,,,,,,,,,,,,,,,,,,165,11,3.2.2021,164.9514465
320,"['high', 1, 'low']",1,white,0.985024667,45,left,up,high,low,black_low_45-black_low_135-white_low_135-white_low_45,white_high_45_up,black_high_135_up,32,1.238868614,0.2467319,left,0.1226436,1,32,16,1,1,1,1,TRUE,FALSE,high_1_mask_low,0.75,-1,3,FALSE,6,,,,,,,,,,,,,,,,,,,165,11,3.2.2021,164.9514465
321,"['high', 2, 'low']",2,black,0.866284124,135,left,down,high,low,white_low_45-white_low_135-black_low_45-black_low_135,black_high_135_down,white_high_45_down,15,1.252172535,0.2502916,right,0.0543636,0,15,13,1,1,1,1,TRUE,FALSE,high_2_mask_low,0.75,-1,3,TRUE,8,,,,,,,,,,,,,,,,,,,165,11,3.2.2021,164.9514465
322,"['low', 3, 'high']",3,black,0.333607195,45,right,down,low,high,white_high_135-black_high_45-black_high_135-white_high_135,black_low_45_down,white_low_135_down,10,1.48694306,0.2485255,left,0.160544,0,10,21,0,1,1,1,TRUE,FALSE,low_3_mask_high,0.75,-1,3,FALSE,10,,,,,,,,,,,,,,,,,,,165,11,3.2.2021,164.9514465
323,"['high', 1, 'low']",1,white,0.633902037,45,left,up,high,low,black_low_45-black_low_135-white_low_45-white_low_135,white_high_45_up,black_high_135_up,31,1.39824757,0.250292,left,0.2393388,1,31,17,1,1,1,1,TRUE,FALSE,high_1_mask_low,0.75,-1,3,FALSE,6,,,,,,,,,,,,,,,,,,,165,11,3.2.2021,164.9514465
