trial_number,trial_type,cycle_number,first_color,phase,first_orientation,correct_response,visual_field,spatial_frequency,mask_type,mask_images,first_stim,second_stim,stimulus_frame_duration,fixation_duration,mask_duration,answer,rt,accuracy,staircase_dv,staircase_trial_num,staircase_previous_correct,staircase_phase,staircase_step_size,staircase_powers_law,staircase_siam,staircase_over,staircase_name,staircase_conv_p,staircase_step_hit,staircase_step_miss,staircase_reversal,staircase_reversal_num,threshold_low1_mask_low,threshold_low2_mask_low,threshold_low3_mask_low,threshold_high1_mask_low,threshold_high2_mask_low,threshold_high3_mask_low,threshold_low1_mask_high,threshold_low2_mask_high,threshold_low3_mask_high,threshold_high1_mask_high,threshold_high2_mask_high,threshold_high3_mask_high,threshold_med1_mask_low,threshold_med2_mask_low,threshold_med3_mask_low,threshold_med1_mask_high,threshold_med2_mask_high,threshold_med3_mask_high,frame_rate,participant,psychopyVersion,frame_rate_detected
0,"['med', 1, 'high']",1,white,0.532763112,135,right,up,med,high,white_high_135-black_high_45-white_high_135-black_high_135,white_med_135_up,black_med_45_up,12,1.645238455,0.2467167,left,0.1515992,0,12,0,None,0,1,1,TRUE,FALSE,med_1_mask_high,0.75,-1,3,FALSE,0,,,,,,,,,,,,,,,,,,,165,2,3.2.2021,164.9519907
1,"['high', 2, 'low']",2,white,0.817307984,45,left,up,high,low,white_low_135-black_low_135-white_low_45-black_low_45,white_high_45_up,black_high_135_up,8,1.239768997,0.2502974,left,0.2029514,1,8,0,None,0,1,1,TRUE,FALSE,high_2_mask_low,0.75,-1,3,FALSE,0,,,,,,,,,,,,,,,,,,,165,2,3.2.2021,164.9519907
2,"['high', 1, 'low']",1,black,0.632262888,45,right,down,high,low,white_low_135-black_low_45-white_low_45-black_low_135,black_high_45_down,white_high_135_down,12,1.385478151,0.2485462,left,0.9563622,0,12,0,None,0,1,1,TRUE,FALSE,high_1_mask_low,0.75,-1,3,FALSE,0,,,,,,,,,,,,,,,,,,,165,2,3.2.2021,164.9519907
3,"['med', 1, 'low']",1,black,0.16829073,135,left,up,med,low,white_low_135-black_low_135-black_low_45-white_low_45,black_med_135_up,white_med_45_up,12,1.804844574,0.24854,left,0.4124574,1,12,0,None,0,1,1,TRUE,FALSE,med_1_mask_low,0.75,-1,3,FALSE,0,,,,,,,,,,,,,,,,,,,165,2,3.2.2021,164.9519907
4,"['high', 1, 'high']",1,white,0.068715828,135,right,down,high,high,white_high_135-black_high_45-white_high_135-black_high_135,white_high_135_down,black_high_45_down,12,1.130748771,0.2485522,right,0.0890988,1,12,0,None,0,1,1,TRUE,FALSE,high_1_mask_high,0.75,-1,3,FALSE,0,,,,,,,,,,,,,,,,,,,165,2,3.2.2021,164.9519907
5,"['low', 3, 'low']",3,white,0.402561632,45,left,up,low,low,black_low_45-black_low_135-white_low_45-white_low_135,white_low_45_up,black_low_135_up,3,1.364720018,0.2488479,left,0.1098329,1,3,0,None,0,1,1,TRUE,FALSE,low_3_mask_low,0.75,-1,3,FALSE,0,,,,,,,,,,,,,,,,,,,165,2,3.2.2021,164.9519907
6,"['high', 2, 'low']",2,black,0.617617115,135,left,up,high,low,white_low_45-white_low_135-black_low_45-black_low_135,black_high_135_up,white_high_45_up,7,1.478471083,0.2468383,right,0.1478923,0,7,1,1,0,1,1,TRUE,FALSE,high_2_mask_low,0.75,-1,3,TRUE,1,,,,,,,,,,,,,,,,,,,165,2,3.2.2021,164.9519907
7,"['low', 1, 'low']",1,white,0.843202761,135,right,up,low,low,white_low_135-white_low_45-black_low_45-black_low_135,white_low_135_up,black_low_45_up,8,1.611484034,0.248553,right,0.2165499,1,8,0,None,0,1,1,TRUE,FALSE,low_1_mask_low,0.75,-1,3,FALSE,0,,,,,,,,,,,,,,,,,,,165,2,3.2.2021,164.9519907
8,"['low', 3, 'high']",3,black,0.116729057,135,left,up,low,high,white_high_135-white_high_135-black_high_135-black_high_45,black_low_135_up,white_low_45_up,3,1.267947742,0.2485462,left,0.2640494,1,3,0,None,0,1,1,TRUE,FALSE,low_3_mask_high,0.75,-1,3,FALSE,0,,,,,,,,,,,,,,,,,,,165,2,3.2.2021,164.9519907
9,"['low', 3, 'high']",3,white,0.129768311,135,right,up,low,high,white_high_135-black_high_45-black_high_135-white_high_135,white_low_135_up,black_low_45_up,2,1.32130364,0.2485437,left,0.0147791,0,2,1,1,0,1,1,TRUE,FALSE,low_3_mask_high,0.75,-1,3,TRUE,1,,,,,,,,,,,,,,,,,,,165,2,3.2.2021,164.9519907
10,"['low', 3, 'low']",3,white,0.645523677,45,left,down,low,low,white_low_135-white_low_45-black_low_135-black_low_45,white_low_45_down,black_low_135_down,2,1.765522022,0.24855,right,0.4709702,0,2,1,1,0,1,1,TRUE,FALSE,low_3_mask_low,0.75,-1,3,TRUE,1,,,,,,,,,,,,,,,,,,,165,2,3.2.2021,164.9519907
11,"['low', 3, 'high']",3,black,0.435570216,135,left,up,low,high,black_high_135-white_high_135-black_high_45-white_high_135,black_low_135_up,white_low_45_up,5,1.126170719,0.2485565,right,0.2872855,0,5,2,0,0,1,1,TRUE,FALSE,low_3_mask_high,0.75,-1,3,FALSE,1,,,,,,,,,,,,,,,,,,,165,2,3.2.2021,164.9519907
12,"['med', 1, 'low']",1,white,0.880211681,45,left,down,med,low,black_low_45-white_low_45-white_low_135-black_low_135,white_med_45_down,black_med_135_down,11,1.979348507,0.248545,left,0.0686246,1,11,1,1,0,1,1,TRUE,FALSE,med_1_mask_low,0.75,-1,3,FALSE,0,,,,,,,,,,,,,,,,,,,165,2,3.2.2021,164.9519907
13,"['low', 1, 'high']",1,black,0.859388244,135,left,up,low,high,black_high_135-black_high_45-white_high_135-white_high_135,black_low_135_up,white_low_45_up,8,1.060276788,0.2450379,right,0.2030834,0,8,0,None,0,1,1,TRUE,FALSE,low_1_mask_high,0.75,-1,3,FALSE,0,,,,,,,,,,,,,,,,,,,165,2,3.2.2021,164.9519907
14,"['high', 3, 'low']",3,black,0.645324402,135,left,down,high,low,white_low_45-black_low_45-white_low_135-black_low_135,black_high_135_down,white_high_45_down,8,1.872426539,0.248541,right,0.3377981,0,8,0,None,0,1,1,TRUE,FALSE,high_3_mask_low,0.75,-1,3,FALSE,0,,,,,,,,,,,,,,,,,,,165,2,3.2.2021,164.9519907
15,"['med', 3, 'high']",3,black,0.918114377,135,left,down,med,high,black_high_45-white_high_135-black_high_135-white_high_135,black_med_135_down,white_med_45_down,8,1.078228433,0.2485492,right,0.2284076,0,8,0,None,0,1,1,TRUE,FALSE,med_3_mask_high,0.75,-1,3,FALSE,0,,,,,,,,,,,,,,,,,,,165,2,3.2.2021,164.9519907
16,"['low', 2, 'low']",2,white,0.928969983,135,right,up,low,low,black_low_45-white_low_135-white_low_45-black_low_135,white_low_135_up,black_low_45_up,3,1.187663419,0.2485425,right,1.0288013,1,3,0,None,0,1,1,TRUE,FALSE,low_2_mask_low,0.75,-1,3,FALSE,0,,,,,,,,,,,,,,,,,,,165,2,3.2.2021,164.9519907
17,"['low', 3, 'high']",3,white,0.526175744,135,right,down,low,high,white_high_135-black_high_45-black_high_135-white_high_135,white_low_135_down,black_low_45_down,8,1.752438095,0.2485597,right,1.5529944,1,8,3,0,0,1,1,TRUE,FALSE,low_3_mask_high,0.75,-1,3,TRUE,2,,,,,,,,,,,,,,,,,,,165,2,3.2.2021,164.9519907
18,"['med', 1, 'low']",1,white,0.009405727,135,right,down,med,low,white_low_45-black_low_45-black_low_135-white_low_135,white_med_135_down,black_med_45_down,10,1.189845494,0.2467531,right,0.3811549,1,10,2,1,0,1,1,TRUE,FALSE,med_1_mask_low,0.75,-1,3,FALSE,0,,,,,,,,,,,,,,,,,,,165,2,3.2.2021,164.9519907
19,"['med', 3, 'high']",3,black,0.967124206,45,right,down,med,high,white_high_135-black_high_135-black_high_45-white_high_135,black_med_45_down,white_med_135_down,11,1.0960155,0.2502957,right,0.2489396,1,11,1,0,0,1,1,TRUE,FALSE,med_3_mask_high,0.75,-1,3,TRUE,1,,,,,,,,,,,,,,,,,,,165,2,3.2.2021,164.9519907
20,"['high', 2, 'high']",2,black,0.411421628,135,left,down,high,high,black_high_45-white_high_135-black_high_135-white_high_135,black_high_135_down,white_high_45_down,8,1.492747497,0.2467776,right,0.3366743,0,8,0,None,0,1,1,TRUE,FALSE,high_2_mask_high,0.75,-1,3,FALSE,0,,,,,,,,,,,,,,,,,,,165,2,3.2.2021,164.9519907
21,"['med', 3, 'high']",3,white,0.589075326,135,right,up,med,high,white_high_135-black_high_135-black_high_45-white_high_135,white_med_135_up,black_med_45_up,10,1.186119599,0.2502913,right,0.3513213,1,10,2,1,0,1,1,TRUE,FALSE,med_3_mask_high,0.75,-1,3,FALSE,1,,,,,,,,,,,,,,,,,,,165,2,3.2.2021,164.9519907
22,"['low', 3, 'high']",3,white,0.919941169,135,right,up,low,high,white_high_135-black_high_45-white_high_135-black_high_135,white_low_135_up,black_low_45_up,7,1.097787024,0.2502943,right,0.405775,1,7,4,1,0,1,1,TRUE,FALSE,low_3_mask_high,0.75,-1,3,FALSE,2,,,,,,,,,,,,,,,,,,,165,2,3.2.2021,164.9519907
23,"['low', 1, 'high']",1,black,0.741249451,135,left,down,low,high,white_high_135-white_high_135-black_high_135-black_high_45,black_low_135_down,white_low_45_down,11,1.877843895,0.2485441,right,0.3735507,0,11,1,0,0,1,1,TRUE,FALSE,low_1_mask_high,0.75,-1,3,FALSE,0,,,,,,,,,,,,,,,,,,,165,2,3.2.2021,164.9519907
24,"['high', 2, 'high']",2,white,0.460755674,45,left,up,high,high,black_high_45-black_high_135-white_high_135-white_high_135,white_high_45_up,black_high_135_up,11,1.254171764,0.2485446,left,0.2349041,1,11,1,0,0,1,1,TRUE,FALSE,high_2_mask_high,0.75,-1,3,TRUE,1,,,,,,,,,,,,,,,,,,,165,2,3.2.2021,164.9519907
25,"['low', 1, 'high']",1,white,0.095782332,135,right,down,low,high,black_high_45-white_high_135-white_high_135-black_high_135,white_low_135_down,black_low_45_down,14,1.357555633,0.2449831,right,0.2293734,1,14,2,0,0,1,1,TRUE,FALSE,low_1_mask_high,0.75,-1,3,TRUE,1,,,,,,,,,,,,,,,,,,,165,2,3.2.2021,164.9519907
26,"['low', 3, 'low']",3,black,0.568454847,135,left,down,low,low,white_low_135-white_low_45-black_low_135-black_low_45,black_low_135_down,white_low_45_down,5,1.169778801,0.2485443,right,0.3728293,0,5,2,0,0,1,1,TRUE,FALSE,low_3_mask_low,0.75,-1,3,FALSE,1,,,,,,,,,,,,,,,,,,,165,2,3.2.2021,164.9519907
27,"['low', 2, 'low']",2,white,0.186748054,135,right,up,low,low,white_low_135-black_low_135-black_low_45-white_low_45,white_low_135_up,black_low_45_up,2,1.115476095,0.2485445,left,0.2761129,0,2,1,1,0,1,1,TRUE,FALSE,low_2_mask_low,0.75,-1,3,TRUE,1,,,,,,,,,,,,,,,,,,,165,2,3.2.2021,164.9519907
28,"['med', 3, 'high']",3,black,0.429374823,45,right,up,med,high,black_high_45-white_high_135-black_high_135-white_high_135,black_med_45_up,white_med_135_up,9,1.168923781,0.2485536,left,0.1691922,0,9,3,1,0,1,1,TRUE,FALSE,med_3_mask_high,0.75,-1,3,TRUE,2,,,,,,,,,,,,,,,,,,,165,2,3.2.2021,164.9519907
29,"['high', 1, 'low']",1,black,0.203921521,135,left,down,high,low,white_low_45-white_low_135-black_low_135-black_low_45,black_high_135_down,white_high_45_down,15,1.682666635,0.2485515,right,0.2578028,0,15,1,0,0,1,1,TRUE,FALSE,high_1_mask_low,0.75,-1,3,FALSE,0,,,,,,,,,,,,,,,,,,,165,2,3.2.2021,164.9519907
30,"['high', 2, 'low']",2,black,0.599406911,135,left,up,high,low,black_low_45-black_low_135-white_low_135-white_low_45,black_high_135_up,white_high_45_up,10,1.011682303,0.2467179,right,0.2611088,0,10,2,0,0,1,1,TRUE,FALSE,high_2_mask_low,0.75,-1,3,FALSE,1,,,,,,,,,,,,,,,,,,,165,2,3.2.2021,164.9519907
31,"['high', 3, 'high']",3,white,0.307727703,45,left,up,high,high,black_high_135-white_high_135-white_high_135-black_high_45,white_high_45_up,black_high_135_up,8,1.711724502,0.2485485,right,0.2526478,0,8,0,None,0,1,1,TRUE,FALSE,high_3_mask_high,0.75,-1,3,FALSE,0,,,,,,,,,,,,,,,,,,,165,2,3.2.2021,164.9519907
32,"['med', 2, 'high']",2,black,0.141958406,45,right,up,med,high,white_high_135-black_high_135-black_high_45-white_high_135,black_med_45_up,white_med_135_up,8,1.369842207,0.2503193,right,0.2164985,1,8,0,None,0,1,1,TRUE,FALSE,med_2_mask_high,0.75,-1,3,FALSE,0,,,,,,,,,,,,,,,,,,,165,2,3.2.2021,164.9519907
33,"['low', 1, 'high']",1,white,0.829709371,45,left,down,low,high,white_high_135-black_high_135-black_high_45-white_high_135,white_low_45_down,black_low_135_down,13,1.726060452,0.2488051,left,0.2407962,1,13,3,1,0,1,1,TRUE,FALSE,low_1_mask_high,0.75,-1,3,FALSE,1,,,,,,,,,,,,,,,,,,,165,2,3.2.2021,164.9519907
34,"['high', 2, 'low']",2,black,0.803886757,135,left,down,high,low,black_low_135-black_low_45-white_low_135-white_low_45,black_high_135_down,white_high_45_down,13,1.194880885,0.2485175,right,0.6137533,0,13,3,0,0,1,1,TRUE,FALSE,high_2_mask_low,0.75,-1,3,FALSE,1,,,,,,,,,,,,,,,,,,,165,2,3.2.2021,164.9519907
35,"['med', 2, 'low']",2,white,0.825290222,45,left,up,med,low,black_low_45-white_low_45-black_low_135-white_low_135,white_med_45_up,black_med_135_up,8,1.117120092,0.2485477,left,0.375736,1,8,0,None,0,1,1,TRUE,FALSE,med_2_mask_low,0.75,-1,3,FALSE,0,,,,,,,,,,,,,,,,,,,165,2,3.2.2021,164.9519907
36,"['med', 1, 'low']",1,black,0.35582175,45,right,up,med,low,black_low_135-white_low_45-white_low_135-black_low_45,black_med_45_up,white_med_135_up,9,1.517556361,0.2503165,left,0.2948193,0,9,3,1,0,1,1,TRUE,FALSE,med_1_mask_low,0.75,-1,3,TRUE,1,,,,,,,,,,,,,,,,,,,165,2,3.2.2021,164.9519907
37,"['low', 3, 'low']",3,white,0.313393969,45,left,up,low,low,black_low_135-white_low_45-white_low_135-black_low_45,white_low_45_up,black_low_135_up,8,1.162635704,0.2485463,left,0.2928124,1,8,3,0,0,1,1,TRUE,FALSE,low_3_mask_low,0.75,-1,3,TRUE,2,,,,,,,,,,,,,,,,,,,165,2,3.2.2021,164.9519907
38,"['med', 2, 'high']",2,black,0.234918371,135,left,down,med,high,black_high_135-white_high_135-white_high_135-black_high_45,black_med_135_down,white_med_45_down,7,1.405226793,0.2502894,right,0.3308857,0,7,1,1,0,1,1,TRUE,FALSE,med_2_mask_high,0.75,-1,3,TRUE,1,,,,,,,,,,,,,,,,,,,165,2,3.2.2021,164.9519907
39,"['high', 3, 'low']",3,white,0.01155479,135,right,down,high,low,black_low_45-white_low_135-black_low_135-white_low_45,white_high_135_down,black_high_45_down,11,1.087655933,0.2485427,right,0.4714865,1,11,1,0,0,1,1,TRUE,FALSE,high_3_mask_low,0.75,-1,3,TRUE,1,,,,,,,,,,,,,,,,,,,165,2,3.2.2021,164.9519907
40,"['high', 2, 'high']",2,white,0.90759284,45,left,up,high,high,white_high_135-black_high_45-white_high_135-black_high_135,white_high_45_up,black_high_135_up,10,1.94916719,0.2488563,left,0.2374825,1,10,2,1,0,1,1,TRUE,FALSE,high_2_mask_high,0.75,-1,3,FALSE,1,,,,,,,,,,,,,,,,,,,165,2,3.2.2021,164.9519907
41,"['low', 1, 'low']",1,white,0.877796477,45,left,down,low,low,black_low_45-black_low_135-white_low_135-white_low_45,white_low_45_down,black_low_135_down,7,1.854339603,0.2451254,left,0.3988076,1,7,1,1,0,1,1,TRUE,FALSE,low_1_mask_low,0.75,-1,3,FALSE,0,,,,,,,,,,,,,,,,,,,165,2,3.2.2021,164.9519907
42,"['high', 2, 'low']",2,white,0.103967532,45,left,up,high,low,black_low_45-black_low_135-white_low_45-white_low_135,white_high_45_up,black_high_135_up,16,1.320333016,0.2485511,left,0.3527243,1,16,4,0,0,1,1,TRUE,FALSE,high_2_mask_low,0.75,-1,3,TRUE,2,,,,,,,,,,,,,,,,,,,165,2,3.2.2021,164.9519907
43,"['med', 3, 'high']",3,black,0.767606915,45,right,down,med,high,white_high_135-black_high_45-white_high_135-black_high_135,black_med_45_down,white_med_135_down,12,1.659396311,0.248551,right,0.2702877,1,12,4,0,0,1,1,TRUE,FALSE,med_3_mask_high,0.75,-1,3,TRUE,3,,,,,,,,,,,,,,,,,,,165,2,3.2.2021,164.9519907
44,"['med', 3, 'high']",3,black,0.508100561,45,right,up,med,high,black_high_135-white_high_135-white_high_135-black_high_45,black_med_45_up,white_med_135_up,11,1.015334554,0.2485464,right,0.2958003,1,11,5,1,0,1,1,TRUE,FALSE,med_3_mask_high,0.75,-1,3,FALSE,3,,,,,,,,,,,,,,,,,,,165,2,3.2.2021,164.9519907
45,"['low', 1, 'high']",1,white,0.855487306,135,right,down,low,high,black_high_135-white_high_135-white_high_135-black_high_45,white_low_135_down,black_low_45_down,12,1.217000148,0.2467671,right,0.2315469,1,12,4,1,0,1,1,TRUE,FALSE,low_1_mask_high,0.75,-1,3,FALSE,1,,,,,,,,,,,,,,,,,,,165,2,3.2.2021,164.9519907
46,"['med', 3, 'low']",3,black,0.082919506,135,left,up,med,low,black_low_45-white_low_135-white_low_45-black_low_135,black_med_135_up,white_med_45_up,8,1.829799687,0.2485497,right,0.5471443,0,8,0,None,0,1,1,TRUE,FALSE,med_3_mask_low,0.75,-1,3,FALSE,0,,,,,,,,,,,,,,,,,,,165,2,3.2.2021,164.9519907
47,"['low', 1, 'high']",1,white,0.680041546,135,right,up,low,high,black_high_45-black_high_135-white_high_135-white_high_135,white_low_135_up,black_low_45_up,11,1.97307073,0.2485517,right,0.7713382,1,11,5,1,0,1,1,TRUE,FALSE,low_1_mask_high,0.75,-1,3,FALSE,1,,,,,,,,,,,,,,,,,,,165,2,3.2.2021,164.9519907
48,"['low', 3, 'low']",3,black,0.747675288,45,right,up,low,low,black_low_45-black_low_135-white_low_135-white_low_45,black_low_45_up,white_low_135_up,7,1.712091088,0.2485579,right,0.2430348,1,7,4,1,0,1,1,TRUE,FALSE,low_3_mask_low,0.75,-1,3,FALSE,2,,,,,,,,,,,,,,,,,,,165,2,3.2.2021,164.9519907
49,"['med', 2, 'high']",2,black,0.254295624,135,left,up,med,high,black_high_45-white_high_135-white_high_135-black_high_135,black_med_135_up,white_med_45_up,10,1.792544682,0.2485474,right,0.4270274,0,10,2,0,0,1,1,TRUE,FALSE,med_2_mask_high,0.75,-1,3,FALSE,1,,,,,,,,,,,,,,,,,,,165,2,3.2.2021,164.9519907
50,"['med', 3, 'low']",3,black,0.12346681,135,left,up,med,low,white_low_135-black_low_45-white_low_45-black_low_135,black_med_135_up,white_med_45_up,11,1.41888141,0.2485406,right,0.5984023,0,11,1,0,0,1,1,TRUE,FALSE,med_3_mask_low,0.75,-1,3,FALSE,0,,,,,,,,,,,,,,,,,,,165,2,3.2.2021,164.9519907
51,"['low', 3, 'low']",3,white,0.466425756,135,right,up,low,low,black_low_135-white_low_45-white_low_135-black_low_45,white_low_135_up,black_low_45_up,6,1.243906751,0.2485423,right,0.802913,1,6,5,1,0,1,1,TRUE,FALSE,low_3_mask_low,0.75,-1,3,FALSE,2,,,,,,,,,,,,,,,,,,,165,2,3.2.2021,164.9519907
52,"['low', 2, 'high']",2,black,0.440357507,45,right,down,low,high,black_high_45-black_high_135-white_high_135-white_high_135,black_low_45_down,white_low_135_down,3,1.150620987,0.2467156,left,0.6270258,0,3,0,None,0,1,1,TRUE,FALSE,low_2_mask_high,0.75,-1,3,FALSE,0,,,,,,,,,,,,,,,,,,,165,2,3.2.2021,164.9519907
53,"['low', 2, 'low']",2,white,0.859905263,135,right,down,low,low,black_low_135-black_low_45-white_low_135-white_low_45,white_low_135_down,black_low_45_down,5,1.186596455,0.2485408,right,0.3481559,1,5,2,0,0,1,1,TRUE,FALSE,low_2_mask_low,0.75,-1,3,TRUE,2,,,,,,,,,,,,,,,,,,,165,2,3.2.2021,164.9519907
54,"['high', 2, 'low']",2,black,0.037668035,45,right,down,high,low,white_low_45-black_low_135-black_low_45-white_low_135,black_high_45_down,white_high_135_down,15,1.578798806,0.2485514,right,0.3171356,1,15,5,1,0,1,1,TRUE,FALSE,high_2_mask_low,0.75,-1,3,FALSE,2,,,,,,,,,,,,,,,,,,,165,2,3.2.2021,164.9519907
55,"['low', 3, 'low']",3,black,0.344651236,135,left,up,low,low,black_low_45-black_low_135-white_low_45-white_low_135,black_low_135_up,white_low_45_up,5,1.47936133,0.2485527,right,0.6160363,0,5,6,1,0,1,1,TRUE,FALSE,low_3_mask_low,0.75,-1,3,TRUE,3,,,,,,,,,,,,,,,,,,,165,2,3.2.2021,164.9519907
56,"['low', 3, 'low']",3,black,0.14889685,135,left,down,low,low,white_low_135-white_low_45-black_low_135-black_low_45,black_low_135_down,white_low_45_down,8,1.163196444,0.2467651,left,0.23652,1,8,7,0,0,1,1,TRUE,FALSE,low_3_mask_low,0.75,-1,3,TRUE,4,,,,,,,,,,,,,,,,,,,165,2,3.2.2021,164.9519907
57,"['med', 1, 'high']",1,white,0.825414923,135,right,down,med,high,white_high_135-black_high_135-white_high_135-black_high_45,white_med_135_down,black_med_45_down,15,1.130252537,0.2485511,right,0.3155123,1,15,1,0,0,1,1,TRUE,FALSE,med_1_mask_high,0.75,-1,3,TRUE,1,,,,,,,,,,,,,,,,,,,165,2,3.2.2021,164.9519907
58,"['high', 2, 'high']",2,black,0.463349849,135,left,down,high,high,white_high_135-black_high_135-black_high_45-white_high_135,black_high_135_down,white_high_45_down,9,1.119257263,0.248544,right,0.1784917,0,9,3,1,0,1,1,TRUE,FALSE,high_2_mask_high,0.75,-1,3,TRUE,2,,,,,,,,,,,,,,,,,,,165,2,3.2.2021,164.9519907
59,"['med', 3, 'high']",3,white,0.027104134,135,right,up,med,high,white_high_135-black_high_45-black_high_135-white_high_135,white_med_135_up,black_med_45_up,10,1.204417535,0.2503223,right,0.2593616,1,10,6,1,0,1,1,TRUE,FALSE,med_3_mask_high,0.75,-1,3,FALSE,3,,,,,,,,,,,,,,,,,,,165,2,3.2.2021,164.9519907
60,"['low', 1, 'high']",1,black,0.763788335,45,right,up,low,high,white_high_135-black_high_45-black_high_135-white_high_135,black_low_45_up,white_low_135_up,10,1.195625009,0.2485477,left,0.0533614,0,10,6,1,0,1,1,TRUE,FALSE,low_1_mask_high,0.75,-1,3,TRUE,2,,,,,,,,,,,,,,,,,,,165,2,3.2.2021,164.9519907
61,"['high', 3, 'low']",3,black,0.690315646,45,right,down,high,low,black_low_135-black_low_45-white_low_45-white_low_135,black_high_45_down,white_high_135_down,10,1.502512667,0.2488445,right,0.4038803,1,10,2,1,0,1,1,TRUE,FALSE,high_3_mask_low,0.75,-1,3,FALSE,1,,,,,,,,,,,,,,,,,,,165,2,3.2.2021,164.9519907
62,"['low', 3, 'low']",3,black,0.718915364,45,right,down,low,low,black_low_135-black_low_45-white_low_45-white_low_135,black_low_45_down,white_low_135_down,7,1.043134136,0.2485525,right,0.3823651,1,7,8,1,0,1,1,TRUE,FALSE,low_3_mask_low,0.75,-1,3,FALSE,4,,,,,,,,,,,,,,,,,,,165,2,3.2.2021,164.9519907
63,"['high', 2, 'high']",2,black,0.851249243,45,right,up,high,high,white_high_135-black_high_45-white_high_135-black_high_135,black_high_45_up,white_high_135_up,12,1.58011315,0.2485485,right,0.2719637,1,12,4,0,0,1,1,TRUE,FALSE,high_2_mask_high,0.75,-1,3,TRUE,3,,,,,,,,,,,,,,,,,,,165,2,3.2.2021,164.9519907
64,"['high', 1, 'low']",1,black,0.547561242,45,right,up,high,low,black_low_135-white_low_45-black_low_45-white_low_135,black_high_45_up,white_high_135_up,18,1.171314815,0.2488518,left,0.2630469,0,18,2,0,0,1,1,TRUE,FALSE,high_1_mask_low,0.75,-1,3,FALSE,0,,,,,,,,,,,,,,,,,,,165,2,3.2.2021,164.9519907
65,"['med', 2, 'low']",2,white,0.136530974,45,left,up,med,low,white_low_45-black_low_45-black_low_135-white_low_135,white_med_45_up,black_med_135_up,7,1.848550203,0.2449827,left,0.3162823,1,7,1,1,0,1,1,TRUE,FALSE,med_2_mask_low,0.75,-1,3,FALSE,0,,,,,,,,,,,,,,,,,,,165,2,3.2.2021,164.9519907
66,"['high', 3, 'high']",3,white,0.609305195,135,right,down,high,high,black_high_135-white_high_135-black_high_45-white_high_135,white_high_135_down,black_high_45_down,11,1.500977736,0.24855,right,0.3406444,1,11,1,0,0,1,1,TRUE,FALSE,high_3_mask_high,0.75,-1,3,TRUE,1,,,,,,,,,,,,,,,,,,,165,2,3.2.2021,164.9519907
67,"['high', 3, 'low']",3,black,0.979438701,45,right,down,high,low,black_low_135-white_low_45-black_low_45-white_low_135,black_high_45_down,white_high_135_down,9,1.315066056,0.248551,left,0.9207544,0,9,3,1,0,1,1,TRUE,FALSE,high_3_mask_low,0.75,-1,3,TRUE,2,,,,,,,,,,,,,,,,,,,165,2,3.2.2021,164.9519907
68,"['high', 1, 'high']",1,white,0.593617246,45,left,up,high,high,white_high_135-black_high_135-black_high_45-white_high_135,white_high_45_up,black_high_135_up,11,1.752299197,0.2485428,left,0.3035496,1,11,1,1,0,1,1,TRUE,FALSE,high_1_mask_high,0.75,-1,3,FALSE,0,,,,,,,,,,,,,,,,,,,165,2,3.2.2021,164.9519907
69,"['high', 3, 'high']",3,white,0.135589175,45,left,down,high,high,black_high_45-white_high_135-white_high_135-black_high_135,white_high_45_down,black_high_135_down,10,1.809795114,0.2485547,right,0.4168029,0,10,2,1,0,1,1,TRUE,FALSE,high_3_mask_high,0.75,-1,3,TRUE,2,,,,,,,,,,,,,,,,,,,165,2,3.2.2021,164.9519907
70,"['high', 1, 'high']",1,black,0.666390663,135,left,up,high,high,black_high_45-white_high_135-white_high_135-black_high_135,black_high_135_up,white_high_45_up,10,1.165898995,0.2485453,left,0.0318396,1,10,2,1,0,1,1,TRUE,FALSE,high_1_mask_high,0.75,-1,3,FALSE,0,,,,,,,,,,,,,,,,,,,165,2,3.2.2021,164.9519907
71,"['med', 3, 'low']",3,black,0.626438604,45,right,down,med,low,white_low_135-white_low_45-black_low_135-black_low_45,black_med_45_down,white_med_135_down,14,1.231059476,0.2488585,right,0.2308241,1,14,2,0,0,1,1,TRUE,FALSE,med_3_mask_low,0.75,-1,3,TRUE,1,,,,,,,,,,,,,,,,,,,165,2,3.2.2021,164.9519907
72,"['low', 3, 'high']",3,white,0.281976483,45,left,down,low,high,white_high_135-white_high_135-black_high_45-black_high_135,white_low_45_down,black_low_135_down,6,1.247281964,0.2485601,left,0.2063195,1,6,5,1,0,1,1,TRUE,FALSE,low_3_mask_high,0.75,-1,3,FALSE,2,,,,,,,,,,,,,,,,,,,165,2,3.2.2021,164.9519907
73,"['med', 1, 'low']",1,black,0.658350057,45,right,down,med,low,white_low_45-white_low_135-black_low_135-black_low_45,black_med_45_down,white_med_135_down,12,1.695661267,0.2485374,right,0.2521833,1,12,4,0,0,1,1,TRUE,FALSE,med_1_mask_low,0.75,-1,3,TRUE,2,,,,,,,,,,,,,,,,,,,165,2,3.2.2021,164.9519907
74,"['high', 2, 'low']",2,black,0.454181827,135,left,down,high,low,white_low_135-black_low_135-white_low_45-black_low_45,black_high_135_down,white_high_45_down,14,1.356064604,0.2485758,right,0.0857053,0,14,6,1,0,1,1,TRUE,FALSE,high_2_mask_low,0.75,-1,3,TRUE,3,,,,,,,,,,,,,,,,,,,165,2,3.2.2021,164.9519907
75,"['low', 1, 'low']",1,white,0.342618672,45,left,down,low,low,white_low_45-white_low_135-black_low_45-black_low_135,white_low_45_down,black_low_135_down,6,1.431470808,0.2485479,left,0.0227412,1,6,2,1,0,1,1,TRUE,FALSE,low_1_mask_low,0.75,-1,3,FALSE,0,,,,,,,,,,,,,,,,,,,165,2,3.2.2021,164.9519907
76,"['low', 2, 'high']",2,black,0.346289241,135,left,down,low,high,white_high_135-white_high_135-black_high_135-black_high_45,black_low_135_down,white_low_45_down,6,1.919456979,0.2485413,right,0.3938276,0,6,1,0,0,1,1,TRUE,FALSE,low_2_mask_high,0.75,-1,3,FALSE,0,,,,,,,,,,,,,,,,,,,165,2,3.2.2021,164.9519907
77,"['med', 3, 'low']",3,white,0.827740738,135,right,up,med,low,black_low_45-white_low_45-black_low_135-white_low_135,white_med_135_up,black_med_45_up,13,1.563284209,0.2485452,right,0.1704063,1,13,3,1,0,1,1,TRUE,FALSE,med_3_mask_low,0.75,-1,3,FALSE,1,,,,,,,,,,,,,,,,,,,165,2,3.2.2021,164.9519907
78,"['med', 3, 'high']",3,black,0.179460843,45,right,down,med,high,black_high_45-white_high_135-white_high_135-black_high_135,black_med_45_down,white_med_135_down,9,1.376473825,0.2488466,right,0.5255049,1,9,7,1,0,1,1,TRUE,FALSE,med_3_mask_high,0.75,-1,3,FALSE,3,,,,,,,,,,,,,,,,,,,165,2,3.2.2021,164.9519907
79,"['high', 2, 'low']",2,white,0.299250861,45,left,up,high,low,black_low_45-black_low_135-white_low_45-white_low_135,white_high_45_up,black_high_135_up,17,1.794023863,0.2488432,left,0.138443,1,17,7,0,0,1,1,TRUE,FALSE,high_2_mask_low,0.75,-1,3,TRUE,4,,,,,,,,,,,,,,,,,,,165,2,3.2.2021,164.9519907
80,"['med', 2, 'high']",2,white,0.265270363,135,right,down,med,high,white_high_135-black_high_45-white_high_135-black_high_135,white_med_135_down,black_med_45_down,13,1.211766886,0.2485498,right,0.1932214,1,13,3,0,0,1,1,TRUE,FALSE,med_2_mask_high,0.75,-1,3,TRUE,2,,,,,,,,,,,,,,,,,,,165,2,3.2.2021,164.9519907
81,"['high', 2, 'high']",2,black,0.95015252,45,right,up,high,high,white_high_135-black_high_135-black_high_45-white_high_135,black_high_45_up,white_high_135_up,11,1.199784121,0.2485535,right,0.0299828,1,11,5,1,0,1,1,TRUE,FALSE,high_2_mask_high,0.75,-1,3,FALSE,3,,,,,,,,,,,,,,,,,,,165,2,3.2.2021,164.9519907
82,"['med', 1, 'high']",1,black,0.369231608,135,left,down,med,high,black_high_135-black_high_45-white_high_135-white_high_135,black_med_135_down,white_med_45_down,14,1.050668217,0.2467701,right,0.1000516,0,14,2,1,0,1,1,TRUE,FALSE,med_1_mask_high,0.75,-1,3,TRUE,2,,,,,,,,,,,,,,,,,,,165,2,3.2.2021,164.9519907
83,"['med', 3, 'low']",3,white,0.114927364,45,left,down,med,low,black_low_45-white_low_135-white_low_45-black_low_135,white_med_45_down,black_med_135_down,12,1.386011928,0.2470668,left,0.2159988,1,12,4,1,0,1,1,TRUE,FALSE,med_3_mask_low,0.75,-1,3,FALSE,1,,,,,,,,,,,,,,,,,,,165,2,3.2.2021,164.9519907
84,"['high', 3, 'low']",3,black,0.842822809,135,left,up,high,low,white_low_45-black_low_135-black_low_45-white_low_135,black_high_135_up,white_high_45_up,12,1.774106507,0.248537,left,0.0449255,1,12,4,0,0,1,1,TRUE,FALSE,high_3_mask_low,0.75,-1,3,TRUE,3,,,,,,,,,,,,,,,,,,,165,2,3.2.2021,164.9519907
85,"['med', 3, 'low']",3,black,0.858043026,135,left,up,med,low,white_low_45-white_low_135-black_low_135-black_low_45,black_med_135_up,white_med_45_up,11,1.10826386,0.2502989,right,0.3199239,0,11,5,1,0,1,1,TRUE,FALSE,med_3_mask_low,0.75,-1,3,TRUE,2,,,,,,,,,,,,,,,,,,,165,2,3.2.2021,164.9519907
86,"['high', 3, 'high']",3,black,0.823212683,135,left,up,high,high,black_high_45-black_high_135-white_high_135-white_high_135,black_high_135_up,white_high_45_up,13,1.103565381,0.2467691,right,0.1954179,0,13,3,0,0,1,1,TRUE,FALSE,high_3_mask_high,0.75,-1,3,FALSE,2,,,,,,,,,,,,,,,,,,,165,2,3.2.2021,164.9519907
87,"['low', 1, 'low']",1,black,0.027259842,45,right,up,low,low,black_low_45-black_low_135-white_low_135-white_low_45,black_low_45_up,white_low_135_up,5,1.232536242,0.2485496,left,0.2359379,0,5,3,1,0,1,1,TRUE,FALSE,low_1_mask_low,0.75,-1,3,TRUE,1,,,,,,,,,,,,,,,,,,,165,2,3.2.2021,164.9519907
88,"['med', 2, 'low']",2,white,0.467896452,45,left,down,med,low,black_low_45-white_low_135-white_low_45-black_low_135,white_med_45_down,black_med_135_down,6,1.776109216,0.2485302,left,0.1524149,1,6,2,1,0,1,1,TRUE,FALSE,med_2_mask_low,0.75,-1,3,FALSE,0,,,,,,,,,,,,,,,,,,,165,2,3.2.2021,164.9519907
89,"['low', 1, 'low']",1,white,0.97164794,135,right,down,low,low,white_low_135-white_low_45-black_low_135-black_low_45,white_low_135_down,black_low_45_down,8,1.747353722,0.2467772,left,0.1586586,0,8,4,0,0,1,1,TRUE,FALSE,low_1_mask_low,0.75,-1,3,FALSE,1,,,,,,,,,,,,,,,,,,,165,2,3.2.2021,164.9519907
90,"['med', 2, 'low']",2,black,0.750819731,45,right,down,med,low,black_low_135-white_low_45-black_low_45-white_low_135,black_med_45_down,white_med_135_down,5,1.57275543,0.2467774,left,0.060088,0,5,3,1,0,1,1,TRUE,FALSE,med_2_mask_low,0.75,-1,3,TRUE,1,,,,,,,,,,,,,,,,,,,165,2,3.2.2021,164.9519907
91,"['med', 3, 'low']",3,white,0.922578847,135,right,up,med,low,black_low_135-white_low_45-white_low_135-black_low_45,white_med_135_up,black_med_45_up,14,1.239336174,0.2502882,right,0.1289439,1,14,6,0,0,1,1,TRUE,FALSE,med_3_mask_low,0.75,-1,3,TRUE,3,,,,,,,,,,,,,,,,,,,165,2,3.2.2021,164.9519907
92,"['med', 3, 'low']",3,black,0.71149381,45,right,up,med,low,black_low_135-white_low_45-white_low_135-black_low_45,black_med_45_up,white_med_135_up,13,1.788016177,0.2485557,right,0.2986639,1,13,7,1,0,1,1,TRUE,FALSE,med_3_mask_low,0.75,-1,3,FALSE,3,,,,,,,,,,,,,,,,,,,165,2,3.2.2021,164.9519907
93,"['high', 1, 'low']",1,white,0.278541556,45,left,up,high,low,black_low_135-black_low_45-white_low_135-white_low_45,white_high_45_up,black_high_135_up,21,1.95955579,0.2485484,left,0.1935931,1,21,3,0,0,1,1,TRUE,FALSE,high_1_mask_low,0.75,-1,3,TRUE,1,,,,,,,,,,,,,,,,,,,165,2,3.2.2021,164.9519907
94,"['med', 1, 'low']",1,black,0.040547351,135,left,down,med,low,black_low_135-black_low_45-white_low_135-white_low_45,black_med_135_down,white_med_45_down,11,1.414764856,0.2485114,right,0.1709709,0,11,5,1,0,1,1,TRUE,FALSE,med_1_mask_low,0.75,-1,3,TRUE,3,,,,,,,,,,,,,,,,,,,165,2,3.2.2021,164.9519907
95,"['high', 1, 'low']",1,white,0.459640141,135,right,down,high,low,black_low_135-white_low_135-white_low_45-black_low_45,white_high_135_down,black_high_45_down,20,1.298196752,0.248546,right,0.2359098,1,20,4,1,0,1,1,TRUE,FALSE,high_1_mask_low,0.75,-1,3,FALSE,1,,,,,,,,,,,,,,,,,,,165,2,3.2.2021,164.9519907
96,"['med', 3, 'low']",3,black,0.776677624,135,left,down,med,low,black_low_135-black_low_45-white_low_45-white_low_135,black_med_135_down,white_med_45_down,12,1.609329759,0.2485378,left,0.1829037,1,12,8,1,0,1,1,TRUE,FALSE,med_3_mask_low,0.75,-1,3,FALSE,3,,,,,,,,,,,,,,,,,,,165,2,3.2.2021,164.9519907
97,"['low', 2, 'high']",2,white,0.086588355,45,left,down,low,high,white_high_135-white_high_135-black_high_45-black_high_135,white_low_45_down,black_low_135_down,9,1.401859917,0.2485366,left,0.2061779,1,9,2,0,0,1,1,TRUE,FALSE,low_2_mask_high,0.75,-1,3,TRUE,1,,,,,,,,,,,,,,,,,,,165,2,3.2.2021,164.9519907
98,"['high', 1, 'low']",1,black,0.415048804,45,right,up,high,low,white_low_135-black_low_45-black_low_135-white_low_45,black_high_45_up,white_high_135_up,19,1.865501852,0.2485506,left,0.082916,0,19,5,1,0,1,1,TRUE,FALSE,high_1_mask_low,0.75,-1,3,TRUE,2,,,,,,,,,,,,,,,,,,,165,2,3.2.2021,164.9519907
99,"['low', 1, 'low']",1,white,0.096550575,45,left,down,low,low,black_low_135-black_low_45-white_low_135-white_low_45,white_low_45_down,black_low_135_down,11,1.852037327,0.2450201,right,0.2751788,0,11,5,0,0,1,1,TRUE,FALSE,low_1_mask_low,0.75,-1,3,FALSE,1,,,,,,,,,,,,,,,,,,,165,2,3.2.2021,164.9519907
100,"['high', 2, 'high']",2,white,0.005409081,45,left,down,high,high,white_high_135-black_high_135-black_high_45-white_high_135,white_high_45_down,black_high_135_down,10,1.051781269,0.2485443,right,0.1029436,0,10,6,1,0,1,1,TRUE,FALSE,high_2_mask_high,0.75,-1,3,TRUE,4,,,,,,,,,,,,,,,,,,,165,2,3.2.2021,164.9519907
101,"['low', 2, 'low']",2,black,0.077933104,135,left,up,low,low,black_low_135-black_low_45-white_low_45-white_low_135,black_low_135_up,white_low_45_up,4,1.422608606,0.2503176,left,0.2651811,1,4,3,1,0,1,1,TRUE,FALSE,low_2_mask_low,0.75,-1,3,FALSE,2,,,,,,,,,,,,,,,,,,,165,2,3.2.2021,164.9519907
102,"['low', 3, 'high']",3,white,0.92551008,135,right,down,low,high,black_high_135-white_high_135-black_high_45-white_high_135,white_low_135_down,black_low_45_down,5,1.817035859,0.2485506,right,0.4089691,1,5,6,1,0,1,1,TRUE,FALSE,low_3_mask_high,0.75,-1,3,FALSE,2,,,,,,,,,,,,,,,,,,,165,2,3.2.2021,164.9519907
103,"['high', 1, 'high']",1,black,0.673563845,135,left,up,high,high,white_high_135-white_high_135-black_high_45-black_high_135,black_high_135_up,white_high_45_up,9,1.10229799,0.2467736,left,0.0200509,1,9,3,1,0,1,1,TRUE,FALSE,high_1_mask_high,0.75,-1,3,FALSE,0,,,,,,,,,,,,,,,,,,,165,2,3.2.2021,164.9519907
104,"['low', 2, 'low']",2,white,0.576451836,135,right,down,low,low,black_low_135-black_low_45-white_low_45-white_low_135,white_low_135_down,black_low_45_down,3,1.791117751,0.2467709,right,0.1123658,1,3,4,1,0,1,1,TRUE,FALSE,low_2_mask_low,0.75,-1,3,FALSE,2,,,,,,,,,,,,,,,,,,,165,2,3.2.2021,164.9519907
105,"['med', 1, 'high']",1,white,0.022511765,135,right,down,med,high,white_high_135-black_high_45-black_high_135-white_high_135,white_med_135_down,black_med_45_down,17,1.936547428,0.2485483,right,0.1848812,1,17,3,0,0,1,1,TRUE,FALSE,med_1_mask_high,0.75,-1,3,TRUE,3,,,,,,,,,,,,,,,,,,,165,2,3.2.2021,164.9519907
106,"['med', 2, 'high']",2,black,0.424590597,45,right,down,med,high,white_high_135-black_high_135-black_high_45-white_high_135,black_med_45_down,white_med_135_down,12,1.909544596,0.2485454,right,0.3882561,1,12,4,1,0,1,1,TRUE,FALSE,med_2_mask_high,0.75,-1,3,FALSE,2,,,,,,,,,,,,,,,,,,,165,2,3.2.2021,164.9519907
107,"['med', 2, 'high']",2,white,0.097852034,135,right,up,med,high,white_high_135-black_high_45-black_high_135-white_high_135,white_med_135_up,black_med_45_up,11,1.937511451,0.2485517,right,0.2515146,1,11,5,1,0,1,1,TRUE,FALSE,med_2_mask_high,0.75,-1,3,FALSE,2,,,,,,,,,,,,,,,,,,,165,2,3.2.2021,164.9519907
108,"['med', 2, 'low']",2,white,0.51661583,135,right,up,med,low,white_low_135-black_low_45-black_low_135-white_low_45,white_med_135_up,black_med_45_up,8,1.43011835,0.248559,right,0.769325,1,8,4,0,0,1,1,TRUE,FALSE,med_2_mask_low,0.75,-1,3,TRUE,2,,,,,,,,,,,,,,,,,,,165,2,3.2.2021,164.9519907
109,"['low', 1, 'high']",1,black,0.405729079,45,right,up,low,high,black_high_45-white_high_135-white_high_135-black_high_135,black_low_45_up,white_low_135_up,13,1.345881815,0.2449719,left,0.5533887,0,13,7,0,0,1,1,TRUE,FALSE,low_1_mask_high,0.75,-1,3,FALSE,2,,,,,,,,,,,,,,,,,,,165,2,3.2.2021,164.9519907
110,"['high', 3, 'high']",3,white,0.293809894,45,left,up,high,high,black_high_135-black_high_45-white_high_135-white_high_135,white_high_45_up,black_high_135_up,16,1.117544601,0.2485417,left,0.2018856,1,16,4,0,0,1,1,TRUE,FALSE,high_3_mask_high,0.75,-1,3,TRUE,3,,,,,,,,,,,,,,,,,,,165,2,3.2.2021,164.9519907
111,"['med', 2, 'high']",2,white,0.81515297,45,left,up,med,high,white_high_135-white_high_135-black_high_45-black_high_135,white_med_45_up,black_med_135_up,10,1.083468803,0.2485477,left,0.0907426,1,10,6,1,0,1,1,TRUE,FALSE,med_2_mask_high,0.75,-1,3,FALSE,2,,,,,,,,,,,,,,,,,,,165,2,3.2.2021,164.9519907
112,"['high', 2, 'high']",2,white,0.985161,45,left,up,high,high,white_high_135-black_high_45-black_high_135-white_high_135,white_high_45_up,black_high_135_up,13,1.07277324,0.2485502,left,0.2858371,1,13,7,0,0,1,1,TRUE,FALSE,high_2_mask_high,0.75,-1,3,TRUE,5,,,,,,,,,,,,,,,,,,,165,2,3.2.2021,164.9519907
113,"['low', 2, 'low']",2,white,0.319773445,45,left,up,low,low,black_low_45-white_low_45-black_low_135-white_low_135,white_low_45_up,black_low_135_up,2,1.216441149,0.248538,left,0.1481112,1,2,5,1,0,1,1,TRUE,FALSE,low_2_mask_low,0.75,-1,3,FALSE,2,,,,,,,,,,,,,,,,,,,165,2,3.2.2021,164.9519907
114,"['high', 3, 'low']",3,white,0.341572722,45,left,up,high,low,white_low_45-white_low_135-black_low_135-black_low_45,white_high_45_up,black_high_135_up,11,1.408650614,0.2485475,left,0.198602,1,11,5,1,0,1,1,TRUE,FALSE,high_3_mask_low,0.75,-1,3,FALSE,3,,,,,,,,,,,,,,,,,,,165,2,3.2.2021,164.9519907
115,"['med', 2, 'high']",2,white,0.527274306,45,left,up,med,high,white_high_135-black_high_45-black_high_135-white_high_135,white_med_45_up,black_med_135_up,9,1.704288968,0.2483752,left,0.0415272,1,9,7,1,0,1,1,TRUE,FALSE,med_2_mask_high,0.75,-1,3,FALSE,2,,,,,,,,,,,,,,,,,,,165,2,3.2.2021,164.9519907
116,"['high', 1, 'low']",1,black,0.386992095,45,right,up,high,low,black_low_135-black_low_45-white_low_135-white_low_45,black_high_45_up,white_high_135_up,22,1.766963377,0.2485431,right,0.231288,1,22,6,0,0,1,1,TRUE,FALSE,high_1_mask_low,0.75,-1,3,TRUE,3,,,,,,,,,,,,,,,,,,,165,2,3.2.2021,164.9519907
117,"['high', 3, 'high']",3,black,0.360341878,45,right,down,high,high,white_high_135-black_high_135-black_high_45-white_high_135,black_high_45_down,white_high_135_down,15,1.676009556,0.2485505,right,0.2220803,1,15,5,1,0,1,1,TRUE,FALSE,high_3_mask_high,0.75,-1,3,FALSE,3,,,,,,,,,,,,,,,,,,,165,2,3.2.2021,164.9519907
118,"['high', 3, 'low']",3,white,0.055679715,135,right,up,high,low,black_low_135-white_low_45-black_low_45-white_low_135,white_high_135_up,black_high_45_up,10,1.292912271,0.2485413,right,0.2420692,1,10,6,1,0,1,1,TRUE,FALSE,high_3_mask_low,0.75,-1,3,FALSE,3,,,,,,,,,,,,,,,,,,,165,2,3.2.2021,164.9519907
119,"['low', 2, 'high']",2,black,0.21577193,45,right,up,low,high,white_high_135-black_high_135-black_high_45-white_high_135,black_low_45_up,white_low_135_up,8,1.401942989,0.2485504,right,1.3886619,1,8,3,1,0,1,1,TRUE,FALSE,low_2_mask_high,0.75,-1,3,FALSE,1,,,,,,,,,,,,,,,,,,,165,2,3.2.2021,164.9519907
120,"['med', 3, 'low']",3,black,0.955761347,45,right,up,med,low,white_low_45-black_low_135-black_low_45-white_low_135,black_med_45_up,white_med_135_up,11,1.337850319,0.248534,right,0.2356813,1,11,9,1,0,1,1,TRUE,FALSE,med_3_mask_low,0.75,-1,3,FALSE,3,,,,,,,,,,,,,,,,,,,165,2,3.2.2021,164.9519907
121,"['high', 1, 'low']",1,black,0.42899483,45,right,down,high,low,black_low_45-white_low_135-white_low_45-black_low_135,black_high_45_down,white_high_135_down,21,1.906749367,0.2485488,left,0.0598614,0,21,7,1,0,1,1,TRUE,FALSE,high_1_mask_low,0.75,-1,3,TRUE,4,,,,,,,,,,,,,,,,,,,165,2,3.2.2021,164.9519907
122,"['med', 1, 'high']",1,black,0.077581563,45,right,down,med,high,black_high_135-white_high_135-black_high_45-white_high_135,black_med_45_down,white_med_135_down,16,1.209698946,0.2450254,right,0.2530098,1,16,4,1,0,1,1,TRUE,FALSE,med_1_mask_high,0.75,-1,3,FALSE,3,,,,,,,,,,,,,,,,,,,165,2,3.2.2021,164.9519907
123,"['med', 2, 'high']",2,black,0.894544398,45,right,up,med,high,black_high_135-white_high_135-white_high_135-black_high_45,black_med_45_up,white_med_135_up,8,1.491894373,0.2485449,left,0.2944636,0,8,8,1,0,1,1,TRUE,FALSE,med_2_mask_high,0.75,-1,3,TRUE,3,,,,,,,,,,,,,,,,,,,165,2,3.2.2021,164.9519907
124,"['med', 3, 'low']",3,black,0.3656532,45,right,down,med,low,white_low_45-black_low_45-black_low_135-white_low_135,black_med_45_down,white_med_135_down,10,1.163307342,0.2485408,right,0.2159407,1,10,10,1,0,1,1,TRUE,FALSE,med_3_mask_low,0.75,-1,3,FALSE,3,,,,,,,,,,,,,,,,,,,165,2,3.2.2021,164.9519907
125,"['low', 2, 'low']",2,white,0.308236581,45,left,up,low,low,black_low_135-white_low_135-white_low_45-black_low_45,white_low_45_up,black_low_135_up,1,1.079319165,0.2503029,left,1.2366522,1,1,6,1,0,1,1,TRUE,FALSE,low_2_mask_low,0.75,-1,3,FALSE,2,,,,,,,,,,,,,,,,,,,165,2,3.2.2021,164.9519907
126,"['high', 1, 'high']",1,black,0.295686759,45,right,down,high,high,white_high_135-black_high_135-white_high_135-black_high_45,black_high_45_down,white_high_135_down,8,1.421813455,0.2485442,left,0.21064,0,8,4,1,0,1,1,TRUE,FALSE,high_1_mask_high,0.75,-1,3,TRUE,1,,,,,,,,,,,,,,,,,,,165,2,3.2.2021,164.9519907
127,"['med', 1, 'low']",1,black,0.895032545,45,right,up,med,low,white_low_135-black_low_135-white_low_45-black_low_45,black_med_45_up,white_med_135_up,14,1.075559683,0.2485376,right,0.053831,1,14,6,0,0,1,1,TRUE,FALSE,med_1_mask_low,0.75,-1,3,TRUE,4,,,,,,,,,,,,,,,,,,,165,2,3.2.2021,164.9519907
128,"['low', 1, 'low']",1,black,0.634987391,135,left,down,low,low,white_low_45-black_low_45-white_low_135-black_low_135,black_low_135_down,white_low_45_down,14,1.561190178,0.2485423,right,0.0823696,0,14,6,0,0,1,1,TRUE,FALSE,low_1_mask_low,0.75,-1,3,FALSE,1,,,,,,,,,,,,,,,,,,,165,2,3.2.2021,164.9519907
129,"['med', 1, 'high']",1,black,0.743063355,45,right,up,med,high,black_high_45-black_high_135-white_high_135-white_high_135,black_med_45_up,white_med_135_up,15,1.158290565,0.2485574,left,0.28863,0,15,5,1,0,1,1,TRUE,FALSE,med_1_mask_high,0.75,-1,3,TRUE,4,,,,,,,,,,,,,,,,,,,165,2,3.2.2021,164.9519907
130,"['med', 3, 'high']",3,white,0.524430417,45,left,down,med,high,black_high_45-black_high_135-white_high_135-white_high_135,white_med_45_down,black_med_135_down,8,1.854306344,0.2485451,right,0.2395947,0,8,8,1,0,1,1,TRUE,FALSE,med_3_mask_high,0.75,-1,3,TRUE,4,,,,,,,,,,,,,,,,,,,165,2,3.2.2021,164.9519907
131,"['high', 2, 'high']",2,black,0.634610925,45,right,up,high,high,white_high_135-black_high_45-black_high_135-white_high_135,black_high_45_up,white_high_135_up,12,1.418496257,0.2485433,left,0.2274739,0,12,8,1,1,1,1,TRUE,FALSE,high_2_mask_high,0.75,-1,3,TRUE,6,,,,,,,,,,,,,,,,,,,165,2,3.2.2021,164.9519907
132,"['low', 1, 'low']",1,black,0.927013331,45,right,up,low,low,white_low_45-white_low_135-black_low_45-black_low_135,black_low_45_up,white_low_135_up,17,1.478679468,0.2485491,left,0.1215315,0,17,7,0,0,1,1,TRUE,FALSE,low_1_mask_low,0.75,-1,3,FALSE,1,,,,,,,,,,,,,,,,,,,165,2,3.2.2021,164.9519907
133,"['low', 1, 'low']",1,black,0.784249537,135,left,up,low,low,white_low_45-black_low_45-black_low_135-white_low_135,black_low_135_up,white_low_45_up,20,1.784570672,0.2485437,left,0.3136241,1,20,8,0,0,1,1,TRUE,FALSE,low_1_mask_low,0.75,-1,3,TRUE,2,,,,,,,,,,,,,,,,,,,165,2,3.2.2021,164.9519907
134,"['high', 1, 'high']",1,black,0.729127123,135,left,up,high,high,black_high_45-white_high_135-white_high_135-black_high_135,black_high_135_up,white_high_45_up,11,1.216242173,0.2485448,right,0.1293969,0,11,5,0,0,1,1,TRUE,FALSE,high_1_mask_high,0.75,-1,3,FALSE,1,,,,,,,,,,,,,,,,,,,165,2,3.2.2021,164.9519907
135,"['high', 3, 'high']",3,white,0.148694529,135,right,down,high,high,white_high_135-white_high_135-black_high_45-black_high_135,white_high_135_down,black_high_45_down,14,1.278028887,0.2485803,right,0.2845171,1,14,6,1,0,1,1,TRUE,FALSE,high_3_mask_high,0.75,-1,3,FALSE,3,,,,,,,,,,,,,,,,,,,165,2,3.2.2021,164.9519907
136,"['low', 1, 'high']",1,white,0.073288545,135,right,up,low,high,black_high_135-black_high_45-white_high_135-white_high_135,white_low_135_up,black_low_45_up,16,1.745491762,0.2485295,right,0.2688775,1,16,8,0,0,1,1,TRUE,FALSE,low_1_mask_high,0.75,-1,3,TRUE,3,,,,,,,,,,,,,,,,,,,165,2,3.2.2021,164.9519907
137,"['low', 3, 'low']",3,black,0.260847284,45,right,down,low,low,white_low_45-black_low_135-black_low_45-white_low_135,black_low_45_down,white_low_135_down,6,1.930004664,0.2485403,right,0.2635815,1,6,9,1,0,1,1,TRUE,FALSE,low_3_mask_low,0.75,-1,3,FALSE,4,,,,,,,,,,,,,,,,,,,165,2,3.2.2021,164.9519907
138,"['low', 3, 'high']",3,black,0.911693299,45,right,up,low,high,black_high_45-black_high_135-white_high_135-white_high_135,black_low_45_up,white_low_135_up,4,1.702298375,0.2485401,right,0.5644466,1,4,7,1,0,1,1,TRUE,FALSE,low_3_mask_high,0.75,-1,3,FALSE,2,,,,,,,,,,,,,,,,,,,165,2,3.2.2021,164.9519907
139,"['med', 3, 'high']",3,black,0.460231175,135,left,up,med,high,black_high_45-black_high_135-white_high_135-white_high_135,black_med_135_up,white_med_45_up,11,1.027085052,0.2485473,right,0.3932006,0,11,9,0,0,1,1,TRUE,FALSE,med_3_mask_high,0.75,-1,3,FALSE,4,,,,,,,,,,,,,,,,,,,165,2,3.2.2021,164.9519907
140,"['high', 2, 'high']",2,white,0.030861679,45,left,up,high,high,white_high_135-black_high_135-white_high_135-black_high_45,white_high_45_up,black_high_135_up,15,1.602820054,0.2485234,left,0.1111921,1,15,9,0,1,1,1,TRUE,FALSE,high_2_mask_high,0.75,-1,3,TRUE,7,,,,,,,,,,,,,,,,,,,165,2,3.2.2021,164.9519907
141,"['med', 2, 'low']",2,white,0.455485422,135,right,down,med,low,white_low_45-black_low_45-black_low_135-white_low_135,white_med_135_down,black_med_45_down,7,1.422950644,0.2470786,right,0.2726071,1,7,5,1,0,1,1,TRUE,FALSE,med_2_mask_low,0.75,-1,3,FALSE,2,,,,,,,,,,,,,,,,,,,165,2,3.2.2021,164.9519907
142,"['high', 2, 'low']",2,black,0.042983753,45,right,up,high,low,black_low_135-black_low_45-white_low_135-white_low_45,black_high_45_up,white_high_135_up,16,1.188383414,0.2485341,left,0.3290734,0,16,8,1,0,1,1,TRUE,FALSE,high_2_mask_low,0.75,-1,3,TRUE,5,,,,,,,,,,,,,,,,,,,165,2,3.2.2021,164.9519907
143,"['low', 3, 'high']",3,black,0.832086534,135,left,up,low,high,black_high_45-white_high_135-black_high_135-white_high_135,black_low_135_up,white_low_45_up,3,1.716782031,0.2485468,left,0.1657692,1,3,8,1,0,1,1,TRUE,FALSE,low_3_mask_high,0.75,-1,3,FALSE,2,,,,,,,,,,,,,,,,,,,165,2,3.2.2021,164.9519907
144,"['high', 2, 'high']",2,white,0.822890782,135,right,up,high,high,white_high_135-black_high_45-black_high_135-white_high_135,white_high_135_up,black_high_45_up,14,1.145330867,0.2485393,right,0.0604872,1,14,10,1,1,1,1,TRUE,FALSE,high_2_mask_high,0.75,-1,3,FALSE,7,,,,,,,,,,,,,,,,,,,165,2,3.2.2021,164.9519907
145,"['med', 3, 'low']",3,black,0.843429825,45,right,up,med,low,white_low_45-black_low_135-white_low_135-black_low_45,black_med_45_up,white_med_135_up,9,1.091846057,0.2485447,right,0.3917134,1,9,11,1,0,1,1,TRUE,FALSE,med_3_mask_low,0.75,-1,3,FALSE,3,,,,,,,,,,,,,,,,,,,165,2,3.2.2021,164.9519907
146,"['med', 3, 'low']",3,white,0.0571169,135,right,up,med,low,black_low_135-white_low_135-white_low_45-black_low_45,white_med_135_up,black_med_45_up,8,1.661542217,0.2485461,right,0.5801166,1,8,12,1,0,1,1,TRUE,FALSE,med_3_mask_low,0.75,-1,3,FALSE,3,,,,,,,,,,,,,,,,,,,165,2,3.2.2021,164.9519907
147,"['low', 3, 'low']",3,black,0.595845978,45,right,down,low,low,white_low_135-black_low_135-white_low_45-black_low_45,black_low_45_down,white_low_135_down,5,1.261477508,0.2485505,right,0.3136376,1,5,10,1,0,1,1,TRUE,FALSE,low_3_mask_low,0.75,-1,3,FALSE,4,,,,,,,,,,,,,,,,,,,165,2,3.2.2021,164.9519907
148,"['high', 3, 'high']",3,white,0.557585889,45,left,up,high,high,white_high_135-black_high_135-black_high_45-white_high_135,white_high_45_up,black_high_135_up,13,1.810558949,0.2485417,left,0.0889104,1,13,7,1,0,1,1,TRUE,FALSE,high_3_mask_high,0.75,-1,3,FALSE,3,,,,,,,,,,,,,,,,,,,165,2,3.2.2021,164.9519907
149,"['med', 2, 'high']",2,black,0.72292572,45,right,down,med,high,black_high_45-white_high_135-black_high_135-white_high_135,black_med_45_down,white_med_135_down,11,1.481891461,0.2485415,right,0.1685891,1,11,9,0,0,1,1,TRUE,FALSE,med_2_mask_high,0.75,-1,3,TRUE,4,,,,,,,,,,,,,,,,,,,165,2,3.2.2021,164.9519907
150,"['med', 3, 'low']",3,black,0.631963488,135,left,down,med,low,white_low_135-white_low_45-black_low_45-black_low_135,black_med_135_down,white_med_45_down,7,1.948145081,0.2485578,right,0.1142781,0,7,13,1,0,1,1,TRUE,FALSE,med_3_mask_low,0.75,-1,3,TRUE,4,,,,,,,,,,,,,,,,,,,165,2,3.2.2021,164.9519907
151,"['med', 3, 'low']",3,white,0.323826645,135,right,up,med,low,black_low_135-white_low_135-black_low_45-white_low_45,white_med_135_up,black_med_45_up,10,1.216056198,0.2485431,right,0.3149575,1,10,14,0,0,1,1,TRUE,FALSE,med_3_mask_low,0.75,-1,3,TRUE,5,,,,,,,,,,,,,,,,,,,165,2,3.2.2021,164.9519907
152,"['low', 1, 'low']",1,black,0.865016321,45,right,down,low,low,black_low_45-white_low_45-white_low_135-black_low_135,black_low_45_down,white_low_135_down,19,1.241043573,0.2485537,left,0.2707424,0,19,9,1,0,1,1,TRUE,FALSE,low_1_mask_low,0.75,-1,3,TRUE,3,,,,,,,,,,,,,,,,,,,165,2,3.2.2021,164.9519907
153,"['low', 2, 'high']",2,black,0.692289034,135,left,down,low,high,black_high_135-black_high_45-white_high_135-white_high_135,black_low_135_down,white_low_45_down,7,1.113712551,0.248541,left,0.3956361,1,7,4,1,0,1,1,TRUE,FALSE,low_2_mask_high,0.75,-1,3,FALSE,1,,,,,,,,,,,,,,,,,,,165,2,3.2.2021,164.9519907
154,"['low', 3, 'high']",3,black,0.554181503,45,right,up,low,high,white_high_135-black_high_135-white_high_135-black_high_45,black_low_45_up,white_low_135_up,2,1.28392888,0.248545,left,0.341261,0,2,9,1,0,1,1,TRUE,FALSE,low_3_mask_high,0.75,-1,3,TRUE,3,,,,,,,,,,,,,,,,,,,165,2,3.2.2021,164.9519907
155,"['low', 3, 'low']",3,white,0.666352315,135,right,up,low,low,white_low_45-white_low_135-black_low_135-black_low_45,white_low_135_up,black_low_45_up,4,1.079418617,0.2485336,right,0.1162017,1,4,11,1,0,1,1,TRUE,FALSE,low_3_mask_low,0.75,-1,3,FALSE,4,,,,,,,,,,,,,,,,,,,165,2,3.2.2021,164.9519907
156,"['low', 3, 'low']",3,black,0.785440979,135,left,up,low,low,white_low_135-white_low_45-black_low_135-black_low_45,black_low_135_up,white_low_45_up,3,1.644838833,0.2503215,right,0.166218,0,3,12,1,0,1,1,TRUE,FALSE,low_3_mask_low,0.75,-1,3,TRUE,5,,,,,,,,,,,,,,,,,,,165,2,3.2.2021,164.9519907
157,"['med', 3, 'high']",3,black,0.404695235,135,left,down,med,high,black_high_45-white_high_135-black_high_135-white_high_135,black_med_135_down,white_med_45_down,14,1.271161536,0.2485448,left,0.0682272,1,14,10,0,0,1,1,TRUE,FALSE,med_3_mask_high,0.75,-1,3,TRUE,5,,,,,,,,,,,,,,,,,,,165,2,3.2.2021,164.9519907
158,"['med', 3, 'high']",3,white,0.122665699,45,left,up,med,high,white_high_135-white_high_135-black_high_135-black_high_45,white_med_45_up,black_med_135_up,13,1.090321677,0.2485558,left,0.0167755,1,13,11,1,1,1,1,TRUE,FALSE,med_3_mask_high,0.75,-1,3,FALSE,5,,,,,,,,,,,,,,,,,,,165,2,3.2.2021,164.9519907
159,"['high', 2, 'low']",2,black,0.979833116,135,left,up,high,low,black_low_45-white_low_135-black_low_135-white_low_45,black_high_135_up,white_high_45_up,19,1.186769778,0.2506119,left,0.0738951,1,19,9,0,1,1,1,TRUE,FALSE,high_2_mask_low,0.75,-1,3,TRUE,6,,,,,,,,,,,,,,,,,,,165,2,3.2.2021,164.9519907
160,"['med', 1, 'low']",1,black,0.30453565,45,right,down,med,low,white_low_135-black_low_45-black_low_135-white_low_45,black_med_45_down,white_med_135_down,13,1.611480506,0.2485486,left,0.0881372,0,13,7,1,0,1,1,TRUE,FALSE,med_1_mask_low,0.75,-1,3,TRUE,5,,,,,,,,,,,,,,,,,,,165,2,3.2.2021,164.9519907
161,"['low', 1, 'low']",1,white,0.789717129,135,right,up,low,low,white_low_135-white_low_45-black_low_45-black_low_135,white_low_135_up,black_low_45_up,22,1.045792358,0.2486002,right,0.0304672,1,22,10,0,0,1,1,TRUE,FALSE,low_1_mask_low,0.75,-1,3,TRUE,4,,,,,,,,,,,,,,,,,,,165,2,3.2.2021,164.9519907
162,"['high', 2, 'low']",2,white,0.36299223,45,left,down,high,low,black_low_135-black_low_45-white_low_45-white_low_135,white_high_45_down,black_high_135_down,18,1.730284082,0.2485517,left,0.0982781,1,18,10,1,1,1,1,TRUE,FALSE,high_2_mask_low,0.75,-1,3,FALSE,6,,,,,,,,,,,,,,,,,,,165,2,3.2.2021,164.9519907
163,"['high', 2, 'high']",2,black,0.327104322,45,right,up,high,high,black_high_45-white_high_135-black_high_135-white_high_135,black_high_45_up,white_high_135_up,13,1.985208692,0.2485452,right,0.2167953,1,13,11,1,1,1,1,TRUE,FALSE,high_2_mask_high,0.75,-1,3,FALSE,7,,,,,,,,,,,,,,,,,,,165,2,3.2.2021,164.9519907
164,"['high', 2, 'low']",2,white,0.954627835,135,right,up,high,low,white_low_45-black_low_135-white_low_135-black_low_45,white_high_135_up,black_high_45_up,17,1.638134645,0.2485412,right,0.1467157,1,17,11,1,1,1,1,TRUE,FALSE,high_2_mask_low,0.75,-1,3,FALSE,6,,,,,,,,,,,,,,,,,,,165,2,3.2.2021,164.9519907
165,"['low', 1, 'high']",1,black,0.324275474,45,right,down,low,high,white_high_135-white_high_135-black_high_135-black_high_45,black_low_45_down,white_low_135_down,15,1.258989653,0.2485455,left,0.1252885,0,15,9,1,0,1,1,TRUE,FALSE,low_1_mask_high,0.75,-1,3,TRUE,4,,,,,,,,,,,,,,,,,,,165,2,3.2.2021,164.9519907
166,"['high', 1, 'low']",1,black,0.899427801,45,right,down,high,low,white_low_45-white_low_135-black_low_45-black_low_135,black_high_45_down,white_high_135_down,24,1.798241441,0.2467545,right,0.2330789,1,24,8,0,0,1,1,TRUE,FALSE,high_1_mask_low,0.75,-1,3,TRUE,5,,,,,,,,,,,,,,,,,,,165,2,3.2.2021,164.9519907
167,"['med', 1, 'high']",1,black,0.377949424,135,left,down,med,high,white_high_135-black_high_135-white_high_135-black_high_45,black_med_135_down,white_med_45_down,18,1.484899808,0.2485487,left,0.2710684,1,18,6,0,0,1,1,TRUE,FALSE,med_1_mask_high,0.75,-1,3,TRUE,5,,,,,,,,,,,,,,,,,,,165,2,3.2.2021,164.9519907
168,"['low', 1, 'high']",1,white,0.7673325,135,right,up,low,high,white_high_135-black_high_135-black_high_45-white_high_135,white_low_135_up,black_low_45_up,18,1.425895555,0.248539,right,0.4252244,1,18,10,0,0,1,1,TRUE,FALSE,low_1_mask_high,0.75,-1,3,TRUE,5,,,,,,,,,,,,,,,,,,,165,2,3.2.2021,164.9519907
169,"['med', 3, 'low']",3,white,0.643133361,45,left,up,med,low,black_low_135-white_low_135-black_low_45-white_low_45,white_med_45_up,black_med_135_up,9,1.690966392,0.2485435,right,0.4674872,0,9,15,1,1,1,1,TRUE,FALSE,med_3_mask_low,0.75,-1,3,TRUE,6,,,,,,,,,,,,,,,,,,,165,2,3.2.2021,164.9519907
170,"['high', 2, 'high']",2,white,0.487205323,135,right,up,high,high,white_high_135-white_high_135-black_high_45-black_high_135,white_high_135_up,black_high_45_up,12,1.727601996,0.2485419,right,0.1304947,1,12,12,1,1,1,1,TRUE,FALSE,high_2_mask_high,0.75,-1,3,FALSE,7,,,,,,,,,,,,,,,,,,,165,2,3.2.2021,164.9519907
171,"['high', 1, 'high']",1,white,0.661501108,135,right,down,high,high,black_high_135-white_high_135-white_high_135-black_high_45,white_high_135_down,black_high_45_down,14,1.256583572,0.2485582,right,0.0679231,1,14,6,0,0,1,1,TRUE,FALSE,high_1_mask_high,0.75,-1,3,TRUE,2,,,,,,,,,,,,,,,,,,,165,2,3.2.2021,164.9519907
172,"['high', 1, 'low']",1,white,0.122445683,135,right,up,high,low,white_low_45-black_low_135-white_low_135-black_low_45,white_high_135_up,black_high_45_up,23,1.318030933,0.2488393,right,0.1197135,1,23,9,1,1,1,1,TRUE,FALSE,high_1_mask_low,0.75,-1,3,FALSE,5,,,,,,,,,,,,,,,,,,,165,2,3.2.2021,164.9519907
173,"['low', 3, 'high']",3,white,0.311444596,45,left,down,low,high,white_high_135-black_high_135-white_high_135-black_high_45,white_low_45_down,black_low_135_down,5,1.652819074,0.2450182,left,0.3115878,1,5,10,0,0,1,1,TRUE,FALSE,low_3_mask_high,0.75,-1,3,TRUE,4,,,,,,,,,,,,,,,,,,,165,2,3.2.2021,164.9519907
174,"['med', 3, 'high']",3,white,0.788005612,135,right,down,med,high,white_high_135-black_high_45-black_high_135-white_high_135,white_med_135_down,black_med_45_down,12,1.38212374,0.2485367,right,0.1286047,1,12,12,1,1,1,1,TRUE,FALSE,med_3_mask_high,0.75,-1,3,FALSE,5,,,,,,,,,,,,,,,,,,,165,2,3.2.2021,164.9519907
175,"['low', 2, 'high']",2,white,0.936897463,135,right,up,low,high,black_high_45-white_high_135-white_high_135-black_high_135,white_low_135_up,black_low_45_up,6,1.976398335,0.248544,right,0.1042652,1,6,5,1,0,1,1,TRUE,FALSE,low_2_mask_high,0.75,-1,3,FALSE,1,,,,,,,,,,,,,,,,,,,165,2,3.2.2021,164.9519907
176,"['med', 3, 'low']",3,white,0.803423521,45,left,up,med,low,black_low_45-white_low_45-white_low_135-black_low_135,white_med_45_up,black_med_135_up,12,1.641542798,0.2485506,left,0.0755626,1,12,16,0,1,1,1,TRUE,FALSE,med_3_mask_low,0.75,-1,3,TRUE,7,,,,,,,,,,,,,,,,,,,165,2,3.2.2021,164.9519907
177,"['med', 1, 'high']",1,black,0.245353541,45,right,up,med,high,black_high_45-white_high_135-black_high_135-white_high_135,black_med_45_up,white_med_135_up,17,1.987530783,0.2485442,right,0.0483344,1,17,7,1,1,1,1,TRUE,FALSE,med_1_mask_high,0.75,-1,3,FALSE,5,,,,,,,,,,,,,,,,,,,165,2,3.2.2021,164.9519907
178,"['low', 1, 'low']",1,white,0.728652475,45,left,down,low,low,black_low_135-white_low_45-black_low_45-white_low_135,white_low_45_down,black_low_135_down,21,1.704332612,0.2503108,left,0.0312837,1,21,11,1,0,1,1,TRUE,FALSE,low_1_mask_low,0.75,-1,3,FALSE,4,,,,,,,,,,,,,,,,,,,165,2,3.2.2021,164.9519907
179,"['med', 2, 'low']",2,black,0.150748689,135,left,up,med,low,black_low_135-black_low_45-white_low_135-white_low_45,black_med_135_up,white_med_45_up,6,1.023451656,0.2485475,left,0.1832497,1,6,6,1,0,1,1,TRUE,FALSE,med_2_mask_low,0.75,-1,3,FALSE,2,,,,,,,,,,,,,,,,,,,165,2,3.2.2021,164.9519907
180,"['high', 3, 'low']",3,white,0.115557942,45,left,down,high,low,white_low_135-black_low_135-white_low_45-black_low_45,white_high_45_down,black_high_135_down,9,1.530091989,0.2467612,right,0.067468,0,9,7,1,0,1,1,TRUE,FALSE,high_3_mask_low,0.75,-1,3,TRUE,4,,,,,,,,,,,,,,,,,,,165,2,3.2.2021,164.9519907
181,"['low', 3, 'high']",3,black,0.468905841,135,left,down,low,high,black_high_45-black_high_135-white_high_135-white_high_135,black_low_135_down,white_low_45_down,4,1.833741501,0.2488444,left,0.1255141,1,4,11,1,0,1,1,TRUE,FALSE,low_3_mask_high,0.75,-1,3,FALSE,4,,,,,,,,,,,,,,,,,,,165,2,3.2.2021,164.9519907
182,"['med', 2, 'low']",2,black,0.008596426,45,right,up,med,low,black_low_45-black_low_135-white_low_45-white_low_135,black_med_45_up,white_med_135_up,5,1.319944112,0.2485533,left,0.2382344,0,5,7,1,0,1,1,TRUE,FALSE,med_2_mask_low,0.75,-1,3,TRUE,3,,,,,,,,,,,,,,,,,,,165,2,3.2.2021,164.9519907
183,"['high', 2, 'high']",2,black,0.767911157,135,left,up,high,high,white_high_135-white_high_135-black_high_45-black_high_135,black_high_135_up,white_high_45_up,11,1.162693903,0.248544,right,0.3185769,0,11,13,1,1,1,1,TRUE,FALSE,high_2_mask_high,0.75,-1,3,TRUE,8,,,,,,,,,,,,,,,,,,,165,2,3.2.2021,164.9519907
184,"['high', 1, 'low']",1,white,0.751678746,45,left,down,high,low,black_low_135-white_low_135-black_low_45-white_low_45,white_high_45_down,black_high_135_down,22,1.851611086,0.2485486,left,0.2145155,1,22,10,1,1,1,1,TRUE,FALSE,high_1_mask_low,0.75,-1,3,FALSE,5,,,,,,,,,,,,,,,,,,,165,2,3.2.2021,164.9519907
185,"['low', 3, 'high']",3,black,0.52723716,45,right,up,low,high,black_high_45-white_high_135-white_high_135-black_high_135,black_low_45_up,white_low_135_up,3,1.427474086,0.2467307,right,0.9846076,1,3,12,1,0,1,1,TRUE,FALSE,low_3_mask_high,0.75,-1,3,FALSE,4,,,,,,,,,,,,,,,,,,,165,2,3.2.2021,164.9519907
186,"['med', 2, 'low']",2,black,0.886746359,45,right,up,med,low,black_low_135-white_low_45-black_low_45-white_low_135,black_med_45_up,white_med_135_up,8,1.892639215,0.2485449,right,0.2379827,1,8,8,0,0,1,1,TRUE,FALSE,med_2_mask_low,0.75,-1,3,TRUE,4,,,,,,,,,,,,,,,,,,,165,2,3.2.2021,164.9519907
187,"['low', 2, 'high']",2,white,0.160069808,45,left,down,low,high,white_high_135-black_high_135-black_high_45-white_high_135,white_low_45_down,black_low_135_down,5,1.295313961,0.2485447,left,0.213696,1,5,6,1,0,1,1,TRUE,FALSE,low_2_mask_high,0.75,-1,3,FALSE,1,,,,,,,,,,,,,,,,,,,165,2,3.2.2021,164.9519907
188,"['med', 3, 'high']",3,black,0.598772403,45,right,up,med,high,white_high_135-black_high_45-white_high_135-black_high_135,black_med_45_up,white_med_135_up,11,1.921472246,0.2488425,right,0.1675251,1,11,13,1,1,1,1,TRUE,FALSE,med_3_mask_high,0.75,-1,3,FALSE,5,,,,,,,,,,,,,,,,,,,165,2,3.2.2021,164.9519907
189,"['low', 3, 'high']",3,white,0.285173352,45,left,up,low,high,white_high_135-black_high_135-black_high_45-white_high_135,white_low_45_up,black_low_135_up,2,1.263352691,0.2467532,left,0.5033761,1,2,13,1,0,1,1,TRUE,FALSE,low_3_mask_high,0.75,-1,3,FALSE,4,,,,,,,,,,,,,,,,,,,165,2,3.2.2021,164.9519907
190,"['low', 1, 'high']",1,white,0.042367681,135,right,up,low,high,black_high_45-white_high_135-black_high_135-white_high_135,white_low_135_up,black_low_45_up,17,1.872053751,0.2488282,right,0.4594852,1,17,11,1,1,1,1,TRUE,FALSE,low_1_mask_high,0.75,-1,3,FALSE,5,,,,,,,,,,,,,,,,,,,165,2,3.2.2021,164.9519907
191,"['high', 3, 'low']",3,white,0.492042395,135,right,down,high,low,white_low_45-white_low_135-black_low_135-black_low_45,white_high_135_down,black_high_45_down,12,1.468514646,0.2485536,right,0.7020955,1,12,8,0,0,1,1,TRUE,FALSE,high_3_mask_low,0.75,-1,3,TRUE,5,,,,,,,,,,,,,,,,,,,165,2,3.2.2021,164.9519907
192,"['low', 1, 'low']",1,white,0.432982999,45,left,down,low,low,white_low_45-black_low_135-black_low_45-white_low_135,white_low_45_down,black_low_135_down,20,1.819767446,0.2485404,left,0.4032373,1,20,12,1,0,1,1,TRUE,FALSE,low_1_mask_low,0.75,-1,3,FALSE,4,,,,,,,,,,,,,,,,,,,165,2,3.2.2021,164.9519907
193,"['med', 1, 'low']",1,black,0.650354036,45,right,down,med,low,white_low_135-black_low_135-black_low_45-white_low_45,black_med_45_down,white_med_135_down,16,1.337763989,0.2469718,right,0.3716633,1,16,8,0,1,1,1,TRUE,FALSE,med_1_mask_low,0.75,-1,3,TRUE,6,,,,,,,,,,,,,,,,,,,165,2,3.2.2021,164.9519907
194,"['high', 1, 'high']",1,white,0.726905864,45,left,down,high,high,black_high_45-black_high_135-white_high_135-white_high_135,white_high_45_down,black_high_135_down,13,1.724373114,0.2467497,left,0.7301667,1,13,7,1,0,1,1,TRUE,FALSE,high_1_mask_high,0.75,-1,3,FALSE,2,,,,,,,,,,,,,,,,,,,165,2,3.2.2021,164.9519907
195,"['low', 3, 'low']",3,white,0.741186324,135,right,down,low,low,black_low_135-white_low_45-white_low_135-black_low_45,white_low_135_down,black_low_45_down,6,1.530451829,0.2485475,right,0.5299906,1,6,13,0,1,1,1,TRUE,FALSE,low_3_mask_low,0.75,-1,3,TRUE,6,,,,,,,,,,,,,,,,,,,165,2,3.2.2021,164.9519907
196,"['high', 2, 'low']",2,black,0.951035864,45,right,up,high,low,white_low_45-black_low_45-black_low_135-white_low_135,black_high_45_up,white_high_135_up,16,1.464578048,0.2485525,left,0.1431892,0,16,12,1,1,1,1,TRUE,FALSE,high_2_mask_low,0.75,-1,3,TRUE,7,,,,,,,,,,,,,,,,,,,165,2,3.2.2021,164.9519907
197,"['high', 3, 'high']",3,white,0.372725273,135,right,down,high,high,black_high_45-white_high_135-white_high_135-black_high_135,white_high_135_down,black_high_45_down,12,1.65645295,0.2485441,right,0.202488,1,12,8,1,0,1,1,TRUE,FALSE,high_3_mask_high,0.75,-1,3,FALSE,3,,,,,,,,,,,,,,,,,,,165,2,3.2.2021,164.9519907
198,"['low', 2, 'low']",2,white,0.797994493,135,right,up,low,low,black_low_45-black_low_135-white_low_45-white_low_135,white_low_135_up,black_low_45_up,1,1.949880347,0.2488451,right,0.8785921,1,1,7,1,0,1,1,TRUE,FALSE,low_2_mask_low,0.75,-1,3,FALSE,2,,,,,,,,,,,,,,,,,,,165,2,3.2.2021,164.9519907
199,"['low', 1, 'low']",1,white,0.011904031,45,left,up,low,low,black_low_45-white_low_135-white_low_45-black_low_135,white_low_45_up,black_low_135_up,19,1.051907722,0.2448993,right,0.2652566,0,19,13,1,0,1,1,TRUE,FALSE,low_1_mask_low,0.75,-1,3,TRUE,5,,,,,,,,,,,,,,,,,,,165,2,3.2.2021,164.9519907
200,"['high', 2, 'high']",2,black,0.629104373,135,left,down,high,high,black_high_45-white_high_135-black_high_135-white_high_135,black_high_135_down,white_high_45_down,14,1.811713277,0.248608,left,0.3240315,1,14,14,0,1,1,1,TRUE,FALSE,high_2_mask_high,0.75,-1,3,TRUE,9,,,,,,,,,,,,,,,,,,,165,2,3.2.2021,164.9519907
201,"['med', 1, 'low']",1,white,0.410486572,135,right,down,med,low,black_low_45-white_low_45-black_low_135-white_low_135,white_med_135_down,black_med_45_down,15,1.213824884,0.2467419,right,0.1918918,1,15,9,1,1,1,1,TRUE,FALSE,med_1_mask_low,0.75,-1,3,FALSE,6,,,,,,,,,,,,,,,,,,,165,2,3.2.2021,164.9519907
202,"['low', 3, 'high']",3,black,0.962125483,135,left,up,low,high,white_high_135-black_high_45-white_high_135-black_high_135,black_low_135_up,white_low_45_up,1,1.161628837,0.2485178,right,1.1316634,0,1,14,1,0,1,1,TRUE,FALSE,low_3_mask_high,0.75,-1,3,TRUE,5,,,,,,,,,,,,,,,,,,,165,2,3.2.2021,164.9519907
203,"['low', 2, 'high']",2,black,0.917469458,45,right,down,low,high,white_high_135-white_high_135-black_high_45-black_high_135,black_low_45_down,white_low_135_down,4,1.808538206,0.2485352,right,0.4344759,1,4,7,1,0,1,1,TRUE,FALSE,low_2_mask_high,0.75,-1,3,FALSE,1,,,,,,,,,,,,,,,,,,,165,2,3.2.2021,164.9519907
204,"['low', 2, 'high']",2,white,0.643601877,45,left,down,low,high,black_high_45-white_high_135-black_high_135-white_high_135,white_low_45_down,black_low_135_down,3,1.642910919,0.2485478,left,0.1486349,1,3,8,1,0,1,1,TRUE,FALSE,low_2_mask_high,0.75,-1,3,FALSE,1,,,,,,,,,,,,,,,,,,,165,2,3.2.2021,164.9519907
205,"['med', 2, 'low']",2,white,0.45901517,45,left,up,med,low,white_low_135-black_low_45-white_low_45-black_low_135,white_med_45_up,black_med_135_up,7,1.614559387,0.2449826,left,0.0966476,1,7,9,1,0,1,1,TRUE,FALSE,med_2_mask_low,0.75,-1,3,FALSE,4,,,,,,,,,,,,,,,,,,,165,2,3.2.2021,164.9519907
206,"['low', 1, 'high']",1,white,0.38162961,135,right,up,low,high,white_high_135-black_high_45-black_high_135-white_high_135,white_low_135_up,black_low_45_up,16,1.286471439,0.2488637,right,0.0894328,1,16,12,1,1,1,1,TRUE,FALSE,low_1_mask_high,0.75,-1,3,FALSE,5,,,,,,,,,,,,,,,,,,,165,2,3.2.2021,164.9519907
207,"['high', 1, 'high']",1,white,0.559473423,135,right,down,high,high,black_high_135-white_high_135-white_high_135-black_high_45,white_high_135_down,black_high_45_down,12,1.225390324,0.2485409,right,0.1274233,1,12,8,1,0,1,1,TRUE,FALSE,high_1_mask_high,0.75,-1,3,FALSE,2,,,,,,,,,,,,,,,,,,,165,2,3.2.2021,164.9519907
208,"['med', 1, 'high']",1,black,0.128854812,45,right,up,med,high,black_high_45-black_high_135-white_high_135-white_high_135,black_med_45_up,white_med_135_up,16,1.562871476,0.2485547,left,0.2946828,0,16,8,1,1,1,1,TRUE,FALSE,med_1_mask_high,0.75,-1,3,TRUE,6,,,,,,,,,,,,,,,,,,,165,2,3.2.2021,164.9519907
209,"['high', 2, 'high']",2,white,0.035381702,45,left,down,high,high,black_high_45-white_high_135-white_high_135-black_high_135,white_high_45_down,black_high_135_down,13,1.002361741,0.2485448,left,0.0513117,1,13,15,1,1,1,1,TRUE,FALSE,high_2_mask_high,0.75,-1,3,FALSE,9,,,,,,,,,,,,,,,,,,,165,2,3.2.2021,164.9519907
210,"['high', 3, 'low']",3,black,0.135807765,135,left,up,high,low,white_low_135-white_low_45-black_low_135-black_low_45,black_high_135_up,white_high_45_up,11,1.684833865,0.2485415,left,0.1352392,1,11,9,1,1,1,1,TRUE,FALSE,high_3_mask_low,0.75,-1,3,FALSE,5,,,,,,,,,,,,,,,,,,,165,2,3.2.2021,164.9519907
211,"['med', 3, 'low']",3,black,0.73950561,45,right,up,med,low,white_low_135-black_low_45-white_low_45-black_low_135,black_med_45_up,white_med_135_up,11,1.214341579,0.2502997,right,0.0548938,1,11,17,1,1,1,1,TRUE,FALSE,med_3_mask_low,0.75,-1,3,FALSE,7,,,,,,,,,,,,,,,,,,,165,2,3.2.2021,164.9519907
212,"['low', 2, 'low']",2,black,0.508293428,135,left,down,low,low,white_low_135-black_low_45-white_low_45-black_low_135,black_low_135_down,white_low_45_down,1,1.197154855,0.2485581,left,0.2969191,1,1,8,1,0,1,1,TRUE,FALSE,low_2_mask_low,0.75,-1,3,FALSE,2,,,,,,,,,,,,,,,,,,,165,2,3.2.2021,164.9519907
213,"['high', 2, 'low']",2,white,0.922500413,135,right,up,high,low,white_low_45-black_low_135-black_low_45-white_low_135,white_high_135_up,black_high_45_up,19,1.454585532,0.2467571,right,0.0133225,1,19,13,0,1,1,1,TRUE,FALSE,high_2_mask_low,0.75,-1,3,TRUE,8,,,,,,,,,,,,,,,,,,,165,2,3.2.2021,164.9519907
214,"['med', 1, 'low']",1,white,0.761033748,45,left,down,med,low,white_low_45-white_low_135-black_low_45-black_low_135,white_med_45_down,black_med_135_down,14,1.870126088,0.2485382,left,0.3090613,1,14,10,1,1,1,1,TRUE,FALSE,med_1_mask_low,0.75,-1,3,FALSE,6,,,,,,,,,,,,,,,,,,,165,2,3.2.2021,164.9519907
215,"['high', 3, 'high']",3,white,0.250870119,45,left,down,high,high,black_high_135-white_high_135-white_high_135-black_high_45,white_high_45_down,black_high_135_down,11,1.9664119,0.2485503,left,0.1492733,1,11,9,1,0,1,1,TRUE,FALSE,high_3_mask_high,0.75,-1,3,FALSE,3,,,,,,,,,,,,,,,,,,,165,2,3.2.2021,164.9519907
216,"['high', 3, 'low']",3,black,0.860516613,135,left,up,high,low,black_low_45-white_low_45-black_low_135-white_low_135,black_high_135_up,white_high_45_up,10,1.590958911,0.2485462,right,0.0420171,0,10,10,1,1,1,1,TRUE,FALSE,high_3_mask_low,0.75,-1,3,TRUE,6,,,,,,,,,,,,,,,,,,,165,2,3.2.2021,164.9519907
217,"['med', 3, 'high']",3,white,0.269551332,135,right,down,med,high,black_high_135-black_high_45-white_high_135-white_high_135,white_med_135_down,black_med_45_down,10,1.093314449,0.2485525,right,0.184452,1,10,14,1,1,1,1,TRUE,FALSE,med_3_mask_high,0.75,-1,3,FALSE,5,,,,,,,,,,,,,,,,,,,165,2,3.2.2021,164.9519907
218,"['med', 1, 'high']",1,black,0.379996661,45,right,down,med,high,black_high_45-black_high_135-white_high_135-white_high_135,black_med_45_down,white_med_135_down,19,1.179339122,0.2485452,right,0.573566,1,19,9,0,1,1,1,TRUE,FALSE,med_1_mask_high,0.75,-1,3,TRUE,7,,,,,,,,,,,,,,,,,,,165,2,3.2.2021,164.9519907
219,"['high', 1, 'low']",1,white,0.845287041,135,right,up,high,low,black_low_135-white_low_45-black_low_45-white_low_135,white_high_135_up,black_high_45_up,21,1.710791997,0.2485459,right,0.756413,1,21,11,1,1,1,1,TRUE,FALSE,high_1_mask_low,0.75,-1,3,FALSE,5,,,,,,,,,,,,,,,,,,,165,2,3.2.2021,164.9519907
220,"['med', 2, 'high']",2,white,0.790776461,45,left,down,med,high,white_high_135-black_high_45-white_high_135-black_high_135,white_med_45_down,black_med_135_down,10,1.355889841,0.2485494,left,0.6508475,1,10,10,1,0,1,1,TRUE,FALSE,med_2_mask_high,0.75,-1,3,FALSE,4,,,,,,,,,,,,,,,,,,,165,2,3.2.2021,164.9519907
221,"['low', 3, 'high']",3,white,0.84344835,45,left,down,low,high,white_high_135-black_high_135-white_high_135-black_high_45,white_low_45_down,black_low_135_down,4,1.827701764,0.244985,left,0.1109223,1,4,15,0,1,1,1,TRUE,FALSE,low_3_mask_high,0.75,-1,3,TRUE,6,,,,,,,,,,,,,,,,,,,165,2,3.2.2021,164.9519907
222,"['low', 3, 'low']",3,black,0.504767657,45,right,down,low,low,white_low_45-black_low_45-black_low_135-white_low_135,black_low_45_down,white_low_135_down,5,1.819838707,0.2485511,right,0.1659698,1,5,14,1,1,1,1,TRUE,FALSE,low_3_mask_low,0.75,-1,3,FALSE,6,,,,,,,,,,,,,,,,,,,165,2,3.2.2021,164.9519907
223,"['low', 1, 'low']",1,black,0.272815741,135,left,down,low,low,white_low_45-black_low_45-black_low_135-white_low_135,black_low_135_down,white_low_45_down,22,1.357953199,0.2467609,left,0.159304,1,22,14,0,1,1,1,TRUE,FALSE,low_1_mask_low,0.75,-1,3,TRUE,6,,,,,,,,,,,,,,,,,,,165,2,3.2.2021,164.9519907
224,"['high', 1, 'low']",1,white,0.143869167,45,left,up,high,low,white_low_45-white_low_135-black_low_45-black_low_135,white_high_45_up,black_high_135_up,20,1.983147384,0.2485409,left,0.1834814,1,20,12,1,1,1,1,TRUE,FALSE,high_1_mask_low,0.75,-1,3,FALSE,5,,,,,,,,,,,,,,,,,,,165,2,3.2.2021,164.9519907
225,"['med', 1, 'low']",1,black,0.556050218,135,left,down,med,low,black_low_135-black_low_45-white_low_135-white_low_45,black_med_135_down,white_med_45_down,13,1.026364319,0.2485475,right,0.0558714,0,13,11,1,1,1,1,TRUE,FALSE,med_1_mask_low,0.75,-1,3,TRUE,7,,,,,,,,,,,,,,,,,,,165,2,3.2.2021,164.9519907
226,"['high', 1, 'low']",1,black,0.335111628,135,left,up,high,low,black_low_135-black_low_45-white_low_45-white_low_135,black_high_135_up,white_high_45_up,19,1.342760296,0.2503132,right,0.0872778,0,19,13,1,1,1,1,TRUE,FALSE,high_1_mask_low,0.75,-1,3,TRUE,6,,,,,,,,,,,,,,,,,,,165,2,3.2.2021,164.9519907
227,"['high', 3, 'high']",3,black,0.23318809,45,right,down,high,high,black_high_135-white_high_135-black_high_45-white_high_135,black_high_45_down,white_high_135_down,10,1.822787801,0.2485463,right,0.3715458,1,10,10,1,0,1,1,TRUE,FALSE,high_3_mask_high,0.75,-1,3,FALSE,3,,,,,,,,,,,,,,,,,,,165,2,3.2.2021,164.9519907
228,"['high', 3, 'low']",3,white,0.874476367,135,right,up,high,low,white_low_135-white_low_45-black_low_135-black_low_45,white_high_135_up,black_high_45_up,13,1.405259866,0.2485486,right,0.2724119,1,13,11,0,1,1,1,TRUE,FALSE,high_3_mask_low,0.75,-1,3,TRUE,7,,,,,,,,,,,,,,,,,,,165,2,3.2.2021,164.9519907
229,"['low', 3, 'high']",3,white,0.04570055,45,left,down,low,high,black_high_135-white_high_135-white_high_135-black_high_45,white_low_45_down,black_low_135_down,3,1.750687138,0.2467587,left,0.1141656,1,3,16,1,1,1,1,TRUE,FALSE,low_3_mask_high,0.75,-1,3,FALSE,6,,,,,,,,,,,,,,,,,,,165,2,3.2.2021,164.9519907
230,"['high', 1, 'high']",1,white,0.429689843,45,left,down,high,high,black_high_135-black_high_45-white_high_135-white_high_135,white_high_45_down,black_high_135_down,11,1.359161803,0.2485446,left,0.0280125,1,11,9,1,0,1,1,TRUE,FALSE,high_1_mask_high,0.75,-1,3,FALSE,2,,,,,,,,,,,,,,,,,,,165,2,3.2.2021,164.9519907
231,"['low', 1, 'low']",1,white,0.965072976,135,right,up,low,low,white_low_135-white_low_45-black_low_45-black_low_135,white_low_135_up,black_low_45_up,21,1.473138396,0.248554,right,0.3250927,1,21,15,1,1,1,1,TRUE,FALSE,low_1_mask_low,0.75,-1,3,FALSE,6,,,,,,,,,,,,,,,,,,,165,2,3.2.2021,164.9519907
232,"['med', 1, 'high']",1,black,0.962346628,45,right,down,med,high,black_high_45-black_high_135-white_high_135-white_high_135,black_med_45_down,white_med_135_down,18,1.405468586,0.248557,left,0.0780171,0,18,10,1,1,1,1,TRUE,FALSE,med_1_mask_high,0.75,-1,3,TRUE,8,,,,,,,,,,,,,,,,,,,165,2,3.2.2021,164.9519907
233,"['med', 1, 'high']",1,white,0.874763969,45,left,down,med,high,black_high_135-black_high_45-white_high_135-white_high_135,white_med_45_down,black_med_135_down,21,1.222433196,0.2485571,left,0.3051398,1,21,11,0,1,1,1,TRUE,FALSE,med_1_mask_high,0.75,-1,3,TRUE,9,,,,,,,,,,,,,,,,,,,165,2,3.2.2021,164.9519907
234,"['med', 1, 'high']",1,black,0.760350063,135,left,down,med,high,white_high_135-black_high_45-white_high_135-black_high_135,black_med_135_down,white_med_45_down,20,1.630976478,0.2485512,right,0.3889855,0,20,12,1,1,1,1,TRUE,FALSE,med_1_mask_high,0.75,-1,3,TRUE,10,,,,,,,,,,,,,,,,,,,165,2,3.2.2021,164.9519907
235,"['low', 1, 'high']",1,black,0.722388276,45,right,down,low,high,white_high_135-black_high_135-black_high_45-white_high_135,black_low_45_down,white_low_135_down,15,1.89575815,0.2502924,right,0.2238546,1,15,13,1,1,1,1,TRUE,FALSE,low_1_mask_high,0.75,-1,3,FALSE,5,,,,,,,,,,,,,,,,,,,165,2,3.2.2021,164.9519907
236,"['high', 3, 'low']",3,white,0.357124703,135,right,up,high,low,white_low_45-black_low_135-white_low_135-black_low_45,white_high_135_up,black_high_45_up,12,1.888265235,0.2485428,right,3.2043537,1,12,12,1,1,1,1,TRUE,FALSE,high_3_mask_low,0.75,-1,3,FALSE,7,,,,,,,,,,,,,,,,,,,165,2,3.2.2021,164.9519907
237,"['high', 2, 'high']",2,white,0.783191149,45,left,down,high,high,black_high_135-white_high_135-white_high_135-black_high_45,white_high_45_down,black_high_135_down,12,1.013049612,0.2485487,right,0.8054363,0,12,16,1,1,1,1,TRUE,FALSE,high_2_mask_high,0.75,-1,3,TRUE,10,,,,,,,,,,,,,,,,,,,165,2,3.2.2021,164.9519907
238,"['med', 1, 'low']",1,black,0.427549239,45,right,down,med,low,black_low_45-black_low_135-white_low_135-white_low_45,black_med_45_down,white_med_135_down,16,1.200361478,0.2485432,right,0.1678227,1,16,12,0,1,1,1,TRUE,FALSE,med_1_mask_low,0.75,-1,3,TRUE,8,,,,,,,,,,,,,,,,,,,165,2,3.2.2021,164.9519907
239,"['high', 1, 'high']",1,white,0.794698932,135,right,up,high,high,black_high_135-white_high_135-white_high_135-black_high_45,white_high_135_up,black_high_45_up,10,1.012155882,0.2472724,right,0.2365801,1,10,10,1,0,1,1,TRUE,FALSE,high_1_mask_high,0.75,-1,3,FALSE,2,,,,,,,,,,,,,,,,,,,165,2,3.2.2021,164.9519907
240,"['med', 3, 'low']",3,black,0.764368132,135,left,down,med,low,black_low_45-white_low_135-black_low_135-white_low_45,black_med_135_down,white_med_45_down,10,1.458767211,0.2485448,right,0.0306429,0,10,18,1,1,1,1,TRUE,FALSE,med_3_mask_low,0.75,-1,3,TRUE,8,,,,,,,,,,,,,,,,,,,165,2,3.2.2021,164.9519907
241,"['high', 3, 'high']",3,white,0.577916626,45,left,down,high,high,black_high_45-white_high_135-white_high_135-black_high_135,white_high_45_down,black_high_135_down,9,1.977533507,0.2503003,right,0.252597,0,9,11,1,0,1,1,TRUE,FALSE,high_3_mask_high,0.75,-1,3,TRUE,4,,,,,,,,,,,,,,,,,,,165,2,3.2.2021,164.9519907
242,"['med', 1, 'low']",1,black,0.36799962,135,left,up,med,low,white_low_135-black_low_135-white_low_45-black_low_45,black_med_135_up,white_med_45_up,15,1.071143161,0.2467586,left,0.149181,1,15,13,1,1,1,1,TRUE,FALSE,med_1_mask_low,0.75,-1,3,FALSE,8,,,,,,,,,,,,,,,,,,,165,2,3.2.2021,164.9519907
243,"['med', 2, 'low']",2,white,0.512623236,45,left,up,med,low,white_low_45-black_low_45-black_low_135-white_low_135,white_med_45_up,black_med_135_up,6,1.480713147,0.2485416,left,0.0081065,1,6,10,1,0,1,1,TRUE,FALSE,med_2_mask_low,0.75,-1,3,FALSE,4,,,,,,,,,,,,,,,,,,,165,2,3.2.2021,164.9519907
244,"['med', 1, 'high']",1,white,0.924436717,135,right,up,med,high,black_high_45-white_high_135-black_high_135-white_high_135,white_med_135_up,black_med_45_up,23,1.199579231,0.2488338,right,0.2121846,1,23,13,0,1,1,1,TRUE,FALSE,med_1_mask_high,0.75,-1,3,TRUE,11,,,,,,,,,,,,,,,,,,,165,2,3.2.2021,164.9519907
245,"['med', 3, 'high']",3,black,0.58027179,45,right,up,med,high,white_high_135-black_high_45-black_high_135-white_high_135,black_med_45_up,white_med_135_up,9,1.899317841,0.2485517,right,0.5600132,1,9,15,1,1,1,1,TRUE,FALSE,med_3_mask_high,0.75,-1,3,FALSE,5,,,,,,,,,,,,,,,,,,,165,2,3.2.2021,164.9519907
246,"['low', 3, 'high']",3,black,0.412221998,135,left,up,low,high,white_high_135-white_high_135-black_high_45-black_high_135,black_low_135_up,white_low_45_up,2,1.182693973,0.2485412,right,0.0704573,0,2,17,1,1,1,1,TRUE,FALSE,low_3_mask_high,0.75,-1,3,TRUE,7,,,,,,,,,,,,,,,,,,,165,2,3.2.2021,164.9519907
247,"['med', 2, 'low']",2,white,0.600652026,45,left,up,med,low,black_low_45-white_low_45-white_low_135-black_low_135,white_med_45_up,black_med_135_up,5,1.089587379,0.2503132,left,0.3069123,1,5,11,1,0,1,1,TRUE,FALSE,med_2_mask_low,0.75,-1,3,FALSE,4,,,,,,,,,,,,,,,,,,,165,2,3.2.2021,164.9519907
248,"['high', 3, 'low']",3,black,0.361313193,135,left,down,high,low,black_low_135-black_low_45-white_low_45-white_low_135,black_high_135_down,white_high_45_down,11,1.023354588,0.2485429,right,0.1662886,0,11,13,1,1,1,1,TRUE,FALSE,high_3_mask_low,0.75,-1,3,TRUE,8,,,,,,,,,,,,,,,,,,,165,2,3.2.2021,164.9519907
249,"['high', 2, 'low']",2,black,0.037963151,45,right,down,high,low,black_low_45-white_low_45-black_low_135-white_low_135,black_high_45_down,white_high_135_down,18,1.559399468,0.2467603,right,0.5410784,1,18,14,1,1,1,1,TRUE,FALSE,high_2_mask_low,0.75,-1,3,FALSE,8,,,,,,,,,,,,,,,,,,,165,2,3.2.2021,164.9519907
250,"['low', 1, 'high']",1,white,0.876021641,135,right,up,low,high,black_high_135-white_high_135-black_high_45-white_high_135,white_low_135_up,black_low_45_up,14,1.510363207,0.2503053,right,0.2382012,1,14,14,1,1,1,1,TRUE,FALSE,low_1_mask_high,0.75,-1,3,FALSE,5,,,,,,,,,,,,,,,,,,,165,2,3.2.2021,164.9519907
251,"['high', 2, 'low']",2,black,0.36822105,45,right,up,high,low,black_low_45-white_low_45-black_low_135-white_low_135,black_high_45_up,white_high_135_up,17,1.40688206,0.2485513,left,0.1695373,0,17,15,1,1,1,1,TRUE,FALSE,high_2_mask_low,0.75,-1,3,TRUE,9,,,,,,,,,,,,,,,,,,,165,2,3.2.2021,164.9519907
252,"['med', 1, 'high']",1,black,0.223346032,135,left,up,med,high,black_high_135-white_high_135-black_high_45-white_high_135,black_med_135_up,white_med_45_up,22,1.190995537,0.2485334,left,0.1496805,1,22,14,1,1,1,1,TRUE,FALSE,med_1_mask_high,0.75,-1,3,FALSE,11,,,,,,,,,,,,,,,,,,,165,2,3.2.2021,164.9519907
253,"['high', 2, 'low']",2,white,0.621196822,135,right,up,high,low,black_low_135-black_low_45-white_low_45-white_low_135,white_high_135_up,black_high_45_up,20,1.960003212,0.2485512,right,0.170449,1,20,16,0,1,1,1,TRUE,FALSE,high_2_mask_low,0.75,-1,3,TRUE,10,,,,,,,,,,,,,,,,,,,165,2,3.2.2021,164.9519907
254,"['high', 1, 'high']",1,black,0.413297336,135,left,up,high,high,white_high_135-black_high_45-black_high_135-white_high_135,black_high_135_up,white_high_45_up,9,1.684225074,0.2502987,left,0.050418,1,9,11,1,0,1,1,TRUE,FALSE,high_1_mask_high,0.75,-1,3,FALSE,2,,,,,,,,,,,,,,,,,,,165,2,3.2.2021,164.9519907
255,"['high', 1, 'low']",1,white,0.474366053,135,right,up,high,low,white_low_45-black_low_45-white_low_135-black_low_135,white_high_135_up,black_high_45_up,22,1.888767506,0.2467719,right,0.0508564,1,22,14,0,1,1,1,TRUE,FALSE,high_1_mask_low,0.75,-1,3,TRUE,7,,,,,,,,,,,,,,,,,,,165,2,3.2.2021,164.9519907
256,"['med', 2, 'high']",2,white,0.807179149,45,left,down,med,high,black_high_135-white_high_135-black_high_45-white_high_135,white_med_45_down,black_med_135_down,9,1.35437734,0.2485407,left,0.2445658,1,9,11,1,0,1,1,TRUE,FALSE,med_2_mask_high,0.75,-1,3,FALSE,4,,,,,,,,,,,,,,,,,,,165,2,3.2.2021,164.9519907
257,"['med', 3, 'high']",3,white,0.192483543,45,left,up,med,high,black_high_135-white_high_135-white_high_135-black_high_45,white_med_45_up,black_med_135_up,8,1.537663465,0.2467446,left,0.2921977,1,8,16,1,1,1,1,TRUE,FALSE,med_3_mask_high,0.75,-1,3,FALSE,5,,,,,,,,,,,,,,,,,,,165,2,3.2.2021,164.9519907
258,"['med', 2, 'low']",2,white,0.269785701,135,right,up,med,low,black_low_45-black_low_135-white_low_135-white_low_45,white_med_135_up,black_med_45_up,4,1.67501626,0.2485482,right,0.3104312,1,4,12,1,0,1,1,TRUE,FALSE,med_2_mask_low,0.75,-1,3,FALSE,4,,,,,,,,,,,,,,,,,,,165,2,3.2.2021,164.9519907
259,"['med', 2, 'high']",2,white,0.691694429,135,right,up,med,high,white_high_135-black_high_135-white_high_135-black_high_45,white_med_135_up,black_med_45_up,8,1.48762675,0.2485388,right,0.5266122,1,8,12,1,0,1,1,TRUE,FALSE,med_2_mask_high,0.75,-1,3,FALSE,4,,,,,,,,,,,,,,,,,,,165,2,3.2.2021,164.9519907
260,"['med', 1, 'low']",1,white,0.437730679,135,right,up,med,low,white_low_135-black_low_135-white_low_45-black_low_45,white_med_135_up,black_med_45_up,14,1.283736531,0.2485661,right,0.2244721,1,14,14,1,1,1,1,TRUE,FALSE,med_1_mask_low,0.75,-1,3,FALSE,8,,,,,,,,,,,,,,,,,,,165,2,3.2.2021,164.9519907
261,"['low', 2, 'low']",2,black,0.212474807,45,right,up,low,low,white_low_45-black_low_135-black_low_45-white_low_135,black_low_45_up,white_low_135_up,1,1.011805125,0.2485468,left,0.2127966,0,1,9,1,0,1,1,TRUE,FALSE,low_2_mask_low,0.75,-1,3,TRUE,3,,,,,,,,,,,,,,,,,,,165,2,3.2.2021,164.9519907
262,"['low', 3, 'low']",3,black,0.967233927,45,right,up,low,low,white_low_135-black_low_135-white_low_45-black_low_45,black_low_45_up,white_low_135_up,4,1.926628806,0.2467628,right,0.0310817,1,4,15,1,1,1,1,TRUE,FALSE,low_3_mask_low,0.75,-1,3,FALSE,6,,,,,,,,,,,,,,,,,,,165,2,3.2.2021,164.9519907
263,"['med', 2, 'high']",2,black,0.78441094,135,left,up,med,high,white_high_135-black_high_135-black_high_45-white_high_135,black_med_135_up,white_med_45_up,7,1.541005194,0.2502675,right,0.1384916,0,7,13,1,0,1,1,TRUE,FALSE,med_2_mask_high,0.75,-1,3,TRUE,5,,,,,,,,,,,,,,,,,,,165,2,3.2.2021,164.9519907
264,"['med', 2, 'low']",2,white,0.914239776,45,left,up,med,low,white_low_45-white_low_135-black_low_135-black_low_45,white_med_45_up,black_med_135_up,3,1.556324632,0.2485448,right,0.5698428,0,3,13,1,0,1,1,TRUE,FALSE,med_2_mask_low,0.75,-1,3,TRUE,5,,,,,,,,,,,,,,,,,,,165,2,3.2.2021,164.9519907
265,"['high', 3, 'high']",3,black,0.133653553,45,right,down,high,high,white_high_135-white_high_135-black_high_135-black_high_45,black_high_45_down,white_high_135_down,12,1.45984038,0.2488454,left,0.19211,0,12,12,0,0,1,1,TRUE,FALSE,high_3_mask_high,0.75,-1,3,FALSE,4,,,,,,,,,,,,,,,,,,,165,2,3.2.2021,164.9519907
266,"['low', 2, 'low']",2,white,0.1619818,135,right,down,low,low,white_low_135-white_low_45-black_low_45-black_low_135,white_low_135_down,black_low_45_down,4,1.336365162,0.2485409,right,0.1838399,1,4,10,0,0,1,1,TRUE,FALSE,low_2_mask_low,0.75,-1,3,TRUE,4,,,,,,,,,,,,,,,,,,,165,2,3.2.2021,164.9519907
267,"['high', 2, 'low']",2,black,0.255926896,135,left,down,high,low,black_low_135-black_low_45-white_low_135-white_low_45,black_high_135_down,white_high_45_down,19,1.736569085,0.2488592,left,0.3123755,1,19,17,1,1,1,1,TRUE,FALSE,high_2_mask_low,0.75,-1,3,FALSE,10,,,,,,,,,,,,,,,,,,,165,2,3.2.2021,164.9519907
268,"['low', 1, 'low']",1,white,0.340588742,45,left,down,low,low,white_low_135-white_low_45-black_low_45-black_low_135,white_low_45_down,black_low_135_down,20,1.056787227,0.248547,left,0.1917375,1,20,16,1,1,1,1,TRUE,FALSE,low_1_mask_low,0.75,-1,3,FALSE,6,,,,,,,,,,,,,,,,,,,165,2,3.2.2021,164.9519907
269,"['low', 2, 'high']",2,white,0.187394276,45,left,up,low,high,white_high_135-black_high_135-white_high_135-black_high_45,white_low_45_up,black_low_135_up,2,1.528360269,0.2485518,right,0.4054773,0,2,9,1,0,1,1,TRUE,FALSE,low_2_mask_high,0.75,-1,3,TRUE,2,,,,,,,,,,,,,,,,,,,165,2,3.2.2021,164.9519907
270,"['low', 3, 'low']",3,black,0.889952134,45,right,down,low,low,black_low_135-white_low_45-white_low_135-black_low_45,black_low_45_down,white_low_135_down,3,1.135355647,0.2467146,left,0.2639334,0,3,16,1,1,1,1,TRUE,FALSE,low_3_mask_low,0.75,-1,3,TRUE,7,,,,,,,,,,,,,,,,,,,165,2,3.2.2021,164.9519907
271,"['med', 2, 'low']",2,black,0.777156037,45,right,up,med,low,white_low_45-black_low_45-black_low_135-white_low_135,black_med_45_up,white_med_135_up,6,1.954124308,0.2485447,left,0.0287517,0,6,14,0,1,1,1,TRUE,FALSE,med_2_mask_low,0.75,-1,3,FALSE,5,,,,,,,,,,,,,,,,,,,165,2,3.2.2021,164.9519907
272,"['high', 1, 'high']",1,black,0.04808017,135,left,up,high,high,white_high_135-black_high_45-black_high_135-white_high_135,black_high_135_up,white_high_45_up,8,1.365697632,0.2467691,right,0.1146347,0,8,12,1,0,1,1,TRUE,FALSE,high_1_mask_high,0.75,-1,3,TRUE,3,,,,,,,,,,,,,,,,,,,165,2,3.2.2021,164.9519907
273,"['med', 3, 'low']",3,black,0.372463015,45,right,down,med,low,white_low_45-black_low_45-white_low_135-black_low_135,black_med_45_down,white_med_135_down,13,1.66611776,0.2467742,right,0.2348778,1,13,19,0,1,1,1,TRUE,FALSE,med_3_mask_low,0.75,-1,3,TRUE,9,,,,,,,,,,,,,,,,,,,165,2,3.2.2021,164.9519907
274,"['med', 3, 'high']",3,white,0.044134352,45,left,down,med,high,white_high_135-white_high_135-black_high_45-black_high_135,white_med_45_down,black_med_135_down,7,1.74319687,0.2467529,left,0.0091644,1,7,17,1,1,1,1,TRUE,FALSE,med_3_mask_high,0.75,-1,3,FALSE,5,,,,,,,,,,,,,,,,,,,165,2,3.2.2021,164.9519907
275,"['med', 2, 'low']",2,white,0.196649619,45,left,up,med,low,black_low_45-white_low_45-white_low_135-black_low_135,white_med_45_up,black_med_135_up,9,1.09763171,0.2485512,right,0.1320646,0,9,15,0,1,1,1,TRUE,FALSE,med_2_mask_low,0.75,-1,3,FALSE,5,,,,,,,,,,,,,,,,,,,165,2,3.2.2021,164.9519907
276,"['low', 1, 'high']",1,black,0.466945069,45,right,down,low,high,black_high_135-black_high_45-white_high_135-white_high_135,black_low_45_down,white_low_135_down,13,1.665307966,0.2485458,right,0.4247909,1,13,15,1,1,1,1,TRUE,FALSE,low_1_mask_high,0.75,-1,3,FALSE,5,,,,,,,,,,,,,,,,,,,165,2,3.2.2021,164.9519907
277,"['med', 3, 'low']",3,white,0.689568425,45,left,up,med,low,white_low_45-black_low_45-black_low_135-white_low_135,white_med_45_up,black_med_135_up,12,1.1624131,0.2485456,left,0.1784645,1,12,20,1,1,1,1,TRUE,FALSE,med_3_mask_low,0.75,-1,3,FALSE,9,,,,,,,,,,,,,,,,,,,165,2,3.2.2021,164.9519907
278,"['low', 1, 'low']",1,white,0.704965598,45,left,down,low,low,white_low_45-white_low_135-black_low_135-black_low_45,white_low_45_down,black_low_135_down,19,1.986536802,0.2485148,left,0.2077165,1,19,17,1,1,1,1,TRUE,FALSE,low_1_mask_low,0.75,-1,3,FALSE,6,,,,,,,,,,,,,,,,,,,165,2,3.2.2021,164.9519907
279,"['low', 2, 'low']",2,white,0.317093962,135,right,up,low,low,white_low_135-black_low_45-white_low_45-black_low_135,white_low_135_up,black_low_45_up,3,1.536673133,0.2485474,right,0.2011897,1,3,11,1,0,1,1,TRUE,FALSE,low_2_mask_low,0.75,-1,3,FALSE,4,,,,,,,,,,,,,,,,,,,165,2,3.2.2021,164.9519907
280,"['high', 3, 'high']",3,black,0.327343854,135,left,up,high,high,white_high_135-white_high_135-black_high_45-black_high_135,black_high_135_up,white_high_45_up,15,1.665758233,0.2485621,left,0.2128913,1,15,13,0,0,1,1,TRUE,FALSE,high_3_mask_high,0.75,-1,3,TRUE,5,,,,,,,,,,,,,,,,,,,165,2,3.2.2021,164.9519907
281,"['low', 2, 'low']",2,white,0.910691663,135,right,down,low,low,black_low_45-black_low_135-white_low_45-white_low_135,white_low_135_down,black_low_45_down,2,1.219367368,0.2485441,left,0.4668349,0,2,12,1,0,1,1,TRUE,FALSE,low_2_mask_low,0.75,-1,3,TRUE,5,,,,,,,,,,,,,,,,,,,165,2,3.2.2021,164.9519907
282,"['low', 1, 'high']",1,black,0.774476577,45,right,up,low,high,white_high_135-white_high_135-black_high_135-black_high_45,black_low_45_up,white_low_135_up,12,1.966983429,0.2485447,left,0.2368773,0,12,16,1,1,1,1,TRUE,FALSE,low_1_mask_high,0.75,-1,3,TRUE,6,,,,,,,,,,,,,,,,,,,165,2,3.2.2021,164.9519907
283,"['med', 2, 'low']",2,black,0.350691888,45,right,up,med,low,black_low_135-black_low_45-white_low_45-white_low_135,black_med_45_up,white_med_135_up,12,1.16187856,0.2488471,right,0.2200622,1,12,16,0,1,1,1,TRUE,FALSE,med_2_mask_low,0.75,-1,3,TRUE,6,,,,,,,,,,,,,,,,,,,165,2,3.2.2021,164.9519907
284,"['low', 2, 'low']",2,white,0.09311403,45,left,down,low,low,black_low_45-white_low_135-white_low_45-black_low_135,white_low_45_down,black_low_135_down,5,1.127684758,0.2467188,left,0.1475276,1,5,13,0,1,1,1,TRUE,FALSE,low_2_mask_low,0.75,-1,3,TRUE,6,,,,,,,,,,,,,,,,,,,165,2,3.2.2021,164.9519907
285,"['high', 2, 'high']",2,black,0.196182619,45,right,up,high,high,white_high_135-black_high_45-white_high_135-black_high_135,black_high_45_up,white_high_135_up,15,1.641874075,0.2485433,right,0.3570369,1,15,17,0,1,1,1,TRUE,FALSE,high_2_mask_high,0.75,-1,3,TRUE,11,,,,,,,,,,,,,,,,,,,165,2,3.2.2021,164.9519907
286,"['low', 3, 'high']",3,white,0.852744374,45,left,down,low,high,white_high_135-black_high_135-black_high_45-white_high_135,white_low_45_down,black_low_135_down,5,1.851572296,0.248542,left,0.0763738,1,5,18,0,1,1,1,TRUE,FALSE,low_3_mask_high,0.75,-1,3,TRUE,8,,,,,,,,,,,,,,,,,,,165,2,3.2.2021,164.9519907
287,"['high', 1, 'high']",1,black,0.288087096,135,left,down,high,high,white_high_135-white_high_135-black_high_135-black_high_45,black_high_135_down,white_high_45_down,11,1.563888834,0.2485462,right,0.3181981,0,11,13,0,0,1,1,TRUE,FALSE,high_1_mask_high,0.75,-1,3,FALSE,3,,,,,,,,,,,,,,,,,,,165,2,3.2.2021,164.9519907
288,"['low', 2, 'high']",2,black,0.261013449,45,right,up,low,high,white_high_135-black_high_135-black_high_45-white_high_135,black_low_45_up,white_low_135_up,5,1.211437354,0.248548,right,0.541088,1,5,10,0,0,1,1,TRUE,FALSE,low_2_mask_high,0.75,-1,3,TRUE,3,,,,,,,,,,,,,,,,,,,165,2,3.2.2021,164.9519907
289,"['med', 2, 'low']",2,black,0.702298205,45,right,up,med,low,white_low_135-black_low_135-black_low_45-white_low_45,black_med_45_up,white_med_135_up,11,1.304877787,0.2503108,right,0.2014544,1,11,17,1,1,1,1,TRUE,FALSE,med_2_mask_low,0.75,-1,3,FALSE,6,,,,,,,,,,,,,,,,,,,165,2,3.2.2021,164.9519907
290,"['low', 2, 'high']",2,black,0.725510494,135,left,down,low,high,white_high_135-black_high_45-black_high_135-white_high_135,black_low_135_down,white_low_45_down,4,1.513464203,0.2502935,right,0.1948734,0,4,11,1,0,1,1,TRUE,FALSE,low_2_mask_high,0.75,-1,3,TRUE,4,,,,,,,,,,,,,,,,,,,165,2,3.2.2021,164.9519907
291,"['low', 1, 'high']",1,white,0.508441894,45,left,down,low,high,white_high_135-black_high_135-black_high_45-white_high_135,white_low_45_down,black_low_135_down,15,1.521735656,0.2467743,left,0.1038131,1,15,17,0,1,1,1,TRUE,FALSE,low_1_mask_high,0.75,-1,3,TRUE,7,,,,,,,,,,,,,,,,,,,165,2,3.2.2021,164.9519907
292,"['med', 3, 'high']",3,black,0.310703498,45,right,down,med,high,black_high_45-white_high_135-white_high_135-black_high_135,black_med_45_down,white_med_135_down,6,1.373254392,0.2503012,right,0.085269,1,6,18,1,1,1,1,TRUE,FALSE,med_3_mask_high,0.75,-1,3,FALSE,5,,,,,,,,,,,,,,,,,,,165,2,3.2.2021,164.9519907
293,"['med', 2, 'high']",2,black,0.479928459,135,left,down,med,high,black_high_135-white_high_135-black_high_45-white_high_135,black_med_135_down,white_med_45_down,10,1.398489416,0.2502941,right,0.0361659,0,10,14,0,1,1,1,TRUE,FALSE,med_2_mask_high,0.75,-1,3,FALSE,5,,,,,,,,,,,,,,,,,,,165,2,3.2.2021,164.9519907
294,"['low', 3, 'low']",3,black,0.823329147,135,left,down,low,low,black_low_135-white_low_45-white_low_135-black_low_45,black_low_135_down,white_low_45_down,6,1.080516807,0.2485627,left,0.3137392,1,6,17,0,1,1,1,TRUE,FALSE,low_3_mask_low,0.75,-1,3,TRUE,8,,,,,,,,,,,,,,,,,,,165,2,3.2.2021,164.9519907
295,"['low', 3, 'low']",3,black,0.427555566,135,left,up,low,low,white_low_45-white_low_135-black_low_135-black_low_45,black_low_135_up,white_low_45_up,5,1.257613957,0.2485542,left,0.1267943,1,5,18,1,1,1,1,TRUE,FALSE,low_3_mask_low,0.75,-1,3,FALSE,8,,,,,,,,,,,,,,,,,,,165,2,3.2.2021,164.9519907
296,"['low', 1, 'high']",1,white,0.114585085,135,right,up,low,high,white_high_135-black_high_135-white_high_135-black_high_45,white_low_135_up,black_low_45_up,14,1.276288141,0.2485481,right,0.1998953,1,14,18,1,1,1,1,TRUE,FALSE,low_1_mask_high,0.75,-1,3,FALSE,7,,,,,,,,,,,,,,,,,,,165,2,3.2.2021,164.9519907
297,"['high', 1, 'high']",1,white,0.788707499,45,left,up,high,high,white_high_135-black_high_135-black_high_45-white_high_135,white_high_45_up,black_high_135_up,14,1.425780569,0.2485356,left,0.1310238,1,14,14,0,0,1,1,TRUE,FALSE,high_1_mask_high,0.75,-1,3,TRUE,4,,,,,,,,,,,,,,,,,,,165,2,3.2.2021,164.9519907
298,"['low', 2, 'low']",2,white,0.882308711,45,left,up,low,low,white_low_135-black_low_135-white_low_45-black_low_45,white_low_45_up,black_low_135_up,4,1.28746835,0.2485434,left,0.0317529,1,4,14,1,1,1,1,TRUE,FALSE,low_2_mask_low,0.75,-1,3,FALSE,6,,,,,,,,,,,,,,,,,,,165,2,3.2.2021,164.9519907
299,"['med', 2, 'high']",2,black,0.765531954,135,left,down,med,high,white_high_135-black_high_135-white_high_135-black_high_45,black_med_135_down,white_med_45_down,13,1.73652914,0.2485473,left,0.356274,1,13,15,0,1,1,1,TRUE,FALSE,med_2_mask_high,0.75,-1,3,TRUE,6,,,,,,,,,,,,,,,,,,,165,2,3.2.2021,164.9519907
300,"['low', 3, 'low']",3,black,0.34168758,45,right,up,low,low,black_low_135-white_low_45-white_low_135-black_low_45,black_low_45_up,white_low_135_up,4,1.915837132,0.2467057,right,0.3226161,1,4,19,1,1,1,1,TRUE,FALSE,low_3_mask_low,0.75,-1,3,FALSE,8,,,,,,,,,,,,,,,,,,,165,2,3.2.2021,164.9519907
301,"['high', 1, 'high']",1,black,0.317109054,45,right,up,high,high,white_high_135-white_high_135-black_high_135-black_high_45,black_high_45_up,white_high_135_up,13,1.542803842,0.2485471,right,0.1987059,1,13,15,1,0,1,1,TRUE,FALSE,high_1_mask_high,0.75,-1,3,FALSE,4,,,,,,,,,,,,,,,,,,,165,2,3.2.2021,164.9519907
302,"['med', 3, 'high']",3,black,0.117509118,45,right,down,med,high,white_high_135-black_high_135-black_high_45-white_high_135,black_med_45_down,white_med_135_down,5,1.722299756,0.2467546,left,0.3593595,0,5,19,1,1,1,1,TRUE,FALSE,med_3_mask_high,0.75,-1,3,TRUE,6,,,,,,,,,,,,,,,,,,,165,2,3.2.2021,164.9519907
303,"['low', 2, 'low']",2,white,0.638309009,135,right,down,low,low,black_low_135-white_low_45-white_low_135-black_low_45,white_low_135_down,black_low_45_down,3,1.768029511,0.248547,left,0.1796762,0,3,15,1,1,1,1,TRUE,FALSE,low_2_mask_low,0.75,-1,3,TRUE,7,,,,,,,,,,,,,,,,,,,165,2,3.2.2021,164.9519907
304,"['low', 3, 'high']",3,white,0.865844294,45,left,down,low,high,white_high_135-black_high_135-black_high_45-white_high_135,white_low_45_down,black_low_135_down,4,1.576414048,0.248544,left,0.1104587,1,4,19,1,1,1,1,TRUE,FALSE,low_3_mask_high,0.75,-1,3,FALSE,8,,,,,,,,,,,,,,,,,,,165,2,3.2.2021,164.9519907
305,"['med', 1, 'high']",1,black,0.469234378,45,right,down,med,high,black_high_45-white_high_135-white_high_135-black_high_135,black_med_45_down,white_med_135_down,21,1.062616243,0.2468139,right,0.2300588,1,21,15,1,1,1,1,TRUE,FALSE,med_1_mask_high,0.75,-1,3,FALSE,11,,,,,,,,,,,,,,,,,,,165,2,3.2.2021,164.9519907
306,"['med', 3, 'high']",3,white,0.841776354,45,left,up,med,high,black_high_135-black_high_45-white_high_135-white_high_135,white_med_45_up,black_med_135_up,8,1.250355095,0.2488615,right,0.229108,0,8,20,0,1,1,1,TRUE,FALSE,med_3_mask_high,0.75,-1,3,FALSE,6,,,,,,,,,,,,,,,,,,,165,2,3.2.2021,164.9519907
307,"['high', 1, 'high']",1,black,0.241933617,135,left,down,high,high,black_high_45-white_high_135-black_high_135-white_high_135,black_high_135_down,white_high_45_down,12,1.168086727,0.2467799,right,0.1765775,0,12,16,1,0,1,1,TRUE,FALSE,high_1_mask_high,0.75,-1,3,TRUE,5,,,,,,,,,,,,,,,,,,,165,2,3.2.2021,164.9519907
308,"['low', 3, 'low']",3,black,0.024633029,135,left,up,low,low,white_low_45-white_low_135-black_low_135-black_low_45,black_low_135_up,white_low_45_up,3,1.170092697,0.2502945,left,0.0074185,1,3,20,1,1,1,1,TRUE,FALSE,low_3_mask_low,0.75,-1,3,FALSE,8,,,,,,,,,,,,,,,,,,,165,2,3.2.2021,164.9519907
309,"['low', 3, 'low']",3,white,0.6162035,45,left,up,low,low,white_low_45-black_low_135-black_low_45-white_low_135,white_low_45_up,black_low_135_up,2,1.923130007,0.2485407,left,0.4789636,1,2,21,1,1,1,1,TRUE,FALSE,low_3_mask_low,0.75,-1,3,FALSE,8,,,,,,,,,,,,,,,,,,,165,2,3.2.2021,164.9519907
310,"['high', 3, 'high']",3,white,0.748497476,45,left,up,high,high,black_high_45-white_high_135-white_high_135-black_high_135,white_high_45_up,black_high_135_up,14,1.927617982,0.2488427,left,0.3767301,1,14,14,1,1,1,1,TRUE,FALSE,high_3_mask_high,0.75,-1,3,FALSE,5,,,,,,,,,,,,,,,,,,,165,2,3.2.2021,164.9519907
311,"['low', 2, 'low']",2,white,0.503419273,45,left,up,low,low,white_low_135-white_low_45-black_low_135-black_low_45,white_low_45_up,black_low_135_up,6,1.539999487,0.2503109,left,0.0897531,1,6,16,0,1,1,1,TRUE,FALSE,low_2_mask_low,0.75,-1,3,TRUE,8,,,,,,,,,,,,,,,,,,,165,2,3.2.2021,164.9519907
312,"['high', 3, 'low']",3,white,0.501857601,45,left,down,high,low,white_low_135-black_low_135-white_low_45-black_low_45,white_high_45_down,black_high_135_down,14,1.569312673,0.248547,left,0.3777665,1,14,14,0,1,1,1,TRUE,FALSE,high_3_mask_low,0.75,-1,3,TRUE,9,,,,,,,,,,,,,,,,,,,165,2,3.2.2021,164.9519907
313,"['med', 2, 'low']",2,white,0.053689944,45,left,down,med,low,black_low_135-black_low_45-white_low_135-white_low_45,white_med_45_down,black_med_135_down,10,1.271904444,0.2485437,left,0.1895421,1,10,18,1,1,1,1,TRUE,FALSE,med_2_mask_low,0.75,-1,3,FALSE,6,,,,,,,,,,,,,,,,,,,165,2,3.2.2021,164.9519907
314,"['high', 3, 'high']",3,white,0.91674183,45,left,up,high,high,white_high_135-black_high_45-black_high_135-white_high_135,white_high_45_up,black_high_135_up,13,1.107561269,0.2472595,left,0.1671249,1,13,15,1,1,1,1,TRUE,FALSE,high_3_mask_high,0.75,-1,3,FALSE,5,,,,,,,,,,,,,,,,,,,165,2,3.2.2021,164.9519907
315,"['med', 3, 'low']",3,white,0.559746444,135,right,up,med,low,black_low_135-white_low_135-black_low_45-white_low_45,white_med_135_up,black_med_45_up,11,1.369421244,0.2503012,left,0.0876364,0,11,21,1,1,1,1,TRUE,FALSE,med_3_mask_low,0.75,-1,3,TRUE,10,,,,,,,,,,,,,,,,,,,165,2,3.2.2021,164.9519907
316,"['med', 1, 'low']",1,black,0.046411866,45,right,up,med,low,white_low_45-black_low_45-white_low_135-black_low_135,black_med_45_up,white_med_135_up,13,1.044979558,0.248564,left,0.3525777,0,13,15,1,1,1,1,TRUE,FALSE,med_1_mask_low,0.75,-1,3,TRUE,9,,,,,,,,,,,,,,,,,,,165,2,3.2.2021,164.9519907
317,"['high', 2, 'low']",2,black,0.232238079,45,right,down,high,low,white_low_135-black_low_45-white_low_45-black_low_135,black_high_45_down,white_high_135_down,18,1.811663637,0.2485486,right,0.0521476,1,18,18,1,1,1,1,TRUE,FALSE,high_2_mask_low,0.75,-1,3,FALSE,10,,,,,,,,,,,,,,,,,,,165,2,3.2.2021,164.9519907
318,"['low', 3, 'low']",3,white,0.113968959,135,right,down,low,low,white_low_135-black_low_135-black_low_45-white_low_45,white_low_135_down,black_low_45_down,1,1.383485951,0.2485511,right,0.2119244,1,1,22,1,1,1,1,TRUE,FALSE,low_3_mask_low,0.75,-1,3,FALSE,8,,,,,,,,,,,,,,,,,,,165,2,3.2.2021,164.9519907
319,"['low', 3, 'low']",3,white,0.785693499,135,right,down,low,low,white_low_135-black_low_45-white_low_45-black_low_135,white_low_135_down,black_low_45_down,1,1.289896642,0.2485496,right,0.4397868,1,1,23,1,1,1,1,TRUE,FALSE,low_3_mask_low,0.75,-1,3,FALSE,8,,,,,,,,,,,,,,,,,,,165,2,3.2.2021,164.9519907
320,"['low', 2, 'high']",2,white,0.332368858,45,left,down,low,high,white_high_135-white_high_135-black_high_135-black_high_45,white_low_45_down,black_low_135_down,7,1.09931986,0.2485364,left,0.1431626,1,7,12,0,0,1,1,TRUE,FALSE,low_2_mask_high,0.75,-1,3,TRUE,5,,,,,,,,,,,,,,,,,,,165,2,3.2.2021,164.9519907
321,"['med', 3, 'low']",3,black,0.323054537,45,right,down,med,low,black_low_135-black_low_45-white_low_135-white_low_45,black_med_45_down,white_med_135_down,14,1.156303022,0.248558,right,0.351142,1,14,22,0,1,1,1,TRUE,FALSE,med_3_mask_low,0.75,-1,3,TRUE,11,,,,,,,,,,,,,,,,,,,165,2,3.2.2021,164.9519907
322,"['med', 1, 'low']",1,black,0.253861695,45,right,down,med,low,black_low_135-white_low_45-white_low_135-black_low_45,black_med_45_down,white_med_135_down,16,1.381512253,0.2485643,right,0.2056012,1,16,16,0,1,1,1,TRUE,FALSE,med_1_mask_low,0.75,-1,3,TRUE,10,,,,,,,,,,,,,,,,,,,165,2,3.2.2021,164.9519907
323,"['low', 3, 'high']",3,black,0.605409459,135,left,up,low,high,white_high_135-white_high_135-black_high_135-black_high_45,black_low_135_up,white_low_45_up,3,1.73266326,0.2485374,left,0.2006748,1,3,20,1,1,1,1,TRUE,FALSE,low_3_mask_high,0.75,-1,3,FALSE,8,,,,,,,,,,,,,,,,,,,165,2,3.2.2021,164.9519907
324,"['med', 1, 'low']",1,white,0.821271355,135,right,down,med,low,white_low_135-black_low_135-black_low_45-white_low_45,white_med_135_down,black_med_45_down,15,1.124382813,0.2502961,right,0.74497,1,15,17,1,1,1,1,TRUE,FALSE,med_1_mask_low,0.75,-1,3,FALSE,10,,,,,,,,,,,,,,,,,,,165,2,3.2.2021,164.9519907
325,"['med', 3, 'low']",3,white,0.418370141,45,left,up,med,low,white_low_45-black_low_45-white_low_135-black_low_135,white_med_45_up,black_med_135_up,13,1.599662541,0.2488412,left,0.1647471,1,13,23,1,1,1,1,TRUE,FALSE,med_3_mask_low,0.75,-1,3,FALSE,11,,,,,,,,,,,,,,,,,,,165,2,3.2.2021,164.9519907
