trial_number,trial_type,cycle_number,first_color,phase,first_orientation,correct_response,visual_field,spatial_frequency,mask_type,mask_images,first_stim,second_stim,stimulus_frame_duration,fixation_duration,mask_duration,answer,rt,accuracy,staircase_dv,staircase_trial_num,staircase_previous_correct,staircase_phase,staircase_step_size,staircase_powers_law,staircase_siam,staircase_over,staircase_name,staircase_conv_p,staircase_step_hit,staircase_step_miss,staircase_reversal,staircase_reversal_num,threshold_low1_mask_low,threshold_low2_mask_low,threshold_low3_mask_low,threshold_high1_mask_low,threshold_high2_mask_low,threshold_high3_mask_low,threshold_low1_mask_high,threshold_low2_mask_high,threshold_low3_mask_high,threshold_high1_mask_high,threshold_high2_mask_high,threshold_high3_mask_high,threshold_med1_mask_low,threshold_med2_mask_low,threshold_med3_mask_low,threshold_med1_mask_high,threshold_med2_mask_high,threshold_med3_mask_high,frame_rate,participant,psychopyVersion,frame_rate_detected
0,"['low', 3, 'high']",3,white,0.581515243,45,left,down,low,high,black_high_135-white_high_135-white_high_135-black_high_45,white_low_45_down,black_low_135_down,3,1.714085692,0.248537,right,0.4131659,0,3,0,None,0,1,1,TRUE,FALSE,low_3_mask_high,0.75,-1,3,FALSE,0,,,,,,,,,,,,,,,,,,,165,12,3.2.2021,164.9620587
1,"['high', 2, 'low']",2,black,0.012247098,45,right,down,high,low,white_low_135-white_low_45-black_low_45-black_low_135,black_high_45_down,white_high_135_down,8,1.617486614,0.2485413,left,0.1190828,0,8,0,None,0,1,1,TRUE,FALSE,high_2_mask_low,0.75,-1,3,FALSE,0,,,,,,,,,,,,,,,,,,,165,12,3.2.2021,164.9620587
2,"['high', 2, 'high']",2,white,0.494823424,45,left,down,high,high,white_high_135-white_high_135-black_high_135-black_high_45,white_high_45_down,black_high_135_down,8,1.044767481,0.2503441,left,0.0621037,1,8,0,None,0,1,1,TRUE,FALSE,high_2_mask_high,0.75,-1,3,FALSE,0,,,,,,,,,,,,,,,,,,,165,12,3.2.2021,164.9620587
3,"['high', 3, 'low']",3,black,0.102399581,45,right,up,high,low,black_low_135-white_low_135-white_low_45-black_low_45,black_high_45_up,white_high_135_up,8,1.809224739,0.2485318,left,0.0739651,0,8,0,None,0,1,1,TRUE,FALSE,high_3_mask_low,0.75,-1,3,FALSE,0,,,,,,,,,,,,,,,,,,,165,12,3.2.2021,164.9620587
4,"['high', 2, 'high']",2,white,0.429063258,45,left,up,high,high,black_high_45-white_high_135-black_high_135-white_high_135,white_high_45_up,black_high_135_up,7,1.640030748,0.2502938,left,1.7259456,1,7,1,1,0,1,1,TRUE,FALSE,high_2_mask_high,0.75,-1,3,FALSE,0,,,,,,,,,,,,,,,,,,,165,12,3.2.2021,164.9620587
5,"['high', 3, 'low']",3,white,0.546664925,45,left,down,high,low,white_low_45-black_low_135-black_low_45-white_low_135,white_high_45_down,black_high_135_down,11,1.169028831,0.2485433,left,0.0514605,1,11,1,0,0,1,1,TRUE,FALSE,high_3_mask_low,0.75,-1,3,TRUE,1,,,,,,,,,,,,,,,,,,,165,12,3.2.2021,164.9620587
6,"['med', 3, 'low']",3,white,0.426988674,45,left,down,med,low,white_low_135-white_low_45-black_low_135-black_low_45,white_med_45_down,black_med_135_down,8,1.770661689,0.2485613,left,1.113013,1,8,0,None,0,1,1,TRUE,FALSE,med_3_mask_low,0.75,-1,3,FALSE,0,,,,,,,,,,,,,,,,,,,165,12,3.2.2021,164.9620587
7,"['low', 3, 'low']",3,black,0.604886621,135,left,down,low,low,black_low_45-black_low_135-white_low_45-white_low_135,black_low_135_down,white_low_45_down,3,1.94821154,0.2450572,left,0.0383121,1,3,0,None,0,1,1,TRUE,FALSE,low_3_mask_low,0.75,-1,3,FALSE,0,,,,,,,,,,,,,,,,,,,165,12,3.2.2021,164.9620587
8,"['low', 2, 'high']",2,white,0.809910509,135,right,down,low,high,black_high_135-white_high_135-white_high_135-black_high_45,white_low_135_down,black_low_45_down,3,1.994885589,0.2485375,left,0.1925431,0,3,0,None,0,1,1,TRUE,FALSE,low_2_mask_high,0.75,-1,3,FALSE,0,,,,,,,,,,,,,,,,,,,165,12,3.2.2021,164.9620587
9,"['high', 3, 'low']",3,white,0.414930232,45,left,down,high,low,white_low_45-white_low_135-black_low_45-black_low_135,white_high_45_down,black_high_135_down,10,1.765372064,0.2485365,left,0.8835413,1,10,2,1,0,1,1,TRUE,FALSE,high_3_mask_low,0.75,-1,3,FALSE,1,,,,,,,,,,,,,,,,,,,165,12,3.2.2021,164.9620587
10,"['low', 1, 'low']",1,white,0.151523282,45,left,down,low,low,black_low_135-white_low_45-white_low_135-black_low_45,white_low_45_down,black_low_135_down,8,1.836082447,0.246716,left,0.6806356,1,8,0,None,0,1,1,TRUE,FALSE,low_1_mask_low,0.75,-1,3,FALSE,0,,,,,,,,,,,,,,,,,,,165,12,3.2.2021,164.9620587
11,"['low', 3, 'low']",3,white,0.393864372,45,left,down,low,low,black_low_135-black_low_45-white_low_45-white_low_135,white_low_45_down,black_low_135_down,2,1.393406805,0.2467304,left,0.4841413,1,2,1,1,0,1,1,TRUE,FALSE,low_3_mask_low,0.75,-1,3,FALSE,0,,,,,,,,,,,,,,,,,,,165,12,3.2.2021,164.9620587
12,"['low', 2, 'low']",2,black,0.731023836,45,right,down,low,low,black_low_135-white_low_45-black_low_45-white_low_135,black_low_45_down,white_low_135_down,3,1.996320591,0.2485265,left,1.0671501,0,3,0,None,0,1,1,TRUE,FALSE,low_2_mask_low,0.75,-1,3,FALSE,0,,,,,,,,,,,,,,,,,,,165,12,3.2.2021,164.9620587
13,"['low', 3, 'high']",3,white,0.817479893,135,right,up,low,high,black_high_135-white_high_135-white_high_135-black_high_45,white_low_135_up,black_low_45_up,6,1.456277067,0.2485458,right,0.6083393,1,6,1,0,0,1,1,TRUE,FALSE,low_3_mask_high,0.75,-1,3,TRUE,1,,,,,,,,,,,,,,,,,,,165,12,3.2.2021,164.9620587
14,"['low', 2, 'low']",2,black,0.687209165,45,right,down,low,low,white_low_45-black_low_135-white_low_135-black_low_45,black_low_45_down,white_low_135_down,6,1.090603655,0.2503049,left,0.3697835,0,6,1,0,0,1,1,TRUE,FALSE,low_2_mask_low,0.75,-1,3,FALSE,0,,,,,,,,,,,,,,,,,,,165,12,3.2.2021,164.9620587
15,"['low', 3, 'low']",3,white,0.831282358,135,right,up,low,low,black_low_135-black_low_45-white_low_135-white_low_45,white_low_135_up,black_low_45_up,1,1.161253709,0.2485448,right,0.5731363,1,1,2,1,0,1,1,TRUE,FALSE,low_3_mask_low,0.75,-1,3,FALSE,0,,,,,,,,,,,,,,,,,,,165,12,3.2.2021,164.9620587
16,"['med', 2, 'low']",2,black,0.279038153,45,right,down,med,low,white_low_135-white_low_45-black_low_135-black_low_45,black_med_45_down,white_med_135_down,8,1.336595035,0.2485455,left,0.1439796,0,8,0,None,0,1,1,TRUE,FALSE,med_2_mask_low,0.75,-1,3,FALSE,0,,,,,,,,,,,,,,,,,,,165,12,3.2.2021,164.9620587
17,"['high', 2, 'low']",2,black,0.016416752,45,right,up,high,low,black_low_45-white_low_45-black_low_135-white_low_135,black_high_45_up,white_high_135_up,11,1.090023851,0.2485482,right,0.3600735,1,11,1,0,0,1,1,TRUE,FALSE,high_2_mask_low,0.75,-1,3,TRUE,1,,,,,,,,,,,,,,,,,,,165,12,3.2.2021,164.9620587
18,"['high', 2, 'high']",2,black,0.605963929,45,right,down,high,high,white_high_135-black_high_45-black_high_135-white_high_135,black_high_45_down,white_high_135_down,6,1.95701193,0.2467688,right,0.7642249,1,6,2,1,0,1,1,TRUE,FALSE,high_2_mask_high,0.75,-1,3,FALSE,0,,,,,,,,,,,,,,,,,,,165,12,3.2.2021,164.9620587
19,"['low', 2, 'high']",2,black,0.019614912,45,right,down,low,high,white_high_135-black_high_135-black_high_45-white_high_135,black_low_45_down,white_low_135_down,6,1.321537706,0.246785,left,0.288808,0,6,1,0,0,1,1,TRUE,FALSE,low_2_mask_high,0.75,-1,3,FALSE,0,,,,,,,,,,,,,,,,,,,165,12,3.2.2021,164.9620587
20,"['high', 3, 'low']",3,black,0.451127953,45,right,up,high,low,black_low_135-white_low_45-black_low_45-white_low_135,black_high_45_up,white_high_135_up,9,1.877685274,0.2485487,right,2.1211254,1,9,3,1,0,1,1,TRUE,FALSE,high_3_mask_low,0.75,-1,3,FALSE,1,,,,,,,,,,,,,,,,,,,165,12,3.2.2021,164.9620587
21,"['low', 3, 'low']",3,white,0.258069699,135,right,down,low,low,black_low_135-white_low_45-black_low_45-white_low_135,white_low_135_down,black_low_45_down,1,1.190868473,0.2467305,left,0.1003457,0,1,3,1,0,1,1,TRUE,FALSE,low_3_mask_low,0.75,-1,3,TRUE,1,,,,,,,,,,,,,,,,,,,165,12,3.2.2021,164.9620587
22,"['low', 2, 'high']",2,black,0.735310196,135,left,up,low,high,white_high_135-black_high_135-white_high_135-black_high_45,black_low_135_up,white_low_45_up,9,1.930911915,0.2502977,right,1.8752984,0,9,2,0,0,1,1,TRUE,FALSE,low_2_mask_high,0.75,-1,3,FALSE,0,,,,,,,,,,,,,,,,,,,165,12,3.2.2021,164.9620587
23,"['low', 2, 'low']",2,white,0.71669729,45,left,down,low,low,black_low_45-black_low_135-white_low_135-white_low_45,white_low_45_down,black_low_135_down,9,1.834445694,0.2449976,left,5.0663353,1,9,2,0,0,1,1,TRUE,FALSE,low_2_mask_low,0.75,-1,3,TRUE,1,,,,,,,,,,,,,,,,,,,165,12,3.2.2021,164.9620587
24,"['high', 3, 'high']",3,white,0.940555365,45,left,down,high,high,white_high_135-white_high_135-black_high_45-black_high_135,white_high_45_down,black_high_135_down,8,1.299815625,0.2500147,left,0.0823603,1,8,0,None,0,1,1,TRUE,FALSE,high_3_mask_high,0.75,-1,3,FALSE,0,,,,,,,,,,,,,,,,,,,165,12,3.2.2021,164.9620587
25,"['low', 2, 'high']",2,white,0.725302817,45,left,down,low,high,white_high_135-black_high_135-white_high_135-black_high_45,white_low_45_down,black_low_135_down,12,1.627364461,0.2485378,left,1.9638258,1,12,3,0,0,1,1,TRUE,FALSE,low_2_mask_high,0.75,-1,3,TRUE,1,,,,,,,,,,,,,,,,,,,165,12,3.2.2021,164.9620587
26,"['low', 1, 'high']",1,white,0.095411821,135,right,up,low,high,white_high_135-black_high_135-white_high_135-black_high_45,white_low_135_up,black_low_45_up,8,1.188597489,0.2482051,right,0.0783304,1,8,0,None,0,1,1,TRUE,FALSE,low_1_mask_high,0.75,-1,3,FALSE,0,,,,,,,,,,,,,,,,,,,165,12,3.2.2021,164.9620587
27,"['low', 3, 'low']",3,black,0.27978771,45,right,down,low,low,black_low_45-white_low_45-black_low_135-white_low_135,black_low_45_down,white_low_135_down,4,1.671874864,0.2502984,left,0.0101535,0,4,4,0,0,1,1,TRUE,FALSE,low_3_mask_low,0.75,-1,3,FALSE,1,,,,,,,,,,,,,,,,,,,165,12,3.2.2021,164.9620587
28,"['med', 1, 'high']",1,white,0.824130722,45,left,up,med,high,white_high_135-black_high_45-white_high_135-black_high_135,white_med_45_up,black_med_135_up,12,1.547728965,0.2502885,right,0.2519013,0,12,0,None,0,1,1,TRUE,FALSE,med_1_mask_high,0.75,-1,3,FALSE,0,,,,,,,,,,,,,,,,,,,165,12,3.2.2021,164.9620587
29,"['low', 3, 'low']",3,black,0.688169714,135,left,up,low,low,black_low_45-white_low_135-white_low_45-black_low_135,black_low_135_up,white_low_45_up,7,1.045704943,0.2485338,right,2.9143047,0,7,5,0,0,1,1,TRUE,FALSE,low_3_mask_low,0.75,-1,3,FALSE,1,,,,,,,,,,,,,,,,,,,165,12,3.2.2021,164.9620587
30,"['low', 3, 'high']",3,black,0.466137427,135,left,down,low,high,black_high_45-white_high_135-black_high_135-white_high_135,black_low_135_down,white_low_45_down,5,1.122391247,0.2485568,right,0.855171,0,5,2,1,0,1,1,TRUE,FALSE,low_3_mask_high,0.75,-1,3,TRUE,2,,,,,,,,,,,,,,,,,,,165,12,3.2.2021,164.9620587
31,"['med', 2, 'high']",2,black,0.537085869,135,left,up,med,high,black_high_45-white_high_135-black_high_135-white_high_135,black_med_135_up,white_med_45_up,8,1.225202118,0.2485424,right,0.5831324,0,8,0,None,0,1,1,TRUE,FALSE,med_2_mask_high,0.75,-1,3,FALSE,0,,,,,,,,,,,,,,,,,,,165,12,3.2.2021,164.9620587
32,"['high', 1, 'low']",1,white,0.108822136,45,left,up,high,low,white_low_135-black_low_45-black_low_135-white_low_45,white_high_45_up,black_high_135_up,12,1.708005585,0.2466987,left,0.2052224,1,12,0,None,0,1,1,TRUE,FALSE,high_1_mask_low,0.75,-1,3,FALSE,0,,,,,,,,,,,,,,,,,,,165,12,3.2.2021,164.9620587
33,"['low', 2, 'high']",2,white,0.956845183,45,left,down,low,high,black_high_45-black_high_135-white_high_135-white_high_135,white_low_45_down,black_low_135_down,11,1.871764805,0.2485457,left,0.0389268,1,11,4,1,0,1,1,TRUE,FALSE,low_2_mask_high,0.75,-1,3,FALSE,1,,,,,,,,,,,,,,,,,,,165,12,3.2.2021,164.9620587
34,"['med', 3, 'high']",3,white,0.996011407,135,right,down,med,high,white_high_135-black_high_135-black_high_45-white_high_135,white_med_135_down,black_med_45_down,8,1.454171774,0.248548,right,2.8203718,1,8,0,None,0,1,1,TRUE,FALSE,med_3_mask_high,0.75,-1,3,FALSE,0,,,,,,,,,,,,,,,,,,,165,12,3.2.2021,164.9620587
35,"['high', 3, 'low']",3,black,0.01354017,45,right,down,high,low,white_low_135-black_low_45-black_low_135-white_low_45,black_high_45_down,white_high_135_down,8,1.398284138,0.2500053,left,0.0144395,0,8,4,1,0,1,1,TRUE,FALSE,high_3_mask_low,0.75,-1,3,TRUE,2,,,,,,,,,,,,,,,,,,,165,12,3.2.2021,164.9620587
36,"['low', 2, 'high']",2,black,0.72942743,135,left,up,low,high,white_high_135-black_high_135-black_high_45-white_high_135,black_low_135_up,white_low_45_up,10,1.932726623,0.2485486,right,1.3572115,0,10,5,1,0,1,1,TRUE,FALSE,low_2_mask_high,0.75,-1,3,TRUE,2,,,,,,,,,,,,,,,,,,,165,12,3.2.2021,164.9620587
37,"['med', 3, 'high']",3,white,0.178950293,45,left,down,med,high,black_high_135-black_high_45-white_high_135-white_high_135,white_med_45_down,black_med_135_down,7,1.030185604,0.2485504,left,1.4574775,1,7,1,1,0,1,1,TRUE,FALSE,med_3_mask_high,0.75,-1,3,FALSE,0,,,,,,,,,,,,,,,,,,,165,12,3.2.2021,164.9620587
38,"['med', 1, 'low']",1,black,0.293632781,45,right,up,med,low,black_low_135-white_low_135-black_low_45-white_low_45,black_med_45_up,white_med_135_up,12,1.70533481,0.2466961,left,2.5029304,0,12,0,None,0,1,1,TRUE,FALSE,med_1_mask_low,0.75,-1,3,FALSE,0,,,,,,,,,,,,,,,,,,,165,12,3.2.2021,164.9620587
39,"['high', 3, 'low']",3,black,0.9998151,45,right,down,high,low,black_low_135-white_low_135-white_low_45-black_low_45,black_high_45_down,white_high_135_down,11,1.126678878,0.2503221,left,1.3433783,0,11,5,0,0,1,1,TRUE,FALSE,high_3_mask_low,0.75,-1,3,FALSE,2,,,,,,,,,,,,,,,,,,,165,12,3.2.2021,164.9620587
40,"['high', 1, 'low']",1,white,0.521976671,135,right,up,high,low,black_low_45-black_low_135-white_low_135-white_low_45,white_high_135_up,black_high_45_up,11,1.569433521,0.2467036,left,0.9574913,0,11,1,1,0,1,1,TRUE,FALSE,high_1_mask_low,0.75,-1,3,TRUE,1,,,,,,,,,,,,,,,,,,,165,12,3.2.2021,164.9620587
41,"['low', 3, 'high']",3,black,0.276139161,135,left,up,low,high,black_high_135-white_high_135-black_high_45-white_high_135,black_low_135_up,white_low_45_up,8,1.676723646,0.2485385,left,0.7571948,1,8,3,0,0,1,1,TRUE,FALSE,low_3_mask_high,0.75,-1,3,TRUE,3,,,,,,,,,,,,,,,,,,,165,12,3.2.2021,164.9620587
42,"['med', 3, 'high']",3,white,0.600452102,45,left,up,med,high,black_high_45-white_high_135-white_high_135-black_high_135,white_med_45_up,black_med_135_up,6,1.233122162,0.2485534,left,0.6550366,1,6,2,1,0,1,1,TRUE,FALSE,med_3_mask_high,0.75,-1,3,FALSE,0,,,,,,,,,,,,,,,,,,,165,12,3.2.2021,164.9620587
43,"['high', 3, 'low']",3,white,0.610893508,135,right,down,high,low,white_low_135-black_low_45-black_low_135-white_low_45,white_high_135_down,black_high_45_down,14,1.479846066,0.2485492,right,0.5035837,1,14,6,0,0,1,1,TRUE,FALSE,high_3_mask_low,0.75,-1,3,TRUE,3,,,,,,,,,,,,,,,,,,,165,12,3.2.2021,164.9620587
44,"['med', 1, 'low']",1,black,0.929675492,135,left,up,med,low,white_low_135-black_low_45-black_low_135-white_low_45,black_med_135_up,white_med_45_up,15,1.822045551,0.24855,right,0.5740137,0,15,1,0,0,1,1,TRUE,FALSE,med_1_mask_low,0.75,-1,3,FALSE,0,,,,,,,,,,,,,,,,,,,165,12,3.2.2021,164.9620587
45,"['high', 1, 'low']",1,black,0.574298268,45,right,up,high,low,white_low_45-black_low_135-black_low_45-white_low_135,black_high_45_up,white_high_135_up,14,1.217478385,0.2485972,left,0.7615197,0,14,2,0,0,1,1,TRUE,FALSE,high_1_mask_low,0.75,-1,3,FALSE,1,,,,,,,,,,,,,,,,,,,165,12,3.2.2021,164.9620587
46,"['high', 3, 'high']",3,black,0.923907534,135,left,down,high,high,black_high_45-white_high_135-white_high_135-black_high_135,black_high_135_down,white_high_45_down,7,1.495485992,0.2485413,right,0.4512628,0,7,1,1,0,1,1,TRUE,FALSE,high_3_mask_high,0.75,-1,3,TRUE,1,,,,,,,,,,,,,,,,,,,165,12,3.2.2021,164.9620587
47,"['high', 2, 'low']",2,black,0.89601552,135,left,up,high,low,black_low_45-white_low_45-white_low_135-black_low_135,black_high_135_up,white_high_45_up,10,1.932797594,0.2485433,right,0.0432684,0,10,2,1,0,1,1,TRUE,FALSE,high_2_mask_low,0.75,-1,3,TRUE,2,,,,,,,,,,,,,,,,,,,165,12,3.2.2021,164.9620587
48,"['high', 3, 'low']",3,black,0.492594398,45,right,up,high,low,white_low_45-white_low_135-black_low_45-black_low_135,black_high_45_up,white_high_135_up,13,1.896569285,0.2485607,right,0.0971222,1,13,7,1,0,1,1,TRUE,FALSE,high_3_mask_low,0.75,-1,3,FALSE,3,,,,,,,,,,,,,,,,,,,165,12,3.2.2021,164.9620587
49,"['low', 3, 'low']",3,white,0.772140227,135,right,up,low,low,black_low_135-black_low_45-white_low_135-white_low_45,white_low_135_up,black_low_45_up,10,1.296501558,0.2484662,right,1.5104425,1,10,6,0,0,1,1,TRUE,FALSE,low_3_mask_low,0.75,-1,3,TRUE,2,,,,,,,,,,,,,,,,,,,165,12,3.2.2021,164.9620587
50,"['high', 1, 'high']",1,white,0.364169953,135,right,up,high,high,white_high_135-black_high_45-white_high_135-black_high_135,white_high_135_up,black_high_45_up,12,1.588503521,0.2503405,right,1.129531,1,12,0,None,0,1,1,TRUE,FALSE,high_1_mask_high,0.75,-1,3,FALSE,0,,,,,,,,,,,,,,,,,,,165,12,3.2.2021,164.9620587
51,"['high', 2, 'high']",2,black,0.392304505,135,left,down,high,high,white_high_135-black_high_45-white_high_135-black_high_135,black_high_135_down,white_high_45_down,5,1.728846335,0.24674,right,0.6874527,0,5,3,1,0,1,1,TRUE,FALSE,high_2_mask_high,0.75,-1,3,TRUE,1,,,,,,,,,,,,,,,,,,,165,12,3.2.2021,164.9620587
52,"['high', 3, 'high']",3,white,0.921010458,135,right,up,high,high,black_high_45-white_high_135-black_high_135-white_high_135,white_high_135_up,black_high_45_up,10,1.626924356,0.2503169,right,0.5174553,1,10,2,0,0,1,1,TRUE,FALSE,high_3_mask_high,0.75,-1,3,TRUE,2,,,,,,,,,,,,,,,,,,,165,12,3.2.2021,164.9620587
53,"['low', 1, 'low']",1,white,0.787659909,135,right,down,low,low,white_low_45-black_low_45-white_low_135-black_low_135,white_low_135_down,black_low_45_down,7,1.027257505,0.248545,right,0.7255517,1,7,1,1,0,1,1,TRUE,FALSE,low_1_mask_low,0.75,-1,3,FALSE,0,,,,,,,,,,,,,,,,,,,165,12,3.2.2021,164.9620587
54,"['med', 2, 'low']",2,black,0.844628482,135,left,down,med,low,black_low_135-white_low_45-black_low_45-white_low_135,black_med_135_down,white_med_45_down,11,1.660040069,0.2467412,right,1.3656054,0,11,1,0,0,1,1,TRUE,FALSE,med_2_mask_low,0.75,-1,3,FALSE,0,,,,,,,,,,,,,,,,,,,165,12,3.2.2021,164.9620587
55,"['high', 2, 'low']",2,white,0.894294038,135,right,down,high,low,white_low_135-black_low_45-black_low_135-white_low_45,white_high_135_down,black_high_45_down,13,1.059886828,0.2485425,right,0.8577466,1,13,3,0,0,1,1,TRUE,FALSE,high_2_mask_low,0.75,-1,3,TRUE,3,,,,,,,,,,,,,,,,,,,165,12,3.2.2021,164.9620587
56,"['high', 1, 'high']",1,black,0.075947102,45,right,up,high,high,white_high_135-black_high_45-white_high_135-black_high_135,black_high_45_up,white_high_135_up,11,1.810191926,0.2467596,right,1.0039729,1,11,1,1,0,1,1,TRUE,FALSE,high_1_mask_high,0.75,-1,3,FALSE,0,,,,,,,,,,,,,,,,,,,165,12,3.2.2021,164.9620587
57,"['med', 3, 'low']",3,black,0.524049528,45,right,down,med,low,black_low_45-white_low_135-black_low_135-white_low_45,black_med_45_down,white_med_135_down,7,1.312953633,0.2485484,right,0.730053,1,7,1,1,0,1,1,TRUE,FALSE,med_3_mask_low,0.75,-1,3,FALSE,0,,,,,,,,,,,,,,,,,,,165,12,3.2.2021,164.9620587
58,"['high', 3, 'high']",3,black,0.024024924,45,right,up,high,high,black_high_135-white_high_135-white_high_135-black_high_45,black_high_45_up,white_high_135_up,9,1.075669992,0.2485559,right,0.7011987,1,9,3,1,0,1,1,TRUE,FALSE,high_3_mask_high,0.75,-1,3,FALSE,2,,,,,,,,,,,,,,,,,,,165,12,3.2.2021,164.9620587
59,"['high', 3, 'high']",3,white,0.537849814,135,right,up,high,high,black_high_135-black_high_45-white_high_135-white_high_135,white_high_135_up,black_high_45_up,8,1.780598271,0.248562,right,0.5073784,1,8,4,1,0,1,1,TRUE,FALSE,high_3_mask_high,0.75,-1,3,FALSE,2,,,,,,,,,,,,,,,,,,,165,12,3.2.2021,164.9620587
60,"['med', 3, 'low']",3,white,0.456306773,135,right,up,med,low,black_low_135-white_low_45-white_low_135-black_low_45,white_med_135_up,black_med_45_up,6,1.908474376,0.2485529,right,0.5304333,1,6,2,1,0,1,1,TRUE,FALSE,med_3_mask_low,0.75,-1,3,FALSE,0,,,,,,,,,,,,,,,,,,,165,12,3.2.2021,164.9620587
61,"['low', 2, 'low']",2,black,0.579175544,45,right,down,low,low,white_low_45-white_low_135-black_low_135-black_low_45,black_low_45_down,white_low_135_down,8,1.028367409,0.2485485,right,0.7631281,1,8,3,1,0,1,1,TRUE,FALSE,low_2_mask_low,0.75,-1,3,FALSE,1,,,,,,,,,,,,,,,,,,,165,12,3.2.2021,164.9620587
62,"['med', 2, 'high']",2,white,0.783016453,45,left,up,med,high,white_high_135-black_high_135-white_high_135-black_high_45,white_med_45_up,black_med_135_up,11,1.350999754,0.2502896,left,0.7862067,1,11,1,0,0,1,1,TRUE,FALSE,med_2_mask_high,0.75,-1,3,TRUE,1,,,,,,,,,,,,,,,,,,,165,12,3.2.2021,164.9620587
63,"['high', 2, 'low']",2,black,0.371113104,45,right,down,high,low,black_low_135-black_low_45-white_low_45-white_low_135,black_high_45_down,white_high_135_down,12,1.098291949,0.2485551,left,1.4234265,0,12,4,1,0,1,1,TRUE,FALSE,high_2_mask_low,0.75,-1,3,TRUE,4,,,,,,,,,,,,,,,,,,,165,12,3.2.2021,164.9620587
64,"['high', 1, 'low']",1,black,0.738426511,135,left,down,high,low,white_low_45-white_low_135-black_low_45-black_low_135,black_high_135_down,white_high_45_down,17,1.402922128,0.2485475,right,1.061937,0,17,3,0,0,1,1,TRUE,FALSE,high_1_mask_low,0.75,-1,3,FALSE,1,,,,,,,,,,,,,,,,,,,165,12,3.2.2021,164.9620587
65,"['high', 1, 'high']",1,white,0.888550767,45,left,down,high,high,black_high_135-white_high_135-black_high_45-white_high_135,white_high_45_down,black_high_135_down,10,1.280147266,0.2485523,right,0.3687955,0,10,2,1,0,1,1,TRUE,FALSE,high_1_mask_high,0.75,-1,3,TRUE,1,,,,,,,,,,,,,,,,,,,165,12,3.2.2021,164.9620587
66,"['med', 2, 'high']",2,black,0.35752346,45,right,up,med,high,black_high_135-white_high_135-white_high_135-black_high_45,black_med_45_up,white_med_135_up,10,1.01772529,0.2485009,right,0.340441,1,10,2,1,0,1,1,TRUE,FALSE,med_2_mask_high,0.75,-1,3,FALSE,1,,,,,,,,,,,,,,,,,,,165,12,3.2.2021,164.9620587
67,"['med', 1, 'high']",1,black,0.79093324,45,right,up,med,high,white_high_135-black_high_45-white_high_135-black_high_135,black_med_45_up,white_med_135_up,15,1.124891493,0.2485508,right,0.3318266,1,15,1,0,0,1,1,TRUE,FALSE,med_1_mask_high,0.75,-1,3,TRUE,1,,,,,,,,,,,,,,,,,,,165,12,3.2.2021,164.9620587
68,"['low', 3, 'low']",3,black,0.00565823,135,left,up,low,low,white_low_135-white_low_45-black_low_45-black_low_135,black_low_135_up,white_low_45_up,9,1.075504804,0.2485368,left,0.6864352,1,9,7,1,0,1,1,TRUE,FALSE,low_3_mask_low,0.75,-1,3,FALSE,2,,,,,,,,,,,,,,,,,,,165,12,3.2.2021,164.9620587
69,"['med', 2, 'low']",2,white,0.452331813,135,right,down,med,low,black_low_135-white_low_135-black_low_45-white_low_45,white_med_135_down,black_med_45_down,14,1.491217811,0.2467736,right,0.4685653,1,14,2,0,0,1,1,TRUE,FALSE,med_2_mask_low,0.75,-1,3,TRUE,1,,,,,,,,,,,,,,,,,,,165,12,3.2.2021,164.9620587
70,"['med', 3, 'low']",3,white,0.807438666,45,left,up,med,low,black_low_45-white_low_45-black_low_135-white_low_135,white_med_45_up,black_med_135_up,5,1.585651845,0.2485378,right,0.4325602,0,5,3,1,0,1,1,TRUE,FALSE,med_3_mask_low,0.75,-1,3,TRUE,1,,,,,,,,,,,,,,,,,,,165,12,3.2.2021,164.9620587
71,"['high', 1, 'high']",1,white,0.700760558,45,left,up,high,high,white_high_135-white_high_135-black_high_45-black_high_135,white_high_45_up,black_high_135_up,13,1.025156112,0.2468664,right,0.4538699,0,13,3,0,0,1,1,TRUE,FALSE,high_1_mask_high,0.75,-1,3,FALSE,1,,,,,,,,,,,,,,,,,,,165,12,3.2.2021,164.9620587
72,"['med', 2, 'high']",2,white,0.598135003,135,right,up,med,high,white_high_135-white_high_135-black_high_135-black_high_45,white_med_135_up,black_med_45_up,9,1.410465593,0.2467727,right,0.2892371,1,9,3,1,0,1,1,TRUE,FALSE,med_2_mask_high,0.75,-1,3,FALSE,1,,,,,,,,,,,,,,,,,,,165,12,3.2.2021,164.9620587
73,"['high', 1, 'low']",1,white,0.429650021,135,right,up,high,low,black_low_135-white_low_135-black_low_45-white_low_45,white_high_135_up,black_high_45_up,20,1.649854506,0.246782,right,0.5334171,1,20,4,0,0,1,1,TRUE,FALSE,high_1_mask_low,0.75,-1,3,TRUE,2,,,,,,,,,,,,,,,,,,,165,12,3.2.2021,164.9620587
74,"['low', 1, 'low']",1,black,0.559396573,135,left,down,low,low,white_low_45-black_low_135-black_low_45-white_low_135,black_low_135_down,white_low_45_down,6,1.127001672,0.2485437,right,0.5406222,0,6,2,1,0,1,1,TRUE,FALSE,low_1_mask_low,0.75,-1,3,TRUE,1,,,,,,,,,,,,,,,,,,,165,12,3.2.2021,164.9620587
75,"['med', 2, 'high']",2,white,0.369897951,135,right,up,med,high,black_high_135-white_high_135-white_high_135-black_high_45,white_med_135_up,black_med_45_up,8,1.65002106,0.2485485,right,1.4469959,1,8,4,1,0,1,1,TRUE,FALSE,med_2_mask_high,0.75,-1,3,FALSE,1,,,,,,,,,,,,,,,,,,,165,12,3.2.2021,164.9620587
76,"['med', 2, 'low']",2,black,0.049408954,135,left,down,med,low,black_low_45-white_low_135-black_low_135-white_low_45,black_med_135_down,white_med_45_down,13,1.661689578,0.248554,left,0.9486543,1,13,3,1,0,1,1,TRUE,FALSE,med_2_mask_low,0.75,-1,3,FALSE,1,,,,,,,,,,,,,,,,,,,165,12,3.2.2021,164.9620587
77,"['low', 2, 'low']",2,white,0.397130671,45,left,up,low,low,white_low_135-white_low_45-black_low_45-black_low_135,white_low_45_up,black_low_135_up,7,1.870685878,0.2485379,left,1.016234,1,7,4,1,0,1,1,TRUE,FALSE,low_2_mask_low,0.75,-1,3,FALSE,1,,,,,,,,,,,,,,,,,,,165,12,3.2.2021,164.9620587
78,"['med', 1, 'high']",1,black,0.944572738,45,right,down,med,high,white_high_135-black_high_45-black_high_135-white_high_135,black_med_45_down,white_med_135_down,14,1.159744996,0.2466784,left,0.6396127,0,14,2,1,0,1,1,TRUE,FALSE,med_1_mask_high,0.75,-1,3,TRUE,2,,,,,,,,,,,,,,,,,,,165,12,3.2.2021,164.9620587
79,"['high', 3, 'low']",3,black,0.924699499,135,left,up,high,low,black_low_45-white_low_45-white_low_135-black_low_135,black_high_135_up,white_high_45_up,12,1.496867135,0.2485414,left,0.6844787,1,12,8,1,0,1,1,TRUE,FALSE,high_3_mask_low,0.75,-1,3,FALSE,3,,,,,,,,,,,,,,,,,,,165,12,3.2.2021,164.9620587
80,"['high', 1, 'high']",1,black,0.215365441,135,left,down,high,high,white_high_135-white_high_135-black_high_135-black_high_45,black_high_135_down,white_high_45_down,16,1.813770279,0.2485427,right,0.4021465,0,16,4,0,0,1,1,TRUE,FALSE,high_1_mask_high,0.75,-1,3,FALSE,1,,,,,,,,,,,,,,,,,,,165,12,3.2.2021,164.9620587
81,"['med', 3, 'high']",3,white,0.258513672,135,right,down,med,high,black_high_45-black_high_135-white_high_135-white_high_135,white_med_135_down,black_med_45_down,5,1.706910825,0.2469935,right,0.0510571,1,5,3,1,0,1,1,TRUE,FALSE,med_3_mask_high,0.75,-1,3,FALSE,0,,,,,,,,,,,,,,,,,,,165,12,3.2.2021,164.9620587
82,"['high', 3, 'high']",3,black,0.65057687,135,left,up,high,high,white_high_135-black_high_135-white_high_135-black_high_45,black_high_135_up,white_high_45_up,7,1.688910011,0.2485461,left,0.6434857,1,7,5,1,0,1,1,TRUE,FALSE,high_3_mask_high,0.75,-1,3,FALSE,2,,,,,,,,,,,,,,,,,,,165,12,3.2.2021,164.9620587
83,"['low', 3, 'low']",3,white,0.101124097,135,right,down,low,low,black_low_135-white_low_135-black_low_45-white_low_45,white_low_135_down,black_low_45_down,8,1.634809042,0.2467561,right,1.1260144,1,8,8,1,0,1,1,TRUE,FALSE,low_3_mask_low,0.75,-1,3,FALSE,2,,,,,,,,,,,,,,,,,,,165,12,3.2.2021,164.9620587
84,"['high', 3, 'high']",3,white,0.076959096,135,right,up,high,high,white_high_135-white_high_135-black_high_45-black_high_135,white_high_135_up,black_high_45_up,6,1.355173767,0.2485491,left,0.7664729,0,6,6,1,0,1,1,TRUE,FALSE,high_3_mask_high,0.75,-1,3,TRUE,3,,,,,,,,,,,,,,,,,,,165,12,3.2.2021,164.9620587
85,"['low', 1, 'low']",1,white,0.186618718,135,right,up,low,low,white_low_135-black_low_45-white_low_45-black_low_135,white_low_135_up,black_low_45_up,9,1.929608033,0.246709,left,0.1562312,0,9,3,0,0,1,1,TRUE,FALSE,low_1_mask_low,0.75,-1,3,FALSE,1,,,,,,,,,,,,,,,,,,,165,12,3.2.2021,164.9620587
86,"['med', 1, 'low']",1,white,0.131838426,135,right,up,med,low,black_low_135-white_low_135-black_low_45-white_low_45,white_med_135_up,black_med_45_up,18,1.908044509,0.2485559,left,3.0807373,0,18,2,0,0,1,1,TRUE,FALSE,med_1_mask_low,0.75,-1,3,FALSE,0,,,,,,,,,,,,,,,,,,,165,12,3.2.2021,164.9620587
87,"['high', 3, 'high']",3,black,0.742974041,135,left,down,high,high,white_high_135-white_high_135-black_high_45-black_high_135,black_high_135_down,white_high_45_down,9,1.997152594,0.2485571,left,0.713548,1,9,7,0,0,1,1,TRUE,FALSE,high_3_mask_high,0.75,-1,3,TRUE,4,,,,,,,,,,,,,,,,,,,165,12,3.2.2021,164.9620587
88,"['med', 2, 'high']",2,black,0.793421074,135,left,up,med,high,black_high_45-white_high_135-white_high_135-black_high_135,black_med_135_up,white_med_45_up,7,1.72313689,0.2485432,left,0.03915,1,7,5,1,0,1,1,TRUE,FALSE,med_2_mask_high,0.75,-1,3,FALSE,1,,,,,,,,,,,,,,,,,,,165,12,3.2.2021,164.9620587
89,"['low', 2, 'high']",2,black,0.579902453,45,right,down,low,high,black_high_45-white_high_135-white_high_135-black_high_135,black_low_45_down,white_low_135_down,13,1.052732064,0.2485438,right,0.7335885,1,13,6,0,0,1,1,TRUE,FALSE,low_2_mask_high,0.75,-1,3,TRUE,3,,,,,,,,,,,,,,,,,,,165,12,3.2.2021,164.9620587
90,"['med', 3, 'high']",3,white,0.296864584,135,right,up,med,high,white_high_135-black_high_135-black_high_45-white_high_135,white_med_135_up,black_med_45_up,4,1.621704423,0.2485457,left,0.7131639,0,4,4,1,0,1,1,TRUE,FALSE,med_3_mask_high,0.75,-1,3,TRUE,1,,,,,,,,,,,,,,,,,,,165,12,3.2.2021,164.9620587
91,"['high', 1, 'high']",1,black,0.865503371,45,right,down,high,high,black_high_45-black_high_135-white_high_135-white_high_135,black_high_45_down,white_high_135_down,19,1.178344644,0.2450421,left,0.5560212,0,19,5,0,0,1,1,TRUE,FALSE,high_1_mask_high,0.75,-1,3,FALSE,1,,,,,,,,,,,,,,,,,,,165,12,3.2.2021,164.9620587
92,"['med', 1, 'high']",1,white,0.6571352,135,right,up,med,high,white_high_135-white_high_135-black_high_135-black_high_45,white_med_135_up,black_med_45_up,17,1.521486346,0.2485528,right,0.5211479,1,17,3,0,0,1,1,TRUE,FALSE,med_1_mask_high,0.75,-1,3,TRUE,3,,,,,,,,,,,,,,,,,,,165,12,3.2.2021,164.9620587
93,"['high', 1, 'low']",1,black,0.245987127,45,right,down,high,low,black_low_135-black_low_45-white_low_45-white_low_135,black_high_45_down,white_high_135_down,19,1.397366936,0.2450431,left,0.9612613,0,19,5,1,0,1,1,TRUE,FALSE,high_1_mask_low,0.75,-1,3,TRUE,3,,,,,,,,,,,,,,,,,,,165,12,3.2.2021,164.9620587
94,"['low', 1, 'low']",1,black,0.576734913,45,right,down,low,low,black_low_135-black_low_45-white_low_45-white_low_135,black_low_45_down,white_low_135_down,12,1.239506117,0.2485518,left,0.0237037,0,12,4,0,0,1,1,TRUE,FALSE,low_1_mask_low,0.75,-1,3,FALSE,1,,,,,,,,,,,,,,,,,,,165,12,3.2.2021,164.9620587
95,"['med', 3, 'high']",3,white,0.909969993,135,right,down,med,high,black_high_135-white_high_135-white_high_135-black_high_45,white_med_135_down,black_med_45_down,7,1.908452206,0.2466907,right,0.7216698,1,7,5,0,0,1,1,TRUE,FALSE,med_3_mask_high,0.75,-1,3,TRUE,2,,,,,,,,,,,,,,,,,,,165,12,3.2.2021,164.9620587
96,"['high', 3, 'low']",3,black,0.078842719,45,right,up,high,low,white_low_135-black_low_45-black_low_135-white_low_45,black_high_45_up,white_high_135_up,11,1.860596156,0.2485632,left,0.1319316,0,11,9,1,0,1,1,TRUE,FALSE,high_3_mask_low,0.75,-1,3,TRUE,4,,,,,,,,,,,,,,,,,,,165,12,3.2.2021,164.9620587
97,"['low', 1, 'low']",1,white,0.022694852,135,right,up,low,low,white_low_45-black_low_45-white_low_135-black_low_135,white_low_135_up,black_low_45_up,15,1.79982657,0.2485511,left,9.0092647,0,15,5,0,0,1,1,TRUE,FALSE,low_1_mask_low,0.75,-1,3,FALSE,1,,,,,,,,,,,,,,,,,,,165,12,3.2.2021,164.9620587
98,"['low', 3, 'high']",3,white,0.598714249,45,left,up,low,high,white_high_135-black_high_135-white_high_135-black_high_45,white_low_45_up,black_low_135_up,7,1.888206812,0.2485864,left,0.6374162,1,7,4,1,0,1,1,TRUE,FALSE,low_3_mask_high,0.75,-1,3,FALSE,3,,,,,,,,,,,,,,,,,,,165,12,3.2.2021,164.9620587
99,"['high', 2, 'high']",2,white,0.856605119,135,right,down,high,high,black_high_135-white_high_135-black_high_45-white_high_135,white_high_135_down,black_high_45_down,8,1.890343504,0.2485473,right,0.4322782,1,8,4,0,0,1,1,TRUE,FALSE,high_2_mask_high,0.75,-1,3,TRUE,2,,,,,,,,,,,,,,,,,,,165,12,3.2.2021,164.9620587
100,"['low', 3, 'low']",3,black,0.777823859,135,left,up,low,low,black_low_135-white_low_45-black_low_45-white_low_135,black_low_135_up,white_low_45_up,7,1.271561656,0.2485529,left,0.5104939,1,7,9,1,0,1,1,TRUE,FALSE,low_3_mask_low,0.75,-1,3,FALSE,2,,,,,,,,,,,,,,,,,,,165,12,3.2.2021,164.9620587
101,"['low', 3, 'low']",3,black,0.463439582,45,right,down,low,low,white_low_135-black_low_135-black_low_45-white_low_45,black_low_45_down,white_low_135_down,6,1.391872729,0.2485519,left,0.3330907,0,6,10,1,0,1,1,TRUE,FALSE,low_3_mask_low,0.75,-1,3,TRUE,3,,,,,,,,,,,,,,,,,,,165,12,3.2.2021,164.9620587
102,"['high', 2, 'high']",2,black,0.384489506,45,right,up,high,high,black_high_135-white_high_135-black_high_45-white_high_135,black_high_45_up,white_high_135_up,7,1.928350552,0.2450167,left,0.4691715,0,7,5,1,0,1,1,TRUE,FALSE,high_2_mask_high,0.75,-1,3,TRUE,3,,,,,,,,,,,,,,,,,,,165,12,3.2.2021,164.9620587
103,"['med', 2, 'low']",2,white,0.815001764,135,right,up,med,low,black_low_135-white_low_135-white_low_45-black_low_45,white_med_135_up,black_med_45_up,12,1.248498226,0.248546,left,0.2619222,0,12,4,1,0,1,1,TRUE,FALSE,med_2_mask_low,0.75,-1,3,TRUE,2,,,,,,,,,,,,,,,,,,,165,12,3.2.2021,164.9620587
104,"['med', 2, 'low']",2,black,0.098704369,45,right,down,med,low,white_low_45-white_low_135-black_low_45-black_low_135,black_med_45_down,white_med_135_down,15,1.792277538,0.2485521,right,0.2910359,1,15,5,0,0,1,1,TRUE,FALSE,med_2_mask_low,0.75,-1,3,TRUE,3,,,,,,,,,,,,,,,,,,,165,12,3.2.2021,164.9620587
105,"['high', 3, 'low']",3,black,0.410299828,135,left,down,high,low,black_low_45-white_low_135-black_low_135-white_low_45,black_high_135_down,white_high_45_down,14,1.497021173,0.248544,left,0.2935541,1,14,10,0,0,1,1,TRUE,FALSE,high_3_mask_low,0.75,-1,3,TRUE,5,,,,,,,,,,,,,,,,,,,165,12,3.2.2021,164.9620587
106,"['high', 1, 'high']",1,black,0.099684674,135,left,down,high,high,black_high_45-black_high_135-white_high_135-white_high_135,black_high_135_down,white_high_45_down,22,1.917644477,0.2485437,right,0.3696039,0,22,6,0,0,1,1,TRUE,FALSE,high_1_mask_high,0.75,-1,3,FALSE,1,,,,,,,,,,,,,,,,,,,165,12,3.2.2021,164.9620587
107,"['low', 2, 'high']",2,black,0.071074654,135,left,down,low,high,white_high_135-white_high_135-black_high_135-black_high_45,black_low_135_down,white_low_45_down,12,1.081819763,0.2485486,left,0.4203819,1,12,7,1,0,1,1,TRUE,FALSE,low_2_mask_high,0.75,-1,3,FALSE,3,,,,,,,,,,,,,,,,,,,165,12,3.2.2021,164.9620587
108,"['low', 3, 'high']",3,white,0.67695107,45,left,down,low,high,white_high_135-white_high_135-black_high_135-black_high_45,white_low_45_down,black_low_135_down,6,1.938980832,0.2488183,right,0.4698218,0,6,5,1,0,1,1,TRUE,FALSE,low_3_mask_high,0.75,-1,3,TRUE,4,,,,,,,,,,,,,,,,,,,165,12,3.2.2021,164.9620587
109,"['med', 1, 'low']",1,white,0.00310405,135,right,up,med,low,white_low_45-black_low_45-white_low_135-black_low_135,white_med_135_up,black_med_45_up,21,1.806878074,0.2485565,right,0.3978189,1,21,3,0,0,1,1,TRUE,FALSE,med_1_mask_low,0.75,-1,3,TRUE,1,,,,,,,,,,,,,,,,,,,165,12,3.2.2021,164.9620587
110,"['med', 1, 'low']",1,white,0.953387274,135,right,up,med,low,white_low_45-white_low_135-black_low_135-black_low_45,white_med_135_up,black_med_45_up,20,1.893749266,0.2485511,right,0.0476172,1,20,4,1,0,1,1,TRUE,FALSE,med_1_mask_low,0.75,-1,3,FALSE,1,,,,,,,,,,,,,,,,,,,165,12,3.2.2021,164.9620587
111,"['low', 1, 'low']",1,white,0.901806473,135,right,down,low,low,white_low_45-black_low_45-white_low_135-black_low_135,white_low_135_down,black_low_45_down,18,1.005295698,0.2467377,right,0.7033893,1,18,6,0,0,1,1,TRUE,FALSE,low_1_mask_low,0.75,-1,3,TRUE,2,,,,,,,,,,,,,,,,,,,165,12,3.2.2021,164.9620587
112,"['low', 3, 'high']",3,white,0.20149947,45,left,up,low,high,black_high_45-white_high_135-white_high_135-black_high_135,white_low_45_up,black_low_135_up,9,1.03885971,0.2485695,left,0.2794096,1,9,6,0,0,1,1,TRUE,FALSE,low_3_mask_high,0.75,-1,3,TRUE,5,,,,,,,,,,,,,,,,,,,165,12,3.2.2021,164.9620587
113,"['high', 3, 'high']",3,black,0.64919907,135,left,down,high,high,white_high_135-black_high_135-black_high_45-white_high_135,black_high_135_down,white_high_45_down,8,1.269413853,0.248544,left,0.0105019,1,8,8,1,0,1,1,TRUE,FALSE,high_3_mask_high,0.75,-1,3,FALSE,4,,,,,,,,,,,,,,,,,,,165,12,3.2.2021,164.9620587
114,"['med', 2, 'low']",2,black,0.932968918,135,left,down,med,low,black_low_45-white_low_135-black_low_135-white_low_45,black_med_135_down,white_med_45_down,14,1.075393118,0.2485401,right,0.6013625,0,14,6,1,0,1,1,TRUE,FALSE,med_2_mask_low,0.75,-1,3,TRUE,4,,,,,,,,,,,,,,,,,,,165,12,3.2.2021,164.9620587
115,"['med', 1, 'high']",1,black,0.167176883,45,right,up,med,high,black_high_45-white_high_135-white_high_135-black_high_135,black_med_45_up,white_med_135_up,16,1.449079539,0.2467414,left,0.4183845,0,16,4,1,0,1,1,TRUE,FALSE,med_1_mask_high,0.75,-1,3,TRUE,4,,,,,,,,,,,,,,,,,,,165,12,3.2.2021,164.9620587
116,"['med', 1, 'high']",1,black,0.885125458,45,right,up,med,high,black_high_135-white_high_135-black_high_45-white_high_135,black_med_45_up,white_med_135_up,19,1.535545642,0.2502851,left,0.4750123,0,19,5,0,0,1,1,TRUE,FALSE,med_1_mask_high,0.75,-1,3,FALSE,4,,,,,,,,,,,,,,,,,,,165,12,3.2.2021,164.9620587
117,"['low', 1, 'high']",1,white,0.231160487,45,left,up,low,high,white_high_135-black_high_45-white_high_135-black_high_135,white_low_45_up,black_low_135_up,7,1.792105193,0.248536,left,0.0788648,1,7,1,1,0,1,1,TRUE,FALSE,low_1_mask_high,0.75,-1,3,FALSE,0,,,,,,,,,,,,,,,,,,,165,12,3.2.2021,164.9620587
118,"['med', 2, 'high']",2,black,0.971278548,135,left,down,med,high,black_high_45-white_high_135-black_high_135-white_high_135,black_med_135_down,white_med_45_down,6,1.108612529,0.2467653,left,0.4673184,1,6,6,1,0,1,1,TRUE,FALSE,med_2_mask_high,0.75,-1,3,FALSE,1,,,,,,,,,,,,,,,,,,,165,12,3.2.2021,164.9620587
119,"['med', 3, 'high']",3,black,0.453663427,45,right,down,med,high,black_high_45-black_high_135-white_high_135-white_high_135,black_med_45_down,white_med_135_down,6,1.451605671,0.2485422,left,0.2591757,0,6,6,1,0,1,1,TRUE,FALSE,med_3_mask_high,0.75,-1,3,TRUE,3,,,,,,,,,,,,,,,,,,,165,12,3.2.2021,164.9620587
120,"['high', 1, 'low']",1,black,0.204932307,45,right,up,high,low,black_low_135-white_low_45-black_low_45-white_low_135,black_high_45_up,white_high_135_up,22,1.651427924,0.2485412,left,0.5929689,0,22,6,0,0,1,1,TRUE,FALSE,high_1_mask_low,0.75,-1,3,FALSE,3,,,,,,,,,,,,,,,,,,,165,12,3.2.2021,164.9620587
121,"['med', 2, 'low']",2,black,0.653602239,135,left,up,med,low,black_low_135-black_low_45-white_low_45-white_low_135,black_med_135_up,white_med_45_up,17,1.975925241,0.2485485,right,1.7816677,0,17,7,0,0,1,1,TRUE,FALSE,med_2_mask_low,0.75,-1,3,FALSE,4,,,,,,,,,,,,,,,,,,,165,12,3.2.2021,164.9620587
122,"['high', 3, 'high']",3,black,0.212415285,135,left,up,high,high,black_high_135-black_high_45-white_high_135-white_high_135,black_high_135_up,white_high_45_up,7,1.927740635,0.2485501,left,0.5354934,1,7,9,1,0,1,1,TRUE,FALSE,high_3_mask_high,0.75,-1,3,FALSE,4,,,,,,,,,,,,,,,,,,,165,12,3.2.2021,164.9620587
123,"['low', 2, 'low']",2,black,0.919961268,135,left,up,low,low,black_low_45-white_low_45-white_low_135-black_low_135,black_low_135_up,white_low_45_up,6,1.027028452,0.2485409,left,0.3891866,1,6,5,1,0,1,1,TRUE,FALSE,low_2_mask_low,0.75,-1,3,FALSE,1,,,,,,,,,,,,,,,,,,,165,12,3.2.2021,164.9620587
124,"['high', 1, 'low']",1,black,0.861331144,135,left,down,high,low,black_low_45-black_low_135-white_low_45-white_low_135,black_high_135_down,white_high_45_down,25,1.165765857,0.2485429,right,0.3729407,0,25,7,0,0,1,1,TRUE,FALSE,high_1_mask_low,0.75,-1,3,FALSE,3,,,,,,,,,,,,,,,,,,,165,12,3.2.2021,164.9620587
125,"['high', 2, 'high']",2,white,0.341142792,45,left,up,high,high,black_high_135-white_high_135-white_high_135-black_high_45,white_high_45_up,black_high_135_up,10,1.314260421,0.2485426,left,0.2784197,1,10,6,0,0,1,1,TRUE,FALSE,high_2_mask_high,0.75,-1,3,TRUE,4,,,,,,,,,,,,,,,,,,,165,12,3.2.2021,164.9620587
126,"['med', 3, 'high']",3,black,0.613587781,135,left,up,med,high,white_high_135-black_high_135-black_high_45-white_high_135,black_med_135_up,white_med_45_up,9,1.836720043,0.2485476,left,0.2807312,1,9,7,0,0,1,1,TRUE,FALSE,med_3_mask_high,0.75,-1,3,TRUE,4,,,,,,,,,,,,,,,,,,,165,12,3.2.2021,164.9620587
127,"['high', 3, 'high']",3,black,0.578052679,45,right,down,high,high,white_high_135-black_high_135-black_high_45-white_high_135,black_high_45_down,white_high_135_down,6,1.675310167,0.2485679,left,0.3800458,0,6,10,1,0,1,1,TRUE,FALSE,high_3_mask_high,0.75,-1,3,TRUE,5,,,,,,,,,,,,,,,,,,,165,12,3.2.2021,164.9620587
128,"['med', 3, 'high']",3,white,0.124574635,135,right,down,med,high,black_high_45-white_high_135-black_high_135-white_high_135,white_med_135_down,black_med_45_down,8,1.752791892,0.2488336,right,0.3077486,1,8,8,1,0,1,1,TRUE,FALSE,med_3_mask_high,0.75,-1,3,FALSE,4,,,,,,,,,,,,,,,,,,,165,12,3.2.2021,164.9620587
129,"['med', 3, 'low']",3,black,0.681353269,135,left,up,med,low,black_low_45-white_low_135-black_low_135-white_low_45,black_med_135_up,white_med_45_up,8,1.019383236,0.2488382,left,0.0434413,1,8,4,0,0,1,1,TRUE,FALSE,med_3_mask_low,0.75,-1,3,TRUE,2,,,,,,,,,,,,,,,,,,,165,12,3.2.2021,164.9620587
130,"['med', 2, 'high']",2,black,0.803590971,45,right,down,med,high,white_high_135-black_high_45-white_high_135-black_high_135,black_med_45_down,white_med_135_down,5,1.947394062,0.2466926,right,1.4543663,1,5,7,1,0,1,1,TRUE,FALSE,med_2_mask_high,0.75,-1,3,FALSE,1,,,,,,,,,,,,,,,,,,,165,12,3.2.2021,164.9620587
131,"['high', 3, 'low']",3,black,0.736641128,45,right,down,high,low,black_low_45-black_low_135-white_low_135-white_low_45,black_high_45_down,white_high_135_down,13,1.250383604,0.2485469,right,4.6254534,1,13,11,1,1,1,1,TRUE,FALSE,high_3_mask_low,0.75,-1,3,FALSE,5,,,,,,,,,,,,,,,,,,,165,12,3.2.2021,164.9620587
132,"['high', 3, 'low']",3,black,0.955445825,135,left,up,high,low,black_low_135-black_low_45-white_low_45-white_low_135,black_high_135_up,white_high_45_up,12,1.659095323,0.248538,left,1.0186049,1,12,12,1,1,1,1,TRUE,FALSE,high_3_mask_low,0.75,-1,3,FALSE,5,,,,,,,,,,,,,,,,,,,165,12,3.2.2021,164.9620587
133,"['high', 3, 'low']",3,black,0.019132477,135,left,up,high,low,white_low_45-black_low_135-black_low_45-white_low_135,black_high_135_up,white_high_45_up,11,1.647422284,0.2485625,left,0.1771624,1,11,13,1,1,1,1,TRUE,FALSE,high_3_mask_low,0.75,-1,3,FALSE,5,,,,,,,,,,,,,,,,,,,165,12,3.2.2021,164.9620587
134,"['low', 2, 'low']",2,white,0.786293162,45,left,down,low,low,black_low_135-black_low_45-white_low_45-white_low_135,white_low_45_down,black_low_135_down,5,1.780806103,0.2485589,left,0.2300052,1,5,6,1,0,1,1,TRUE,FALSE,low_2_mask_low,0.75,-1,3,FALSE,1,,,,,,,,,,,,,,,,,,,165,12,3.2.2021,164.9620587
135,"['med', 1, 'low']",1,white,0.326547941,45,left,down,med,low,black_low_45-white_low_45-black_low_135-white_low_135,white_med_45_down,black_med_135_down,19,1.155751074,0.246739,left,0.6186923,1,19,5,1,0,1,1,TRUE,FALSE,med_1_mask_low,0.75,-1,3,FALSE,1,,,,,,,,,,,,,,,,,,,165,12,3.2.2021,164.9620587
136,"['med', 3, 'high']",3,black,0.136484695,135,left,down,med,high,black_high_135-black_high_45-white_high_135-white_high_135,black_med_135_down,white_med_45_down,7,1.700300482,0.2485559,right,0.1865771,0,7,9,1,0,1,1,TRUE,FALSE,med_3_mask_high,0.75,-1,3,TRUE,5,,,,,,,,,,,,,,,,,,,165,12,3.2.2021,164.9620587
137,"['med', 3, 'low']",3,white,0.65323781,45,left,down,med,low,black_low_45-white_low_135-black_low_135-white_low_45,white_med_45_down,black_med_135_down,7,1.472502251,0.2485486,left,4.3080347,1,7,5,1,0,1,1,TRUE,FALSE,med_3_mask_low,0.75,-1,3,FALSE,2,,,,,,,,,,,,,,,,,,,165,12,3.2.2021,164.9620587
138,"['med', 1, 'low']",1,black,0.12547764,45,right,up,med,low,black_low_45-white_low_45-white_low_135-black_low_135,black_med_45_up,white_med_135_up,18,1.186767315,0.2467154,left,0.957234,0,18,6,1,0,1,1,TRUE,FALSE,med_1_mask_low,0.75,-1,3,TRUE,2,,,,,,,,,,,,,,,,,,,165,12,3.2.2021,164.9620587
139,"['high', 1, 'low']",1,black,0.005083794,45,right,down,high,low,white_low_45-black_low_135-black_low_45-white_low_135,black_high_45_down,white_high_135_down,28,1.421978931,0.2485258,left,1.0225941,0,28,8,0,0,1,1,TRUE,FALSE,high_1_mask_low,0.75,-1,3,FALSE,3,,,,,,,,,,,,,,,,,,,165,12,3.2.2021,164.9620587
140,"['high', 1, 'high']",1,black,0.308768369,45,right,down,high,high,black_high_45-white_high_135-black_high_135-white_high_135,black_high_45_down,white_high_135_down,25,1.368010254,0.2485407,left,0.0984219,0,25,7,0,0,1,1,TRUE,FALSE,high_1_mask_high,0.75,-1,3,FALSE,1,,,,,,,,,,,,,,,,,,,165,12,3.2.2021,164.9620587
141,"['med', 3, 'low']",3,white,0.984020594,45,left,down,med,low,white_low_135-white_low_45-black_low_135-black_low_45,white_med_45_down,black_med_135_down,6,1.750628394,0.2485512,left,0.9145846,1,6,6,1,0,1,1,TRUE,FALSE,med_3_mask_low,0.75,-1,3,FALSE,2,,,,,,,,,,,,,,,,,,,165,12,3.2.2021,164.9620587
142,"['high', 3, 'high']",3,black,0.452797642,45,right,up,high,high,black_high_45-white_high_135-black_high_135-white_high_135,black_high_45_up,white_high_135_up,9,1.29732101,0.2503284,left,4.0985627,0,9,11,0,1,1,1,TRUE,FALSE,high_3_mask_high,0.75,-1,3,FALSE,5,,,,,,,,,,,,,,,,,,,165,12,3.2.2021,164.9620587
143,"['high', 2, 'high']",2,white,0.159854735,135,right,up,high,high,black_high_135-black_high_45-white_high_135-white_high_135,white_high_135_up,black_high_45_up,9,1.52418777,0.2500187,left,0.7061323,0,9,7,1,0,1,1,TRUE,FALSE,high_2_mask_high,0.75,-1,3,TRUE,5,,,,,,,,,,,,,,,,,,,165,12,3.2.2021,164.9620587
144,"['low', 3, 'low']",3,white,0.105059439,45,left,up,low,low,black_low_135-white_low_45-black_low_45-white_low_135,white_low_45_up,black_low_135_up,9,1.365512243,0.2467674,left,0.5776657,1,9,11,0,0,1,1,TRUE,FALSE,low_3_mask_low,0.75,-1,3,TRUE,4,,,,,,,,,,,,,,,,,,,165,12,3.2.2021,164.9620587
145,"['med', 1, 'high']",1,white,0.022275271,45,left,up,med,high,black_high_45-white_high_135-white_high_135-black_high_135,white_med_45_up,black_med_135_up,22,1.156910776,0.2485494,left,0.709713,1,22,6,0,0,1,1,TRUE,FALSE,med_1_mask_high,0.75,-1,3,TRUE,5,,,,,,,,,,,,,,,,,,,165,12,3.2.2021,164.9620587
146,"['high', 1, 'low']",1,black,0.053741746,45,right,down,high,low,white_low_135-black_low_45-white_low_45-black_low_135,black_high_45_down,white_high_135_down,31,1.395534126,0.2485433,right,0.6591889,1,31,9,0,0,1,1,TRUE,FALSE,high_1_mask_low,0.75,-1,3,TRUE,4,,,,,,,,,,,,,,,,,,,165,12,3.2.2021,164.9620587
147,"['high', 2, 'high']",2,black,0.456673116,45,right,down,high,high,white_high_135-white_high_135-black_high_45-black_high_135,black_high_45_down,white_high_135_down,12,1.163048528,0.2501122,left,0.3889415,0,12,8,0,1,1,1,TRUE,FALSE,high_2_mask_high,0.75,-1,3,FALSE,5,,,,,,,,,,,,,,,,,,,165,12,3.2.2021,164.9620587
148,"['med', 2, 'high']",2,black,0.547267222,45,right,up,med,high,black_high_135-white_high_135-black_high_45-white_high_135,black_med_45_up,white_med_135_up,4,1.827362305,0.2485504,left,0.0373379,0,4,8,1,0,1,1,TRUE,FALSE,med_2_mask_high,0.75,-1,3,TRUE,2,,,,,,,,,,,,,,,,,,,165,12,3.2.2021,164.9620587
149,"['med', 1, 'high']",1,white,0.12387266,135,right,up,med,high,black_high_45-black_high_135-white_high_135-white_high_135,white_med_135_up,black_med_45_up,21,1.664970012,0.2485494,right,0.9504809,1,21,7,1,1,1,1,TRUE,FALSE,med_1_mask_high,0.75,-1,3,FALSE,5,,,,,,,,,,,,,,,,,,,165,12,3.2.2021,164.9620587
150,"['high', 3, 'low']",3,black,0.236033348,45,right,up,high,low,black_low_135-white_low_135-black_low_45-white_low_45,black_high_45_up,white_high_135_up,10,1.663174058,0.2485457,left,0.705755,0,10,14,1,1,1,1,TRUE,FALSE,high_3_mask_low,0.75,-1,3,TRUE,6,,,,,,,,,,,,,,,,,,,165,12,3.2.2021,164.9620587
151,"['low', 3, 'low']",3,black,0.570699521,135,left,up,low,low,black_low_135-white_low_135-white_low_45-black_low_45,black_low_135_up,white_low_45_up,8,1.205489106,0.2485529,left,0.5304561,1,8,12,1,0,1,1,TRUE,FALSE,low_3_mask_low,0.75,-1,3,FALSE,4,,,,,,,,,,,,,,,,,,,165,12,3.2.2021,164.9620587
152,"['high', 3, 'low']",3,white,0.344761361,135,right,up,high,low,white_low_45-white_low_135-black_low_45-black_low_135,white_high_135_up,black_high_45_up,13,1.683846328,0.2485455,right,0.6855608,1,13,15,0,1,1,1,TRUE,FALSE,high_3_mask_low,0.75,-1,3,TRUE,7,,,,,,,,,,,,,,,,,,,165,12,3.2.2021,164.9620587
153,"['med', 2, 'low']",2,white,0.51664639,135,right,down,med,low,white_low_135-black_low_135-black_low_45-white_low_45,white_med_135_down,black_med_45_down,20,1.819278032,0.2485415,right,0.4688832,1,20,8,0,0,1,1,TRUE,FALSE,med_2_mask_low,0.75,-1,3,TRUE,5,,,,,,,,,,,,,,,,,,,165,12,3.2.2021,164.9620587
154,"['med', 3, 'high']",3,black,0.055834965,135,left,down,med,high,black_high_135-black_high_45-white_high_135-white_high_135,black_med_135_down,white_med_45_down,10,1.859689683,0.2485524,left,0.4600262,1,10,10,0,1,1,1,TRUE,FALSE,med_3_mask_high,0.75,-1,3,TRUE,6,,,,,,,,,,,,,,,,,,,165,12,3.2.2021,164.9620587
155,"['low', 3, 'high']",3,black,0.487365136,135,left,down,low,high,white_high_135-white_high_135-black_high_135-black_high_45,black_low_135_down,white_low_45_down,8,1.407840873,0.2485303,left,0.9660914,1,8,7,1,1,1,1,TRUE,FALSE,low_3_mask_high,0.75,-1,3,FALSE,5,,,,,,,,,,,,,,,,,,,165,12,3.2.2021,164.9620587
156,"['low', 3, 'low']",3,white,0.848412174,45,left,down,low,low,black_low_135-white_low_45-white_low_135-black_low_45,white_low_45_down,black_low_135_down,7,1.706632715,0.2485564,left,0.7599579,1,7,13,1,0,1,1,TRUE,FALSE,low_3_mask_low,0.75,-1,3,FALSE,4,,,,,,,,,,,,,,,,,,,165,12,3.2.2021,164.9620587
157,"['high', 3, 'high']",3,white,0.088955977,135,right,down,high,high,white_high_135-black_high_135-black_high_45-white_high_135,white_high_135_down,black_high_45_down,12,1.180424227,0.2485372,left,1.1472605,0,12,12,0,1,1,1,TRUE,FALSE,high_3_mask_high,0.75,-1,3,FALSE,5,,,,,,,,,,,,,,,,,,,165,12,3.2.2021,164.9620587
158,"['high', 2, 'high']",2,black,0.312944614,135,left,up,high,high,black_high_135-black_high_45-white_high_135-white_high_135,black_high_135_up,white_high_45_up,15,1.363074736,0.248267,left,0.020934,1,15,9,0,1,1,1,TRUE,FALSE,high_2_mask_high,0.75,-1,3,TRUE,6,,,,,,,,,,,,,,,,,,,165,12,3.2.2021,164.9620587
159,"['med', 2, 'high']",2,white,0.326442672,135,right,down,med,high,white_high_135-white_high_135-black_high_45-black_high_135,white_med_135_down,black_med_45_down,7,1.193248207,0.2485371,right,0.0877552,1,7,9,0,0,1,1,TRUE,FALSE,med_2_mask_high,0.75,-1,3,TRUE,3,,,,,,,,,,,,,,,,,,,165,12,3.2.2021,164.9620587
160,"['med', 3, 'high']",3,white,0.013208873,135,right,down,med,high,black_high_45-white_high_135-white_high_135-black_high_135,white_med_135_down,black_med_45_down,9,1.976228339,0.2485504,right,1.5296478,1,9,11,1,1,1,1,TRUE,FALSE,med_3_mask_high,0.75,-1,3,FALSE,6,,,,,,,,,,,,,,,,,,,165,12,3.2.2021,164.9620587
161,"['low', 1, 'high']",1,white,0.679058218,135,right,down,low,high,black_high_135-black_high_45-white_high_135-white_high_135,white_low_135_down,black_low_45_down,6,1.071064059,0.2485526,right,0.1552823,1,6,2,1,0,1,1,TRUE,FALSE,low_1_mask_high,0.75,-1,3,FALSE,0,,,,,,,,,,,,,,,,,,,165,12,3.2.2021,164.9620587
162,"['med', 1, 'low']",1,black,0.74879022,135,left,up,med,low,black_low_45-white_low_135-black_low_135-white_low_45,black_med_135_up,white_med_45_up,21,1.945292813,0.2485985,right,3.5760831,0,21,7,0,0,1,1,TRUE,FALSE,med_1_mask_low,0.75,-1,3,FALSE,2,,,,,,,,,,,,,,,,,,,165,12,3.2.2021,164.9620587
163,"['high', 1, 'high']",1,white,0.131381769,135,right,down,high,high,white_high_135-white_high_135-black_high_135-black_high_45,white_high_135_down,black_high_45_down,28,1.577403934,0.2485456,right,1.4802375,1,28,8,0,0,1,1,TRUE,FALSE,high_1_mask_high,0.75,-1,3,TRUE,2,,,,,,,,,,,,,,,,,,,165,12,3.2.2021,164.9620587
164,"['high', 2, 'high']",2,black,0.206683933,135,left,down,high,high,black_high_45-white_high_135-black_high_135-white_high_135,black_high_135_down,white_high_45_down,14,1.389735618,0.2485406,right,0.6487142,0,14,10,1,1,1,1,TRUE,FALSE,high_2_mask_high,0.75,-1,3,TRUE,7,,,,,,,,,,,,,,,,,,,165,12,3.2.2021,164.9620587
165,"['med', 1, 'low']",1,black,0.99677153,45,right,up,med,low,white_low_135-black_low_135-black_low_45-white_low_45,black_med_45_up,white_med_135_up,24,1.836768135,0.2485515,left,0.3405509,0,24,8,0,0,1,1,TRUE,FALSE,med_1_mask_low,0.75,-1,3,FALSE,2,,,,,,,,,,,,,,,,,,,165,12,3.2.2021,164.9620587
166,"['high', 2, 'high']",2,white,0.139813925,45,left,up,high,high,black_high_135-white_high_135-white_high_135-black_high_45,white_high_45_up,black_high_135_up,17,1.535831909,0.2482653,left,1.9194527,1,17,11,0,1,1,1,TRUE,FALSE,high_2_mask_high,0.75,-1,3,TRUE,8,,,,,,,,,,,,,,,,,,,165,12,3.2.2021,164.9620587
167,"['med', 3, 'low']",3,black,0.621247529,45,right,down,med,low,white_low_135-white_low_45-black_low_45-black_low_135,black_med_45_down,white_med_135_down,5,1.606079804,0.248511,left,1.0282837,0,5,7,1,0,1,1,TRUE,FALSE,med_3_mask_low,0.75,-1,3,TRUE,3,,,,,,,,,,,,,,,,,,,165,12,3.2.2021,164.9620587
168,"['low', 2, 'low']",2,black,0.087490376,135,left,down,low,low,black_low_135-black_low_45-white_low_45-white_low_135,black_low_135_down,white_low_45_down,4,1.78452257,0.2466966,right,1.3130912,0,4,7,1,0,1,1,TRUE,FALSE,low_2_mask_low,0.75,-1,3,TRUE,2,,,,,,,,,,,,,,,,,,,165,12,3.2.2021,164.9620587
169,"['med', 3, 'high']",3,white,0.347134016,135,right,up,med,high,black_high_135-black_high_45-white_high_135-white_high_135,white_med_135_up,black_med_45_up,8,1.152775969,0.2485424,left,1.6241435,0,8,12,1,1,1,1,TRUE,FALSE,med_3_mask_high,0.75,-1,3,TRUE,7,,,,,,,,,,,,,,,,,,,165,12,3.2.2021,164.9620587
170,"['low', 3, 'low']",3,white,0.627784564,45,left,up,low,low,black_low_135-white_low_45-black_low_45-white_low_135,white_low_45_up,black_low_135_up,6,1.599910239,0.2485488,left,0.742865,1,6,14,1,0,1,1,TRUE,FALSE,low_3_mask_low,0.75,-1,3,FALSE,4,,,,,,,,,,,,,,,,,,,165,12,3.2.2021,164.9620587
171,"['high', 2, 'low']",2,black,0.583063366,135,left,up,high,low,black_low_45-black_low_135-white_low_135-white_low_45,black_high_135_up,white_high_45_up,15,1.649684536,0.2488278,left,0.8320227,1,15,5,0,0,1,1,TRUE,FALSE,high_2_mask_low,0.75,-1,3,TRUE,5,,,,,,,,,,,,,,,,,,,165,12,3.2.2021,164.9620587
172,"['high', 2, 'low']",2,white,0.432563013,45,left,down,high,low,white_low_135-black_low_135-white_low_45-black_low_45,white_high_45_down,black_high_135_down,14,1.001572655,0.2485439,right,0.6784282,0,14,6,1,1,1,1,TRUE,FALSE,high_2_mask_low,0.75,-1,3,TRUE,6,,,,,,,,,,,,,,,,,,,165,12,3.2.2021,164.9620587
173,"['low', 2, 'high']",2,white,0.927166023,135,right,down,low,high,white_high_135-black_high_45-white_high_135-black_high_135,white_low_135_down,black_low_45_down,11,1.334832162,0.2485471,right,1.0918753,1,11,8,1,0,1,1,TRUE,FALSE,low_2_mask_high,0.75,-1,3,FALSE,3,,,,,,,,,,,,,,,,,,,165,12,3.2.2021,164.9620587
174,"['med', 2, 'high']",2,white,0.328554556,135,right,up,med,high,white_high_135-black_high_45-white_high_135-black_high_135,white_med_135_up,black_med_45_up,6,1.019218873,0.248542,right,0.0583492,1,6,10,1,0,1,1,TRUE,FALSE,med_2_mask_high,0.75,-1,3,FALSE,3,,,,,,,,,,,,,,,,,,,165,12,3.2.2021,164.9620587
175,"['med', 2, 'low']",2,white,0.638824575,45,left,down,med,low,black_low_135-black_low_45-white_low_135-white_low_45,white_med_45_down,black_med_135_down,19,1.380839917,0.2467617,right,3.096968,0,19,9,1,1,1,1,TRUE,FALSE,med_2_mask_low,0.75,-1,3,TRUE,6,,,,,,,,,,,,,,,,,,,165,12,3.2.2021,164.9620587
176,"['low', 2, 'low']",2,white,0.186468838,45,left,up,low,low,black_low_45-black_low_135-white_low_135-white_low_45,white_low_45_up,black_low_135_up,7,1.762858077,0.2450314,left,0.3743368,1,7,8,0,0,1,1,TRUE,FALSE,low_2_mask_low,0.75,-1,3,TRUE,3,,,,,,,,,,,,,,,,,,,165,12,3.2.2021,164.9620587
177,"['med', 2, 'high']",2,black,0.907168324,45,right,down,med,high,black_high_135-black_high_45-white_high_135-white_high_135,black_med_45_down,white_med_135_down,5,1.284074783,0.2488248,right,0.0563298,1,5,11,1,0,1,1,TRUE,FALSE,med_2_mask_high,0.75,-1,3,FALSE,3,,,,,,,,,,,,,,,,,,,165,12,3.2.2021,164.9620587
178,"['med', 3, 'low']",3,black,0.438259336,135,left,down,med,low,white_low_135-black_low_135-white_low_45-black_low_45,black_med_135_down,white_med_45_down,8,1.708275363,0.2469973,right,4.3752104,0,8,8,0,0,1,1,TRUE,FALSE,med_3_mask_low,0.75,-1,3,FALSE,3,,,,,,,,,,,,,,,,,,,165,12,3.2.2021,164.9620587
179,"['med', 2, 'high']",2,black,0.229826451,135,left,up,med,high,black_high_135-white_high_135-white_high_135-black_high_45,black_med_135_up,white_med_45_up,4,1.275654648,0.2485222,right,0.039091,0,4,12,1,0,1,1,TRUE,FALSE,med_2_mask_high,0.75,-1,3,TRUE,4,,,,,,,,,,,,,,,,,,,165,12,3.2.2021,164.9620587
180,"['high', 1, 'high']",1,black,0.288245385,45,right,down,high,high,black_high_45-white_high_135-black_high_135-white_high_135,black_high_45_down,white_high_135_down,27,1.936608793,0.2502965,right,0.0781757,1,27,9,1,0,1,1,TRUE,FALSE,high_1_mask_high,0.75,-1,3,FALSE,2,,,,,,,,,,,,,,,,,,,165,12,3.2.2021,164.9620587
181,"['med', 1, 'low']",1,white,0.696436341,135,right,down,med,low,black_low_45-white_low_45-white_low_135-black_low_135,white_med_135_down,black_med_45_down,27,1.499825657,0.2467772,right,0.5791488,1,27,9,0,0,1,1,TRUE,FALSE,med_1_mask_low,0.75,-1,3,TRUE,3,,,,,,,,,,,,,,,,,,,165,12,3.2.2021,164.9620587
182,"['med', 1, 'low']",1,black,0.993296054,135,left,down,med,low,white_low_45-white_low_135-black_low_135-black_low_45,black_med_135_down,white_med_45_down,26,1.691817933,0.2485462,right,0.6062379,0,26,10,1,0,1,1,TRUE,FALSE,med_1_mask_low,0.75,-1,3,TRUE,4,,,,,,,,,,,,,,,,,,,165,12,3.2.2021,164.9620587
183,"['low', 1, 'low']",1,black,0.130046749,45,right,up,low,low,white_low_45-black_low_135-white_low_135-black_low_45,black_low_45_up,white_low_135_up,17,1.201572416,0.2503047,right,0.0346196,1,17,7,1,0,1,1,TRUE,FALSE,low_1_mask_low,0.75,-1,3,FALSE,2,,,,,,,,,,,,,,,,,,,165,12,3.2.2021,164.9620587
184,"['low', 1, 'low']",1,black,0.084188807,45,right,down,low,low,black_low_135-white_low_45-white_low_135-black_low_45,black_low_45_down,white_low_135_down,16,1.24007969,0.2485542,right,1.0368567,1,16,8,1,0,1,1,TRUE,FALSE,low_1_mask_low,0.75,-1,3,FALSE,2,,,,,,,,,,,,,,,,,,,165,12,3.2.2021,164.9620587
185,"['high', 1, 'low']",1,white,0.348775984,45,left,up,high,low,black_low_135-white_low_135-black_low_45-white_low_45,white_high_45_up,black_high_135_up,30,1.484669261,0.2485572,left,0.6527897,1,30,10,1,0,1,1,TRUE,FALSE,high_1_mask_low,0.75,-1,3,FALSE,4,,,,,,,,,,,,,,,,,,,165,12,3.2.2021,164.9620587
186,"['high', 3, 'low']",3,black,0.537283984,135,left,up,high,low,black_low_45-white_low_135-black_low_135-white_low_45,black_high_135_up,white_high_45_up,12,1.616989251,0.2485465,left,0.506959,1,12,16,1,1,1,1,TRUE,FALSE,high_3_mask_low,0.75,-1,3,FALSE,7,,,,,,,,,,,,,,,,,,,165,12,3.2.2021,164.9620587
187,"['low', 1, 'low']",1,black,0.770745262,45,right,up,low,low,white_low_45-black_low_45-black_low_135-white_low_135,black_low_45_up,white_low_135_up,15,1.470292035,0.2450236,left,0.3874381,0,15,9,1,0,1,1,TRUE,FALSE,low_1_mask_low,0.75,-1,3,TRUE,3,,,,,,,,,,,,,,,,,,,165,12,3.2.2021,164.9620587
188,"['med', 1, 'low']",1,black,0.048469273,45,right,down,med,low,black_low_45-white_low_45-white_low_135-black_low_135,black_med_45_down,white_med_135_down,29,1.619861776,0.2485425,left,0.4577764,0,29,11,0,0,1,1,TRUE,FALSE,med_1_mask_low,0.75,-1,3,FALSE,4,,,,,,,,,,,,,,,,,,,165,12,3.2.2021,164.9620587
189,"['high', 1, 'high']",1,black,0.41109197,45,right,down,high,high,white_high_135-white_high_135-black_high_45-black_high_135,black_high_45_down,white_high_135_down,26,1.890325559,0.2485438,left,0.3086208,0,26,10,1,0,1,1,TRUE,FALSE,high_1_mask_high,0.75,-1,3,TRUE,3,,,,,,,,,,,,,,,,,,,165,12,3.2.2021,164.9620587
190,"['low', 3, 'low']",3,black,0.436173578,45,right,down,low,low,white_low_45-white_low_135-black_low_45-black_low_135,black_low_45_down,white_low_135_down,5,1.059317843,0.2485455,left,0.0531414,0,5,15,1,0,1,1,TRUE,FALSE,low_3_mask_low,0.75,-1,3,TRUE,5,,,,,,,,,,,,,,,,,,,165,12,3.2.2021,164.9620587
191,"['low', 2, 'low']",2,white,0.608893216,135,right,down,low,low,white_low_135-black_low_135-white_low_45-black_low_45,white_low_135_down,black_low_45_down,6,1.980294489,0.2485524,right,0.356725,1,6,9,1,0,1,1,TRUE,FALSE,low_2_mask_low,0.75,-1,3,FALSE,3,,,,,,,,,,,,,,,,,,,165,12,3.2.2021,164.9620587
192,"['med', 3, 'high']",3,white,0.828987151,45,left,up,med,high,black_high_45-white_high_135-black_high_135-white_high_135,white_med_45_up,black_med_135_up,11,1.052650944,0.2485408,left,0.4509737,1,11,13,0,1,1,1,TRUE,FALSE,med_3_mask_high,0.75,-1,3,TRUE,8,,,,,,,,,,,,,,,,,,,165,12,3.2.2021,164.9620587
193,"['low', 2, 'high']",2,white,0.966090186,45,left,down,low,high,black_high_135-white_high_135-black_high_45-white_high_135,white_low_45_down,black_low_135_down,10,1.257093323,0.2485353,left,0.3941006,1,10,9,1,0,1,1,TRUE,FALSE,low_2_mask_high,0.75,-1,3,FALSE,3,,,,,,,,,,,,,,,,,,,165,12,3.2.2021,164.9620587
194,"['high', 2, 'low']",2,black,0.469392586,45,right,up,high,low,black_low_45-white_low_45-black_low_135-white_low_135,black_high_45_up,white_high_135_up,17,1.780178231,0.2485583,left,0.281905,0,17,7,0,1,1,1,TRUE,FALSE,high_2_mask_low,0.75,-1,3,FALSE,6,,,,,,,,,,,,,,,,,,,165,12,3.2.2021,164.9620587
195,"['low', 2, 'high']",2,black,0.182582166,135,left,down,low,high,black_high_135-white_high_135-white_high_135-black_high_45,black_low_135_down,white_low_45_down,9,1.53421776,0.2485391,left,0.2218577,1,9,10,1,0,1,1,TRUE,FALSE,low_2_mask_high,0.75,-1,3,FALSE,3,,,,,,,,,,,,,,,,,,,165,12,3.2.2021,164.9620587
196,"['med', 3, 'high']",3,white,0.463410097,135,right,up,med,high,black_high_45-white_high_135-white_high_135-black_high_135,white_med_135_up,black_med_45_up,10,1.277060413,0.2485422,right,0.4344757,1,10,14,1,1,1,1,TRUE,FALSE,med_3_mask_high,0.75,-1,3,FALSE,8,,,,,,,,,,,,,,,,,,,165,12,3.2.2021,164.9620587
197,"['low', 1, 'low']",1,white,0.830509414,45,left,up,low,low,white_low_45-black_low_135-black_low_45-white_low_135,white_low_45_up,black_low_135_up,18,1.482168639,0.2467852,left,0.1381588,1,18,10,0,0,1,1,TRUE,FALSE,low_1_mask_low,0.75,-1,3,TRUE,4,,,,,,,,,,,,,,,,,,,165,12,3.2.2021,164.9620587
198,"['low', 1, 'high']",1,white,0.546466173,45,left,up,low,high,white_high_135-white_high_135-black_high_45-black_high_135,white_low_45_up,black_low_135_up,5,1.718495909,0.2503031,right,0.4561947,0,5,3,1,0,1,1,TRUE,FALSE,low_1_mask_high,0.75,-1,3,TRUE,1,,,,,,,,,,,,,,,,,,,165,12,3.2.2021,164.9620587
199,"['high', 1, 'low']",1,black,0.004400495,45,right,down,high,low,white_low_135-black_low_45-black_low_135-white_low_45,black_high_45_down,white_high_135_down,29,1.571295993,0.2467673,left,0.6453871,0,29,11,1,0,1,1,TRUE,FALSE,high_1_mask_low,0.75,-1,3,TRUE,5,,,,,,,,,,,,,,,,,,,165,12,3.2.2021,164.9620587
200,"['high', 2, 'high']",2,black,0.011108031,135,left,up,high,high,white_high_135-white_high_135-black_high_135-black_high_45,black_high_135_up,white_high_45_up,16,1.582219537,0.2485588,left,0.8793576,1,16,12,1,1,1,1,TRUE,FALSE,high_2_mask_high,0.75,-1,3,FALSE,8,,,,,,,,,,,,,,,,,,,165,12,3.2.2021,164.9620587
201,"['high', 2, 'high']",2,black,0.00889846,135,left,up,high,high,black_high_45-white_high_135-black_high_135-white_high_135,black_high_135_up,white_high_45_up,15,1.738019756,0.2485432,right,1.532502,0,15,13,1,1,1,1,TRUE,FALSE,high_2_mask_high,0.75,-1,3,TRUE,9,,,,,,,,,,,,,,,,,,,165,12,3.2.2021,164.9620587
202,"['high', 1, 'high']",1,white,0.319735213,45,left,down,high,high,white_high_135-black_high_135-white_high_135-black_high_45,white_high_45_down,black_high_135_down,29,1.392168739,0.2485458,left,0.4566332,1,29,11,0,0,1,1,TRUE,FALSE,high_1_mask_high,0.75,-1,3,TRUE,4,,,,,,,,,,,,,,,,,,,165,12,3.2.2021,164.9620587
203,"['high', 3, 'low']",3,white,0.215747303,135,right,down,high,low,white_low_135-black_low_45-black_low_135-white_low_45,white_high_135_down,black_high_45_down,11,1.53784395,0.2482724,right,0.3938086,1,11,17,1,1,1,1,TRUE,FALSE,high_3_mask_low,0.75,-1,3,FALSE,7,,,,,,,,,,,,,,,,,,,165,12,3.2.2021,164.9620587
204,"['med', 3, 'high']",3,white,0.192108292,45,left,up,med,high,white_high_135-black_high_135-white_high_135-black_high_45,white_med_45_up,black_med_135_up,9,1.580241864,0.2485549,left,0.3490209,1,9,15,1,1,1,1,TRUE,FALSE,med_3_mask_high,0.75,-1,3,FALSE,8,,,,,,,,,,,,,,,,,,,165,12,3.2.2021,164.9620587
205,"['high', 2, 'high']",2,white,0.797675894,135,right,down,high,high,white_high_135-black_high_45-black_high_135-white_high_135,white_high_135_down,black_high_45_down,18,1.778938647,0.2485414,right,0.1078596,1,18,14,0,1,1,1,TRUE,FALSE,high_2_mask_high,0.75,-1,3,TRUE,10,,,,,,,,,,,,,,,,,,,165,12,3.2.2021,164.9620587
206,"['high', 3, 'low']",3,white,0.565551871,135,right,down,high,low,white_low_45-black_low_45-white_low_135-black_low_135,white_high_135_down,black_high_45_down,10,1.29390289,0.2467674,right,0.1354203,1,10,18,1,1,1,1,TRUE,FALSE,high_3_mask_low,0.75,-1,3,FALSE,7,,,,,,,,,,,,,,,,,,,165,12,3.2.2021,164.9620587
207,"['low', 1, 'low']",1,black,0.370133755,45,right,up,low,low,black_low_45-white_low_45-black_low_135-white_low_135,black_low_45_up,white_low_135_up,17,1.328375584,0.248556,left,1.0351626,0,17,11,1,0,1,1,TRUE,FALSE,low_1_mask_low,0.75,-1,3,TRUE,5,,,,,,,,,,,,,,,,,,,165,12,3.2.2021,164.9620587
208,"['med', 3, 'high']",3,white,0.664925962,45,left,down,med,high,white_high_135-white_high_135-black_high_45-black_high_135,white_med_45_down,black_med_135_down,8,1.778029785,0.2485526,left,4.9221774,1,8,16,1,1,1,1,TRUE,FALSE,med_3_mask_high,0.75,-1,3,FALSE,8,,,,,,,,,,,,,,,,,,,165,12,3.2.2021,164.9620587
209,"['low', 1, 'low']",1,black,0.680825624,135,left,up,low,low,black_low_45-black_low_135-white_low_45-white_low_135,black_low_135_up,white_low_45_up,20,1.051445026,0.2467067,right,0.2843945,0,20,12,0,1,1,1,TRUE,FALSE,low_1_mask_low,0.75,-1,3,FALSE,5,,,,,,,,,,,,,,,,,,,165,12,3.2.2021,164.9620587
210,"['med', 3, 'high']",3,black,0.423649072,135,left,up,med,high,white_high_135-black_high_135-black_high_45-white_high_135,black_med_135_up,white_med_45_up,7,1.383427965,0.2485489,left,0.0924733,1,7,17,1,1,1,1,TRUE,FALSE,med_3_mask_high,0.75,-1,3,FALSE,8,,,,,,,,,,,,,,,,,,,165,12,3.2.2021,164.9620587
211,"['med', 3, 'low']",3,black,0.565285057,135,left,down,med,low,white_low_45-white_low_135-black_low_135-black_low_45,black_med_135_down,white_med_45_down,11,1.06633199,0.2485446,right,1.5581369,0,11,9,0,0,1,1,TRUE,FALSE,med_3_mask_low,0.75,-1,3,FALSE,3,,,,,,,,,,,,,,,,,,,165,12,3.2.2021,164.9620587
212,"['med', 2, 'low']",2,black,0.912824886,135,left,down,med,low,white_low_135-white_low_45-black_low_135-black_low_45,black_med_135_down,white_med_45_down,22,1.119656151,0.2482797,left,0.4028857,1,22,10,0,1,1,1,TRUE,FALSE,med_2_mask_low,0.75,-1,3,TRUE,7,,,,,,,,,,,,,,,,,,,165,12,3.2.2021,164.9620587
213,"['med', 2, 'high']",2,black,0.306436795,135,left,down,med,high,black_high_135-white_high_135-white_high_135-black_high_45,black_med_135_down,white_med_45_down,7,1.67557498,0.2467561,left,2.1916784,1,7,13,0,0,1,1,TRUE,FALSE,med_2_mask_high,0.75,-1,3,TRUE,5,,,,,,,,,,,,,,,,,,,165,12,3.2.2021,164.9620587
214,"['high', 2, 'low']",2,black,0.592417844,45,right,down,high,low,black_low_135-white_low_135-white_low_45-black_low_45,black_high_45_down,white_high_135_down,20,1.259906965,0.248543,right,0.257981,1,20,8,0,1,1,1,TRUE,FALSE,high_2_mask_low,0.75,-1,3,TRUE,7,,,,,,,,,,,,,,,,,,,165,12,3.2.2021,164.9620587
215,"['low', 2, 'low']",2,white,0.400236032,45,left,up,low,low,black_low_45-white_low_135-white_low_45-black_low_135,white_low_45_up,black_low_135_up,5,1.187905615,0.2485608,right,0.0672627,0,5,10,1,0,1,1,TRUE,FALSE,low_2_mask_low,0.75,-1,3,TRUE,4,,,,,,,,,,,,,,,,,,,165,12,3.2.2021,164.9620587
216,"['med', 1, 'high']",1,white,0.237321268,135,right,up,med,high,white_high_135-black_high_45-white_high_135-black_high_135,white_med_135_up,black_med_45_up,20,1.96408101,0.2467368,right,2.3621156,1,20,8,1,1,1,1,TRUE,FALSE,med_1_mask_high,0.75,-1,3,FALSE,5,,,,,,,,,,,,,,,,,,,165,12,3.2.2021,164.9620587
217,"['high', 2, 'high']",2,white,0.609959677,45,left,down,high,high,white_high_135-black_high_135-white_high_135-black_high_45,white_high_45_down,black_high_135_down,17,1.949017505,0.2483139,left,0.2242375,1,17,15,1,1,1,1,TRUE,FALSE,high_2_mask_high,0.75,-1,3,FALSE,10,,,,,,,,,,,,,,,,,,,165,12,3.2.2021,164.9620587
218,"['med', 3, 'low']",3,black,0.571955253,135,left,up,med,low,black_low_45-black_low_135-white_low_45-white_low_135,black_med_135_up,white_med_45_up,14,1.793050416,0.2485397,left,0.0636051,1,14,10,0,0,1,1,TRUE,FALSE,med_3_mask_low,0.75,-1,3,TRUE,4,,,,,,,,,,,,,,,,,,,165,12,3.2.2021,164.9620587
219,"['low', 3, 'high']",3,white,0.127439643,135,right,down,low,high,black_high_45-white_high_135-white_high_135-black_high_135,white_low_135_down,black_low_45_down,7,1.606818551,0.2485458,right,1.0439374,1,7,8,1,1,1,1,TRUE,FALSE,low_3_mask_high,0.75,-1,3,FALSE,5,,,,,,,,,,,,,,,,,,,165,12,3.2.2021,164.9620587
220,"['high', 1, 'high']",1,black,0.472968255,135,left,down,high,high,black_high_135-black_high_45-white_high_135-white_high_135,black_high_135_down,white_high_45_down,28,1.864949723,0.2503146,right,0.5325652,0,28,12,1,0,1,1,TRUE,FALSE,high_1_mask_high,0.75,-1,3,TRUE,5,,,,,,,,,,,,,,,,,,,165,12,3.2.2021,164.9620587
221,"['low', 3, 'high']",3,white,0.368470943,135,right,up,low,high,black_high_45-white_high_135-white_high_135-black_high_135,white_low_135_up,black_low_45_up,6,1.330998817,0.2485525,right,0.3618112,1,6,9,1,1,1,1,TRUE,FALSE,low_3_mask_high,0.75,-1,3,FALSE,5,,,,,,,,,,,,,,,,,,,165,12,3.2.2021,164.9620587
222,"['med', 1, 'low']",1,white,0.07649054,45,left,down,med,low,black_low_45-white_low_45-white_low_135-black_low_135,white_med_45_down,black_med_135_down,32,1.322197565,0.2485322,left,0.5802057,1,32,12,0,0,1,1,TRUE,FALSE,med_1_mask_low,0.75,-1,3,TRUE,5,,,,,,,,,,,,,,,,,,,165,12,3.2.2021,164.9620587
223,"['med', 2, 'high']",2,black,0.221550619,135,left,up,med,high,black_high_135-black_high_45-white_high_135-white_high_135,black_med_135_up,white_med_45_up,6,1.384728862,0.2467098,right,0.184487,0,6,14,1,1,1,1,TRUE,FALSE,med_2_mask_high,0.75,-1,3,TRUE,6,,,,,,,,,,,,,,,,,,,165,12,3.2.2021,164.9620587
224,"['med', 1, 'high']",1,black,0.111878535,135,left,up,med,high,white_high_135-black_high_135-white_high_135-black_high_45,black_med_135_up,white_med_45_up,19,1.850811372,0.2485307,right,0.3980246,0,19,9,1,1,1,1,TRUE,FALSE,med_1_mask_high,0.75,-1,3,TRUE,6,,,,,,,,,,,,,,,,,,,165,12,3.2.2021,164.9620587
225,"['low', 3, 'high']",3,black,0.469222636,135,left,up,low,high,white_high_135-black_high_135-white_high_135-black_high_45,black_low_135_up,white_low_45_up,5,1.073087739,0.2466257,right,8.1118193,0,5,10,1,1,1,1,TRUE,FALSE,low_3_mask_high,0.75,-1,3,TRUE,6,,,,,,,,,,,,,,,,,,,165,12,3.2.2021,164.9620587
226,"['low', 1, 'low']",1,black,0.938676278,45,right,down,low,low,black_low_135-white_low_135-black_low_45-white_low_45,black_low_45_down,white_low_135_down,23,1.26309598,0.2485476,left,1.4488364,0,23,13,0,1,1,1,TRUE,FALSE,low_1_mask_low,0.75,-1,3,FALSE,5,,,,,,,,,,,,,,,,,,,165,12,3.2.2021,164.9620587
227,"['med', 2, 'low']",2,white,0.444408569,135,right,down,med,low,white_low_45-black_low_135-black_low_45-white_low_135,white_med_135_down,black_med_45_down,21,1.019651546,0.2503274,right,0.8554662,1,21,11,1,1,1,1,TRUE,FALSE,med_2_mask_low,0.75,-1,3,FALSE,7,,,,,,,,,,,,,,,,,,,165,12,3.2.2021,164.9620587
228,"['low', 2, 'low']",2,black,0.867411627,45,right,down,low,low,black_low_135-black_low_45-white_low_135-white_low_45,black_low_45_down,white_low_135_down,8,1.648132806,0.2472556,right,0.2197103,1,8,11,0,0,1,1,TRUE,FALSE,low_2_mask_low,0.75,-1,3,TRUE,5,,,,,,,,,,,,,,,,,,,165,12,3.2.2021,164.9620587
229,"['med', 3, 'low']",3,black,0.14688652,45,right,up,med,low,white_low_135-white_low_45-black_low_45-black_low_135,black_med_45_up,white_med_135_up,13,1.436596204,0.2502925,right,0.3358621,1,13,11,1,0,1,1,TRUE,FALSE,med_3_mask_low,0.75,-1,3,FALSE,4,,,,,,,,,,,,,,,,,,,165,12,3.2.2021,164.9620587
230,"['low', 1, 'high']",1,black,0.840887266,135,left,down,low,high,white_high_135-black_high_135-white_high_135-black_high_45,black_low_135_down,white_low_45_down,8,1.970195601,0.24854,right,0.4486309,0,8,4,0,0,1,1,TRUE,FALSE,low_1_mask_high,0.75,-1,3,FALSE,1,,,,,,,,,,,,,,,,,,,165,12,3.2.2021,164.9620587
231,"['med', 2, 'high']",2,black,0.379364462,135,left,down,med,high,white_high_135-black_high_135-black_high_45-white_high_135,black_med_135_down,white_med_45_down,9,1.660746689,0.24505,right,0.390048,0,9,15,0,1,1,1,TRUE,FALSE,med_2_mask_high,0.75,-1,3,FALSE,6,,,,,,,,,,,,,,,,,,,165,12,3.2.2021,164.9620587
232,"['med', 3, 'low']",3,black,0.311926122,45,right,up,med,low,black_low_135-white_low_45-black_low_45-white_low_135,black_med_45_up,white_med_135_up,12,1.151874877,0.2485342,right,0.5667675,1,12,12,1,0,1,1,TRUE,FALSE,med_3_mask_low,0.75,-1,3,FALSE,4,,,,,,,,,,,,,,,,,,,165,12,3.2.2021,164.9620587
233,"['med', 1, 'low']",1,black,0.536090519,135,left,up,med,low,black_low_45-white_low_135-black_low_135-white_low_45,black_med_135_up,white_med_45_up,31,1.378434454,0.2467509,right,0.2004573,0,31,13,1,1,1,1,TRUE,FALSE,med_1_mask_low,0.75,-1,3,TRUE,6,,,,,,,,,,,,,,,,,,,165,12,3.2.2021,164.9620587
234,"['med', 1, 'low']",1,white,0.179596275,45,left,down,med,low,black_low_135-white_low_45-white_low_135-black_low_45,white_med_45_down,black_med_135_down,34,1.162666644,0.2485449,left,0.1195869,1,34,14,0,1,1,1,TRUE,FALSE,med_1_mask_low,0.75,-1,3,TRUE,7,,,,,,,,,,,,,,,,,,,165,12,3.2.2021,164.9620587
235,"['high', 3, 'high']",3,black,0.749915504,135,left,up,high,high,black_high_45-white_high_135-black_high_135-white_high_135,black_high_135_up,white_high_45_up,15,1.174883702,0.2503055,left,0.4911193,1,15,13,0,1,1,1,TRUE,FALSE,high_3_mask_high,0.75,-1,3,TRUE,6,,,,,,,,,,,,,,,,,,,165,12,3.2.2021,164.9620587
236,"['low', 1, 'high']",1,black,0.292748214,45,right,down,low,high,black_high_45-white_high_135-white_high_135-black_high_135,black_low_45_down,white_low_135_down,11,1.692632927,0.2467741,left,0.7437909,0,11,5,0,0,1,1,TRUE,FALSE,low_1_mask_high,0.75,-1,3,FALSE,1,,,,,,,,,,,,,,,,,,,165,12,3.2.2021,164.9620587
237,"['med', 3, 'high']",3,white,0.990245605,45,left,down,med,high,black_high_45-white_high_135-white_high_135-black_high_135,white_med_45_down,black_med_135_down,6,1.580293627,0.2485405,left,0.4231951,1,6,18,1,1,1,1,TRUE,FALSE,med_3_mask_high,0.75,-1,3,FALSE,8,,,,,,,,,,,,,,,,,,,165,12,3.2.2021,164.9620587
238,"['med', 2, 'high']",2,white,0.289154912,135,right,down,med,high,white_high_135-black_high_45-white_high_135-black_high_135,white_med_135_down,black_med_45_down,12,1.26086976,0.2503022,right,0.5501525,1,12,16,0,1,1,1,TRUE,FALSE,med_2_mask_high,0.75,-1,3,TRUE,7,,,,,,,,,,,,,,,,,,,165,12,3.2.2021,164.9620587
239,"['low', 3, 'high']",3,black,0.641745765,135,left,down,low,high,white_high_135-black_high_135-black_high_45-white_high_135,black_low_135_down,white_low_45_down,8,1.309519986,0.246783,right,0.3707873,0,8,11,0,1,1,1,TRUE,FALSE,low_3_mask_high,0.75,-1,3,FALSE,6,,,,,,,,,,,,,,,,,,,165,12,3.2.2021,164.9620587
240,"['high', 3, 'high']",3,white,0.613881436,45,left,down,high,high,white_high_135-white_high_135-black_high_45-black_high_135,white_high_45_down,black_high_135_down,14,1.69071446,0.2485457,left,0.3048967,1,14,14,1,1,1,1,TRUE,FALSE,high_3_mask_high,0.75,-1,3,FALSE,6,,,,,,,,,,,,,,,,,,,165,12,3.2.2021,164.9620587
241,"['med', 3, 'low']",3,black,0.030129982,45,right,down,med,low,white_low_135-white_low_45-black_low_45-black_low_135,black_med_45_down,white_med_135_down,11,1.373236798,0.2485423,right,0.2877982,1,11,13,1,0,1,1,TRUE,FALSE,med_3_mask_low,0.75,-1,3,FALSE,4,,,,,,,,,,,,,,,,,,,165,12,3.2.2021,164.9620587
242,"['low', 1, 'low']",1,black,0.929905598,135,left,down,low,low,black_low_135-white_low_45-white_low_135-black_low_45,black_low_135_down,white_low_45_down,26,1.768725231,0.2485507,right,0.5539418,0,26,14,0,1,1,1,TRUE,FALSE,low_1_mask_low,0.75,-1,3,FALSE,5,,,,,,,,,,,,,,,,,,,165,12,3.2.2021,164.9620587
243,"['high', 1, 'high']",1,white,0.69210406,135,right,down,high,high,white_high_135-black_high_135-black_high_45-white_high_135,white_high_135_down,black_high_45_down,31,1.553192331,0.2485414,right,0.362982,1,31,13,0,1,1,1,TRUE,FALSE,high_1_mask_high,0.75,-1,3,TRUE,6,,,,,,,,,,,,,,,,,,,165,12,3.2.2021,164.9620587
244,"['med', 2, 'low']",2,black,0.259050334,135,left,up,med,low,white_low_135-white_low_45-black_low_45-black_low_135,black_med_135_up,white_med_45_up,20,1.696718122,0.2485492,right,0.5568748,0,20,12,1,1,1,1,TRUE,FALSE,med_2_mask_low,0.75,-1,3,TRUE,8,,,,,,,,,,,,,,,,,,,165,12,3.2.2021,164.9620587
245,"['low', 1, 'high']",1,white,0.387521872,135,right,up,low,high,white_high_135-black_high_135-black_high_45-white_high_135,white_low_135_up,black_low_45_up,14,1.170684335,0.2485461,right,0.3910552,1,14,6,0,0,1,1,TRUE,FALSE,low_1_mask_high,0.75,-1,3,TRUE,2,,,,,,,,,,,,,,,,,,,165,12,3.2.2021,164.9620587
246,"['high', 1, 'high']",1,white,0.298282962,45,left,down,high,high,white_high_135-black_high_45-black_high_135-white_high_135,white_high_45_down,black_high_135_down,30,1.290766588,0.2485521,left,0.0483354,1,30,14,1,1,1,1,TRUE,FALSE,high_1_mask_high,0.75,-1,3,FALSE,6,,,,,,,,,,,,,,,,,,,165,12,3.2.2021,164.9620587
247,"['high', 2, 'low']",2,white,0.806195936,45,left,down,high,low,white_low_45-black_low_135-black_low_45-white_low_135,white_high_45_down,black_high_135_down,19,1.529551049,0.2467714,left,0.0962612,1,19,9,1,1,1,1,TRUE,FALSE,high_2_mask_low,0.75,-1,3,FALSE,7,,,,,,,,,,,,,,,,,,,165,12,3.2.2021,164.9620587
248,"['high', 2, 'low']",2,black,0.063979049,45,right,up,high,low,white_low_135-black_low_135-black_low_45-white_low_45,black_high_45_up,white_high_135_up,18,1.036931719,0.2485471,left,2.2556573,0,18,10,1,1,1,1,TRUE,FALSE,high_2_mask_low,0.75,-1,3,TRUE,8,,,,,,,,,,,,,,,,,,,165,12,3.2.2021,164.9620587
249,"['med', 1, 'low']",1,white,0.76023853,45,left,up,med,low,black_low_135-white_low_135-white_low_45-black_low_45,white_med_45_up,black_med_135_up,33,1.1761717,0.2503246,left,0.8996194,1,33,15,1,1,1,1,TRUE,FALSE,med_1_mask_low,0.75,-1,3,FALSE,7,,,,,,,,,,,,,,,,,,,165,12,3.2.2021,164.9620587
250,"['med', 1, 'low']",1,white,0.27677732,45,left,down,med,low,white_low_135-black_low_45-white_low_45-black_low_135,white_med_45_down,black_med_135_down,32,1.977322581,0.248547,left,0.7882766,1,32,16,1,1,1,1,TRUE,FALSE,med_1_mask_low,0.75,-1,3,FALSE,7,,,,,,,,,,,,,,,,,,,165,12,3.2.2021,164.9620587
251,"['med', 3, 'high']",3,black,0.501240328,45,right,up,med,high,black_high_45-white_high_135-white_high_135-black_high_135,black_med_45_up,white_med_135_up,5,1.808064958,0.2467311,right,0.4141387,1,5,19,1,1,1,1,TRUE,FALSE,med_3_mask_high,0.75,-1,3,FALSE,8,,,,,,,,,,,,,,,,,,,165,12,3.2.2021,164.9620587
252,"['high', 1, 'low']",1,black,0.001300921,45,right,down,high,low,white_low_135-black_low_45-white_low_45-black_low_135,black_high_45_down,white_high_135_down,32,1.049694205,0.2488201,right,0.0860379,1,32,12,0,1,1,1,TRUE,FALSE,high_1_mask_low,0.75,-1,3,TRUE,6,,,,,,,,,,,,,,,,,,,165,12,3.2.2021,164.9620587
253,"['high', 1, 'low']",1,black,0.134068778,45,right,down,high,low,white_low_135-white_low_45-black_low_45-black_low_135,black_high_45_down,white_high_135_down,31,1.080181039,0.2503107,right,1.4178182,1,31,13,1,1,1,1,TRUE,FALSE,high_1_mask_low,0.75,-1,3,FALSE,6,,,,,,,,,,,,,,,,,,,165,12,3.2.2021,164.9620587
254,"['low', 1, 'low']",1,black,0.222042355,135,left,down,low,low,black_low_45-black_low_135-white_low_135-white_low_45,black_low_135_down,white_low_45_down,29,1.337421514,0.248536,right,0.7968423,0,29,15,0,1,1,1,TRUE,FALSE,low_1_mask_low,0.75,-1,3,FALSE,5,,,,,,,,,,,,,,,,,,,165,12,3.2.2021,164.9620587
255,"['low', 2, 'high']",2,white,0.13714383,45,left,down,low,high,white_high_135-black_high_135-white_high_135-black_high_45,white_low_45_down,black_low_135_down,8,1.623678328,0.248543,left,0.0234605,1,8,11,1,0,1,1,TRUE,FALSE,low_2_mask_high,0.75,-1,3,FALSE,3,,,,,,,,,,,,,,,,,,,165,12,3.2.2021,164.9620587
256,"['low', 1, 'high']",1,white,0.110426773,45,left,down,low,high,white_high_135-white_high_135-black_high_135-black_high_45,white_low_45_down,black_low_135_down,13,1.493096248,0.248838,left,0.883919,1,13,7,1,0,1,1,TRUE,FALSE,low_1_mask_high,0.75,-1,3,FALSE,2,,,,,,,,,,,,,,,,,,,165,12,3.2.2021,164.9620587
257,"['low', 3, 'high']",3,white,0.523736217,135,right,up,low,high,black_high_45-black_high_135-white_high_135-white_high_135,white_low_135_up,black_low_45_up,11,1.434254949,0.2485517,right,0.3950253,1,11,12,0,1,1,1,TRUE,FALSE,low_3_mask_high,0.75,-1,3,TRUE,7,,,,,,,,,,,,,,,,,,,165,12,3.2.2021,164.9620587
258,"['med', 3, 'low']",3,black,0.837885697,45,right,up,med,low,black_low_45-white_low_45-black_low_135-white_low_135,black_med_45_up,white_med_135_up,10,1.119539129,0.2485428,right,0.3279657,1,10,14,1,0,1,1,TRUE,FALSE,med_3_mask_low,0.75,-1,3,FALSE,4,,,,,,,,,,,,,,,,,,,165,12,3.2.2021,164.9620587
259,"['low', 3, 'low']",3,white,0.326051922,45,left,up,low,low,white_low_135-white_low_45-black_low_135-black_low_45,white_low_45_up,black_low_135_up,8,1.075813814,0.248555,left,0.446484,1,8,16,0,1,1,1,TRUE,FALSE,low_3_mask_low,0.75,-1,3,TRUE,6,,,,,,,,,,,,,,,,,,,165,12,3.2.2021,164.9620587
260,"['high', 1, 'low']",1,black,0.608899308,135,left,up,high,low,black_low_45-black_low_135-white_low_45-white_low_135,black_high_135_up,white_high_45_up,30,1.282491043,0.2467412,right,0.1515069,0,30,14,1,1,1,1,TRUE,FALSE,high_1_mask_low,0.75,-1,3,TRUE,7,,,,,,,,,,,,,,,,,,,165,12,3.2.2021,164.9620587
261,"['low', 2, 'low']",2,black,0.56256662,45,right,down,low,low,white_low_135-white_low_45-black_low_135-black_low_45,black_low_45_down,white_low_135_down,7,1.823758654,0.2467794,left,0.5442224,0,7,12,1,1,1,1,TRUE,FALSE,low_2_mask_low,0.75,-1,3,TRUE,6,,,,,,,,,,,,,,,,,,,165,12,3.2.2021,164.9620587
262,"['high', 2, 'low']",2,white,0.031612688,45,left,up,high,low,black_low_135-white_low_135-black_low_45-white_low_45,white_high_45_up,black_high_135_up,21,1.61504711,0.2485324,left,0.6137936,1,21,11,0,1,1,1,TRUE,FALSE,high_2_mask_low,0.75,-1,3,TRUE,9,,,,,,,,,,,,,,,,,,,165,12,3.2.2021,164.9620587
263,"['med', 3, 'high']",3,white,0.231686628,45,left,down,med,high,white_high_135-black_high_135-white_high_135-black_high_45,white_med_45_down,black_med_135_down,4,1.539327976,0.248537,left,0.1759878,1,4,20,1,1,1,1,TRUE,FALSE,med_3_mask_high,0.75,-1,3,FALSE,8,,,,,,,,,,,,,,,,,,,165,12,3.2.2021,164.9620587
264,"['med', 2, 'high']",2,white,0.92460152,135,right,up,med,high,white_high_135-black_high_45-black_high_135-white_high_135,white_med_135_up,black_med_45_up,11,1.056618507,0.2488176,left,3.1706854,0,11,17,1,1,1,1,TRUE,FALSE,med_2_mask_high,0.75,-1,3,TRUE,8,,,,,,,,,,,,,,,,,,,165,12,3.2.2021,164.9620587
265,"['med', 3, 'high']",3,white,0.361899276,45,left,up,med,high,white_high_135-black_high_45-black_high_135-white_high_135,white_med_45_up,black_med_135_up,3,1.607895081,0.2466729,left,0.0167925,1,3,21,1,1,1,1,TRUE,FALSE,med_3_mask_high,0.75,-1,3,FALSE,8,,,,,,,,,,,,,,,,,,,165,12,3.2.2021,164.9620587
266,"['low', 3, 'high']",3,white,0.928201045,45,left,up,low,high,black_high_45-white_high_135-black_high_135-white_high_135,white_low_45_up,black_low_135_up,10,1.557362313,0.2485508,left,3.857416,1,10,13,1,1,1,1,TRUE,FALSE,low_3_mask_high,0.75,-1,3,FALSE,7,,,,,,,,,,,,,,,,,,,165,12,3.2.2021,164.9620587
267,"['low', 3, 'high']",3,black,0.977773173,45,right,down,low,high,black_high_135-white_high_135-black_high_45-white_high_135,black_low_45_down,white_low_135_down,9,1.147435046,0.2485481,right,2.1576838,1,9,14,1,1,1,1,TRUE,FALSE,low_3_mask_high,0.75,-1,3,FALSE,7,,,,,,,,,,,,,,,,,,,165,12,3.2.2021,164.9620587
268,"['high', 2, 'low']",2,black,0.065082719,135,left,up,high,low,white_low_135-black_low_135-white_low_45-black_low_45,black_high_135_up,white_high_45_up,20,1.589726514,0.2482714,left,0.3387431,1,20,12,1,1,1,1,TRUE,FALSE,high_2_mask_low,0.75,-1,3,FALSE,9,,,,,,,,,,,,,,,,,,,165,12,3.2.2021,164.9620587
269,"['low', 3, 'low']",3,white,0.905064843,135,right,up,low,low,black_low_135-white_low_135-white_low_45-black_low_45,white_low_135_up,black_low_45_up,7,1.29745615,0.2485547,right,0.0064473,1,7,17,1,1,1,1,TRUE,FALSE,low_3_mask_low,0.75,-1,3,FALSE,6,,,,,,,,,,,,,,,,,,,165,12,3.2.2021,164.9620587
270,"['high', 3, 'high']",3,black,0.399803881,45,right,up,high,high,black_high_45-black_high_135-white_high_135-white_high_135,black_high_45_up,white_high_135_up,13,1.263149018,0.2489648,right,0.5144735,1,13,15,1,1,1,1,TRUE,FALSE,high_3_mask_high,0.75,-1,3,FALSE,6,,,,,,,,,,,,,,,,,,,165,12,3.2.2021,164.9620587
271,"['high', 2, 'low']",2,black,0.659120552,45,right,up,high,low,black_low_135-black_low_45-white_low_135-white_low_45,black_high_45_up,white_high_135_up,19,1.898889827,0.2485312,left,0.3464232,0,19,13,1,1,1,1,TRUE,FALSE,high_2_mask_low,0.75,-1,3,TRUE,10,,,,,,,,,,,,,,,,,,,165,12,3.2.2021,164.9620587
272,"['med', 2, 'low']",2,white,0.210711601,45,left,up,med,low,black_low_135-white_low_45-white_low_135-black_low_45,white_med_45_up,black_med_135_up,23,1.662848145,0.2485582,left,0.4411476,1,23,13,0,1,1,1,TRUE,FALSE,med_2_mask_low,0.75,-1,3,TRUE,9,,,,,,,,,,,,,,,,,,,165,12,3.2.2021,164.9620587
273,"['med', 2, 'high']",2,white,0.17405417,45,left,down,med,high,white_high_135-black_high_45-black_high_135-white_high_135,white_med_45_down,black_med_135_down,14,1.044563259,0.2485404,left,0.4766744,1,14,18,0,1,1,1,TRUE,FALSE,med_2_mask_high,0.75,-1,3,TRUE,9,,,,,,,,,,,,,,,,,,,165,12,3.2.2021,164.9620587
274,"['low', 2, 'low']",2,black,0.908286429,135,left,down,low,low,black_low_45-white_low_45-white_low_135-black_low_135,black_low_135_down,white_low_45_down,10,1.099861412,0.2467317,left,0.4518388,1,10,13,0,1,1,1,TRUE,FALSE,low_2_mask_low,0.75,-1,3,TRUE,7,,,,,,,,,,,,,,,,,,,165,12,3.2.2021,164.9620587
275,"['med', 3, 'high']",3,white,0.454312846,135,right,up,med,high,white_high_135-white_high_135-black_high_135-black_high_45,white_med_135_up,black_med_45_up,2,1.385898503,0.2485513,right,0.3881167,1,2,22,1,1,1,1,TRUE,FALSE,med_3_mask_high,0.75,-1,3,FALSE,8,,,,,,,,,,,,,,,,,,,165,12,3.2.2021,164.9620587
276,"['high', 1, 'low']",1,black,0.247826571,45,right,down,high,low,black_low_45-black_low_135-white_low_135-white_low_45,black_high_45_down,white_high_135_down,33,1.630950069,0.2467602,right,0.4275038,1,33,15,0,1,1,1,TRUE,FALSE,high_1_mask_low,0.75,-1,3,TRUE,8,,,,,,,,,,,,,,,,,,,165,12,3.2.2021,164.9620587
277,"['high', 2, 'low']",2,white,0.588745731,45,left,up,high,low,black_low_135-white_low_45-black_low_45-white_low_135,white_high_45_up,black_high_135_up,22,1.623500899,0.2488168,left,0.3436663,1,22,14,0,1,1,1,TRUE,FALSE,high_2_mask_low,0.75,-1,3,TRUE,11,,,,,,,,,,,,,,,,,,,165,12,3.2.2021,164.9620587
278,"['med', 3, 'low']",3,white,0.359021124,135,right,down,med,low,black_low_45-white_low_135-white_low_45-black_low_135,white_med_135_down,black_med_45_down,9,1.010682408,0.2485511,right,0.1566434,1,9,15,1,0,1,1,TRUE,FALSE,med_3_mask_low,0.75,-1,3,FALSE,4,,,,,,,,,,,,,,,,,,,165,12,3.2.2021,164.9620587
279,"['med', 1, 'low']",1,white,0.024183753,45,left,up,med,low,white_low_135-white_low_45-black_low_45-black_low_135,white_med_45_up,black_med_135_up,31,1.902150509,0.2485416,left,1.1467439,1,31,17,1,1,1,1,TRUE,FALSE,med_1_mask_low,0.75,-1,3,FALSE,7,,,,,,,,,,,,,,,,,,,165,12,3.2.2021,164.9620587
280,"['high', 3, 'high']",3,white,0.632596348,45,left,down,high,high,black_high_45-black_high_135-white_high_135-white_high_135,white_high_45_down,black_high_135_down,12,1.684991959,0.2482845,left,0.3919156,1,12,16,1,1,1,1,TRUE,FALSE,high_3_mask_high,0.75,-1,3,FALSE,6,,,,,,,,,,,,,,,,,,,165,12,3.2.2021,164.9620587
281,"['med', 1, 'low']",1,white,0.245294757,135,right,down,med,low,white_low_135-white_low_45-black_low_45-black_low_135,white_med_135_down,black_med_45_down,30,1.282541036,0.2485437,right,0.3957437,1,30,18,1,1,1,1,TRUE,FALSE,med_1_mask_low,0.75,-1,3,FALSE,7,,,,,,,,,,,,,,,,,,,165,12,3.2.2021,164.9620587
282,"['high', 1, 'low']",1,black,0.523879989,135,left,up,high,low,white_low_45-black_low_45-white_low_135-black_low_135,black_high_135_up,white_high_45_up,32,1.753194261,0.2485477,right,0.1445371,0,32,16,1,1,1,1,TRUE,FALSE,high_1_mask_low,0.75,-1,3,TRUE,9,,,,,,,,,,,,,,,,,,,165,12,3.2.2021,164.9620587
283,"['high', 2, 'high']",2,white,0.96098861,45,left,up,high,high,white_high_135-white_high_135-black_high_135-black_high_45,white_high_45_up,black_high_135_up,16,1.382358598,0.2503081,left,0.1346798,1,16,16,1,1,1,1,TRUE,FALSE,high_2_mask_high,0.75,-1,3,FALSE,10,,,,,,,,,,,,,,,,,,,165,12,3.2.2021,164.9620587
284,"['med', 3, 'low']",3,white,0.546056065,45,left,up,med,low,white_low_135-white_low_45-black_low_135-black_low_45,white_med_45_up,black_med_135_up,8,1.22014851,0.2502961,left,3.440376,1,8,16,1,0,1,1,TRUE,FALSE,med_3_mask_low,0.75,-1,3,FALSE,4,,,,,,,,,,,,,,,,,,,165,12,3.2.2021,164.9620587
285,"['low', 1, 'low']",1,black,0.739396708,45,right,down,low,low,black_low_45-white_low_45-white_low_135-black_low_135,black_low_45_down,white_low_135_down,32,1.968058287,0.2485469,right,0.3062809,1,32,16,0,1,1,1,TRUE,FALSE,low_1_mask_low,0.75,-1,3,TRUE,6,,,,,,,,,,,,,,,,,,,165,12,3.2.2021,164.9620587
286,"['low', 2, 'low']",2,white,0.08066692,135,right,up,low,low,white_low_45-black_low_45-black_low_135-white_low_135,white_low_135_up,black_low_45_up,9,1.498379836,0.2467398,right,0.5537916,1,9,14,1,1,1,1,TRUE,FALSE,low_2_mask_low,0.75,-1,3,FALSE,7,,,,,,,,,,,,,,,,,,,165,12,3.2.2021,164.9620587
287,"['med', 2, 'low']",2,black,0.948202957,45,right,down,med,low,white_low_45-black_low_135-black_low_45-white_low_135,black_med_45_down,white_med_135_down,22,1.198523609,0.2503005,left,0.2137659,0,22,14,1,1,1,1,TRUE,FALSE,med_2_mask_low,0.75,-1,3,TRUE,10,,,,,,,,,,,,,,,,,,,165,12,3.2.2021,164.9620587
288,"['low', 2, 'high']",2,white,0.958707827,45,left,up,low,high,black_high_45-black_high_135-white_high_135-white_high_135,white_low_45_up,black_low_135_up,7,1.668504391,0.2485354,left,0.5650358,1,7,12,1,0,1,1,TRUE,FALSE,low_2_mask_high,0.75,-1,3,FALSE,3,,,,,,,,,,,,,,,,,,,165,12,3.2.2021,164.9620587
289,"['high', 1, 'low']",1,white,0.478478228,45,left,down,high,low,black_low_135-black_low_45-white_low_135-white_low_45,white_high_45_down,black_high_135_down,35,1.671475851,0.2485584,left,0.3275145,1,35,17,0,1,1,1,TRUE,FALSE,high_1_mask_low,0.75,-1,3,TRUE,10,,,,,,,,,,,,,,,,,,,165,12,3.2.2021,164.9620587
290,"['high', 1, 'high']",1,white,0.721484569,135,right,down,high,high,white_high_135-black_high_45-white_high_135-black_high_135,white_high_135_down,black_high_45_down,29,1.406478993,0.2485384,right,0.418743,1,29,15,1,1,1,1,TRUE,FALSE,high_1_mask_high,0.75,-1,3,FALSE,6,,,,,,,,,,,,,,,,,,,165,12,3.2.2021,164.9620587
291,"['med', 1, 'low']",1,black,0.3119682,45,right,up,med,low,black_low_135-black_low_45-white_low_135-white_low_45,black_med_45_up,white_med_135_up,29,1.134940898,0.2485434,right,0.1921327,1,29,19,1,1,1,1,TRUE,FALSE,med_1_mask_low,0.75,-1,3,FALSE,7,,,,,,,,,,,,,,,,,,,165,12,3.2.2021,164.9620587
292,"['high', 3, 'low']",3,black,0.795097426,135,left,down,high,low,black_low_45-black_low_135-white_low_45-white_low_135,black_high_135_down,white_high_45_down,9,1.163752908,0.2485468,right,0.1705642,0,9,19,1,1,1,1,TRUE,FALSE,high_3_mask_low,0.75,-1,3,TRUE,8,,,,,,,,,,,,,,,,,,,165,12,3.2.2021,164.9620587
293,"['high', 3, 'low']",3,white,0.163572796,45,left,up,high,low,white_low_135-black_low_45-black_low_135-white_low_45,white_high_45_up,black_high_135_up,12,1.771972082,0.2485487,left,2.2131125,1,12,20,0,1,1,1,TRUE,FALSE,high_3_mask_low,0.75,-1,3,TRUE,9,,,,,,,,,,,,,,,,,,,165,12,3.2.2021,164.9620587
294,"['low', 2, 'high']",2,white,0.33814367,45,left,down,low,high,black_high_135-white_high_135-black_high_45-white_high_135,white_low_45_down,black_low_135_down,6,1.845182278,0.2485505,right,0.5391966,0,6,13,1,0,1,1,TRUE,FALSE,low_2_mask_high,0.75,-1,3,TRUE,4,,,,,,,,,,,,,,,,,,,165,12,3.2.2021,164.9620587
295,"['med', 3, 'high']",3,white,0.5908917,135,right,down,med,high,black_high_135-white_high_135-black_high_45-white_high_135,white_med_135_down,black_med_45_down,1,1.269228095,0.247049,right,0.1676329,1,1,23,1,1,1,1,TRUE,FALSE,med_3_mask_high,0.75,-1,3,FALSE,8,,,,,,,,,,,,,,,,,,,165,12,3.2.2021,164.9620587
296,"['low', 3, 'high']",3,black,0.004580479,135,left,up,low,high,black_high_135-white_high_135-white_high_135-black_high_45,black_low_135_up,white_low_45_up,8,1.764118054,0.2485389,left,4.5565343,1,8,15,1,1,1,1,TRUE,FALSE,low_3_mask_high,0.75,-1,3,FALSE,7,,,,,,,,,,,,,,,,,,,165,12,3.2.2021,164.9620587
297,"['low', 1, 'low']",1,white,0.473376509,135,right,up,low,low,white_low_45-black_low_135-black_low_45-white_low_135,white_low_135_up,black_low_45_up,31,1.755808158,0.2485529,right,0.8345126,1,31,17,1,1,1,1,TRUE,FALSE,low_1_mask_low,0.75,-1,3,FALSE,6,,,,,,,,,,,,,,,,,,,165,12,3.2.2021,164.9620587
298,"['low', 2, 'high']",2,white,0.137257701,135,right,up,low,high,white_high_135-white_high_135-black_high_45-black_high_135,white_low_135_up,black_low_45_up,9,1.769568,0.2488223,right,0.5956563,1,9,14,0,0,1,1,TRUE,FALSE,low_2_mask_high,0.75,-1,3,TRUE,5,,,,,,,,,,,,,,,,,,,165,12,3.2.2021,164.9620587
299,"['high', 2, 'high']",2,black,0.996999662,135,left,up,high,high,black_high_45-black_high_135-white_high_135-white_high_135,black_high_135_up,white_high_45_up,15,1.226134866,0.2485539,right,1.7277807,0,15,17,1,1,1,1,TRUE,FALSE,high_2_mask_high,0.75,-1,3,TRUE,11,,,,,,,,,,,,,,,,,,,165,12,3.2.2021,164.9620587
300,"['med', 2, 'low']",2,black,0.924172622,45,right,down,med,low,white_low_135-white_low_45-black_low_135-black_low_45,black_med_45_down,white_med_135_down,25,1.763766851,0.2485322,right,0.0348259,1,25,15,0,1,1,1,TRUE,FALSE,med_2_mask_low,0.75,-1,3,TRUE,11,,,,,,,,,,,,,,,,,,,165,12,3.2.2021,164.9620587
301,"['low', 2, 'high']",2,black,0.129249522,135,left,down,low,high,black_high_135-white_high_135-white_high_135-black_high_45,black_low_135_down,white_low_45_down,8,1.640854003,0.248552,right,0.3703836,0,8,15,1,1,1,1,TRUE,FALSE,low_2_mask_high,0.75,-1,3,TRUE,6,,,,,,,,,,,,,,,,,,,165,12,3.2.2021,164.9620587
302,"['low', 2, 'low']",2,white,0.414461176,135,right,up,low,low,white_low_135-black_low_45-white_low_45-black_low_135,white_low_135_up,black_low_45_up,8,1.990730327,0.2485474,right,1.0129907,1,8,15,1,1,1,1,TRUE,FALSE,low_2_mask_low,0.75,-1,3,FALSE,7,,,,,,,,,,,,,,,,,,,165,12,3.2.2021,164.9620587
303,"['med', 1, 'low']",1,white,0.959736898,135,right,up,med,low,black_low_45-white_low_45-black_low_135-white_low_135,white_med_135_up,black_med_45_up,28,1.532113508,0.2485552,right,0.7440449,1,28,20,1,1,1,1,TRUE,FALSE,med_1_mask_low,0.75,-1,3,FALSE,7,,,,,,,,,,,,,,,,,,,165,12,3.2.2021,164.9620587
304,"['med', 2, 'high']",2,black,0.763353694,45,right,up,med,high,white_high_135-black_high_135-white_high_135-black_high_45,black_med_45_up,white_med_135_up,13,1.52660129,0.248561,left,0.312153,0,13,19,1,1,1,1,TRUE,FALSE,med_2_mask_high,0.75,-1,3,TRUE,10,,,,,,,,,,,,,,,,,,,165,12,3.2.2021,164.9620587
305,"['high', 2, 'high']",2,black,0.718356217,135,left,down,high,high,white_high_135-white_high_135-black_high_45-black_high_135,black_high_135_down,white_high_45_down,18,1.135141105,0.2485439,right,2.7696403,0,18,18,0,1,1,1,TRUE,FALSE,high_2_mask_high,0.75,-1,3,FALSE,11,,,,,,,,,,,,,,,,,,,165,12,3.2.2021,164.9620587
306,"['med', 1, 'low']",1,black,0.519583919,45,right,down,med,low,black_low_135-white_low_45-white_low_135-black_low_45,black_med_45_down,white_med_135_down,27,1.191895823,0.2485428,right,3.5414036,1,27,21,1,1,1,1,TRUE,FALSE,med_1_mask_low,0.75,-1,3,FALSE,7,,,,,,,,,,,,,,,,,,,165,12,3.2.2021,164.9620587
307,"['med', 1, 'high']",1,white,0.70491871,45,left,down,med,high,white_high_135-black_high_135-black_high_45-white_high_135,white_med_45_down,black_med_135_down,22,1.26416421,0.2485595,left,3.2516395,1,22,10,0,1,1,1,TRUE,FALSE,med_1_mask_high,0.75,-1,3,TRUE,7,,,,,,,,,,,,,,,,,,,165,12,3.2.2021,164.9620587
308,"['med', 2, 'low']",2,black,0.670572923,135,left,up,med,low,white_low_45-black_low_135-black_low_45-white_low_135,black_med_135_up,white_med_45_up,24,1.174373345,0.2485501,left,2.4675456,1,24,16,1,1,1,1,TRUE,FALSE,med_2_mask_low,0.75,-1,3,FALSE,11,,,,,,,,,,,,,,,,,,,165,12,3.2.2021,164.9620587
309,"['med', 2, 'high']",2,white,0.527127151,135,right,up,med,high,black_high_45-black_high_135-white_high_135-white_high_135,white_med_135_up,black_med_45_up,16,1.544885797,0.2485448,right,0.4075033,1,16,20,0,1,1,1,TRUE,FALSE,med_2_mask_high,0.75,-1,3,TRUE,11,,,,,,,,,,,,,,,,,,,165,12,3.2.2021,164.9620587
310,"['med', 1, 'high']",1,white,0.71112023,45,left,down,med,high,black_high_135-white_high_135-black_high_45-white_high_135,white_med_45_down,black_med_135_down,21,1.860775645,0.2467723,left,0.3936693,1,21,11,1,1,1,1,TRUE,FALSE,med_1_mask_high,0.75,-1,3,FALSE,7,,,,,,,,,,,,,,,,,,,165,12,3.2.2021,164.9620587
311,"['high', 1, 'high']",1,white,0.393322322,135,right,down,high,high,white_high_135-black_high_135-black_high_45-white_high_135,white_high_135_down,black_high_45_down,28,1.642232053,0.2487898,right,0.265259,1,28,16,1,1,1,1,TRUE,FALSE,high_1_mask_high,0.75,-1,3,FALSE,6,,,,,,,,,,,,,,,,,,,165,12,3.2.2021,164.9620587
312,"['high', 1, 'low']",1,white,0.280886401,135,right,down,high,low,white_low_45-black_low_45-white_low_135-black_low_135,white_high_135_down,black_high_45_down,34,1.004911563,0.2485565,right,0.1831412,1,34,18,1,1,1,1,TRUE,FALSE,high_1_mask_low,0.75,-1,3,FALSE,10,,,,,,,,,,,,,,,,,,,165,12,3.2.2021,164.9620587
313,"['med', 2, 'low']",2,black,0.569110503,135,left,up,med,low,black_low_45-white_low_45-black_low_135-white_low_135,black_med_135_up,white_med_45_up,23,1.453572774,0.2467684,right,0.1701934,0,23,17,1,1,1,1,TRUE,FALSE,med_2_mask_low,0.75,-1,3,TRUE,12,,,,,,,,,,,,,,,,,,,165,12,3.2.2021,164.9620587
314,"['high', 1, 'high']",1,white,0.197988852,45,left,up,high,high,white_high_135-black_high_135-white_high_135-black_high_45,white_high_45_up,black_high_135_up,27,1.902569757,0.2485381,left,0.4064656,1,27,17,1,1,1,1,TRUE,FALSE,high_1_mask_high,0.75,-1,3,FALSE,6,,,,,,,,,,,,,,,,,,,165,12,3.2.2021,164.9620587
315,"['low', 1, 'low']",1,black,0.544915595,45,right,down,low,low,black_low_45-white_low_45-black_low_135-white_low_135,black_low_45_down,white_low_135_down,30,1.497671762,0.2485484,right,0.4931439,1,30,18,1,1,1,1,TRUE,FALSE,low_1_mask_low,0.75,-1,3,FALSE,6,,,,,,,,,,,,,,,,,,,165,12,3.2.2021,164.9620587
316,"['low', 3, 'high']",3,white,0.75392749,135,right,up,low,high,black_high_135-black_high_45-white_high_135-white_high_135,white_low_135_up,black_low_45_up,7,1.148039741,0.2485497,right,0.1363971,1,7,16,1,1,1,1,TRUE,FALSE,low_3_mask_high,0.75,-1,3,FALSE,7,,,,,,,,,,,,,,,,,,,165,12,3.2.2021,164.9620587
317,"['high', 1, 'low']",1,white,0.412874984,45,left,up,high,low,white_low_135-white_low_45-black_low_45-black_low_135,white_high_45_up,black_high_135_up,33,1.153866532,0.2485414,left,0.4442208,1,33,19,1,1,1,1,TRUE,FALSE,high_1_mask_low,0.75,-1,3,FALSE,10,,,,,,,,,,,,,,,,,,,165,12,3.2.2021,164.9620587
318,"['low', 3, 'high']",3,black,0.363516269,135,left,down,low,high,black_high_45-white_high_135-white_high_135-black_high_135,black_low_135_down,white_low_45_down,6,1.955351182,0.248551,right,0.3941498,0,6,17,1,1,1,1,TRUE,FALSE,low_3_mask_high,0.75,-1,3,TRUE,8,,,,,,,,,,,,,,,,,,,165,12,3.2.2021,164.9620587
319,"['low', 1, 'low']",1,white,0.469421634,45,left,down,low,low,black_low_135-white_low_135-white_low_45-black_low_45,white_low_45_down,black_low_135_down,29,1.734450632,0.2485586,left,0.3287025,1,29,19,1,1,1,1,TRUE,FALSE,low_1_mask_low,0.75,-1,3,FALSE,6,,,,,,,,,,,,,,,,,,,165,12,3.2.2021,164.9620587
320,"['low', 1, 'high']",1,white,0.714636317,135,right,up,low,high,black_high_135-white_high_135-white_high_135-black_high_45,white_low_135_up,black_low_45_up,12,1.646202711,0.2488144,right,0.0508019,1,12,8,1,0,1,1,TRUE,FALSE,low_1_mask_high,0.75,-1,3,FALSE,2,,,,,,,,,,,,,,,,,,,165,12,3.2.2021,164.9620587
321,"['low', 2, 'low']",2,black,0.416141969,45,right,up,low,low,white_low_135-black_low_135-black_low_45-white_low_45,black_low_45_up,white_low_135_up,7,1.656185413,0.2485264,left,1.5654522,0,7,16,1,1,1,1,TRUE,FALSE,low_2_mask_low,0.75,-1,3,TRUE,8,,,,,,,,,,,,,,,,,,,165,12,3.2.2021,164.9620587
322,"['high', 1, 'low']",1,black,0.894701809,135,left,down,high,low,black_low_135-white_low_135-white_low_45-black_low_45,black_high_135_down,white_high_45_down,32,1.563909158,0.246753,right,2.0405588,0,32,20,1,1,1,1,TRUE,FALSE,high_1_mask_low,0.75,-1,3,TRUE,11,,,,,,,,,,,,,,,,,,,165,12,3.2.2021,164.9620587
323,"['med', 2, 'high']",2,black,0.285759616,135,left,down,med,high,white_high_135-white_high_135-black_high_45-black_high_135,black_med_135_down,white_med_45_down,15,1.001346344,0.2485514,right,0.4266444,0,15,21,1,1,1,1,TRUE,FALSE,med_2_mask_high,0.75,-1,3,TRUE,12,,,,,,,,,,,,,,,,,,,165,12,3.2.2021,164.9620587
