trial_number,trial_type,cycle_number,first_color,phase,first_orientation,correct_response,visual_field,spatial_frequency,mask_type,mask_images,first_stim,second_stim,stimulus_frame_duration,fixation_duration,mask_duration,answer,rt,accuracy,staircase_dv,staircase_trial_num,staircase_previous_correct,staircase_phase,staircase_step_size,staircase_powers_law,staircase_siam,staircase_over,staircase_name,staircase_conv_p,staircase_step_hit,staircase_step_miss,staircase_reversal,staircase_reversal_num,threshold_low1_mask_low,threshold_low2_mask_low,threshold_low3_mask_low,threshold_low1_mask_high,threshold_low2_mask_high,threshold_low3_mask_high,threshold_high1_mask_low,threshold_high2_mask_low,threshold_high3_mask_low,threshold_high1_mask_high,threshold_high2_mask_high,threshold_high3_mask_high,threshold_med1_mask_low,threshold_med2_mask_low,threshold_med3_mask_low,threshold_med1_mask_high,threshold_med2_mask_high,threshold_med3_mask_high,frame_rate,participant,psychopyVersion,frame_rate_detected
0,"['med', 3, 'high']",3,white,0.12163178,45,left,up,med,high,black_high_45-black_high_135-white_high_135-white_high_135,white_med_45_up,black_med_135_up,8,1.569495372,0.2485411,left,0.2115025,1,8,0,None,0,1,1,TRUE,FALSE,med_3_mask_high,0.75,-1,3,FALSE,0,,,,,,,,,,,,,,,,,,,165,5,3.2.2021,165.151948
1,"['high', 3, 'low']",3,white,0.709662861,45,left,up,high,low,black_low_135-white_low_45-black_low_45-white_low_135,white_high_45_up,black_high_135_up,8,1.649316668,0.2485295,left,0.4863749,1,8,0,None,0,1,1,TRUE,FALSE,high_3_mask_low,0.75,-1,3,FALSE,0,,,,,,,,,,,,,,,,,,,165,5,3.2.2021,165.151948
2,"['low', 2, 'low']",2,black,0.668240035,45,right,up,low,low,white_low_45-white_low_135-black_low_45-black_low_135,black_low_45_up,white_low_135_up,3,1.688945704,0.2485427,left,0.2425882,0,3,0,None,0,1,1,TRUE,FALSE,low_2_mask_low,0.75,-1,3,FALSE,0,,,,,,,,,,,,,,,,,,,165,5,3.2.2021,165.151948
3,"['med', 2, 'low']",2,white,0.687053471,135,right,down,med,low,black_low_135-white_low_45-black_low_45-white_low_135,white_med_135_down,black_med_45_down,8,1.875761646,0.2485429,right,0.2975187,1,8,0,None,0,1,1,TRUE,FALSE,med_2_mask_low,0.75,-1,3,FALSE,0,,,,,,,,,,,,,,,,,,,165,5,3.2.2021,165.151948
4,"['high', 1, 'high']",1,black,0.075243165,45,right,down,high,high,white_high_135-white_high_135-black_high_135-black_high_45,black_high_45_down,white_high_135_down,12,1.317250416,0.2488053,right,0.5279758,1,12,0,None,0,1,1,TRUE,FALSE,high_1_mask_high,0.75,-1,3,FALSE,0,,,,,,,,,,,,,,,,,,,165,5,3.2.2021,165.151948
5,"['high', 2, 'low']",2,black,0.008785049,135,left,down,high,low,black_low_45-black_low_135-white_low_135-white_low_45,black_high_135_down,white_high_45_down,8,1.60091911,0.2467213,left,0.7075896,1,8,0,None,0,1,1,TRUE,FALSE,high_2_mask_low,0.75,-1,3,FALSE,0,,,,,,,,,,,,,,,,,,,165,5,3.2.2021,165.151948
6,"['low', 2, 'high']",2,white,0.674160295,135,right,up,low,high,white_high_135-white_high_135-black_high_45-black_high_135,white_low_135_up,black_low_45_up,3,1.009146125,0.2485525,right,0.9110416,1,3,0,None,0,1,1,TRUE,FALSE,low_2_mask_high,0.75,-1,3,FALSE,0,,,,,,,,,,,,,,,,,,,165,5,3.2.2021,165.151948
7,"['high', 1, 'high']",1,black,0.18278158,135,left,up,high,high,black_high_135-white_high_135-white_high_135-black_high_45,black_high_135_up,white_high_45_up,11,1.190767824,0.2485575,right,0.5111885,0,11,1,1,0,1,1,TRUE,FALSE,high_1_mask_high,0.75,-1,3,TRUE,1,,,,,,,,,,,,,,,,,,,165,5,3.2.2021,165.151948
8,"['low', 1, 'low']",1,white,0.216330516,45,left,up,low,low,black_low_45-white_low_45-white_low_135-black_low_135,white_low_45_up,black_low_135_up,8,1.600315618,0.2467365,left,0.444595,1,8,0,None,0,1,1,TRUE,FALSE,low_1_mask_low,0.75,-1,3,FALSE,0,,,,,,,,,,,,,,,,,,,165,5,3.2.2021,165.151948
9,"['high', 1, 'high']",1,white,0.721613686,135,right,down,high,high,black_high_135-black_high_45-white_high_135-white_high_135,white_high_135_down,black_high_45_down,14,1.348955639,0.2485532,right,1.5811272,1,14,2,0,0,1,1,TRUE,FALSE,high_1_mask_high,0.75,-1,3,TRUE,2,,,,,,,,,,,,,,,,,,,165,5,3.2.2021,165.151948
10,"['high', 2, 'low']",2,black,0.95193062,135,left,down,high,low,white_low_135-black_low_45-black_low_135-white_low_45,black_high_135_down,white_high_45_down,7,1.222640058,0.2485549,left,0.503569,1,7,1,1,0,1,1,TRUE,FALSE,high_2_mask_low,0.75,-1,3,FALSE,0,,,,,,,,,,,,,,,,,,,165,5,3.2.2021,165.151948
11,"['high', 3, 'low']",3,white,0.301148395,135,right,down,high,low,black_low_45-white_low_45-white_low_135-black_low_135,white_high_135_down,black_high_45_down,7,1.257286013,0.2485417,left,0.4524317,0,7,1,1,0,1,1,TRUE,FALSE,high_3_mask_low,0.75,-1,3,TRUE,1,,,,,,,,,,,,,,,,,,,165,5,3.2.2021,165.151948
12,"['med', 1, 'high']",1,white,0.882517162,45,left,up,med,high,white_high_135-black_high_135-black_high_45-white_high_135,white_med_45_up,black_med_135_up,12,1.079907035,0.2485437,left,0.6672639,1,12,0,None,0,1,1,TRUE,FALSE,med_1_mask_high,0.75,-1,3,FALSE,0,,,,,,,,,,,,,,,,,,,165,5,3.2.2021,165.151948
13,"['low', 2, 'low']",2,white,0.797435921,45,left,down,low,low,white_low_45-black_low_135-white_low_135-black_low_45,white_low_45_down,black_low_135_down,6,1.66407907,0.2503215,right,0.5522695,0,6,1,0,0,1,1,TRUE,FALSE,low_2_mask_low,0.75,-1,3,FALSE,0,,,,,,,,,,,,,,,,,,,165,5,3.2.2021,165.151948
14,"['high', 3, 'low']",3,black,0.057613331,45,right,up,high,low,white_low_45-black_low_45-white_low_135-black_low_135,black_high_45_up,white_high_135_up,10,1.297485961,0.248551,left,0.6526166,0,10,2,0,0,1,1,TRUE,FALSE,high_3_mask_low,0.75,-1,3,FALSE,1,,,,,,,,,,,,,,,,,,,165,5,3.2.2021,165.151948
15,"['low', 3, 'high']",3,black,0.339234584,45,right,down,low,high,white_high_135-black_high_135-white_high_135-black_high_45,black_low_45_down,white_low_135_down,3,1.190676999,0.2485589,left,0.5861586,0,3,0,None,0,1,1,TRUE,FALSE,low_3_mask_high,0.75,-1,3,FALSE,0,,,,,,,,,,,,,,,,,,,165,5,3.2.2021,165.151948
16,"['med', 2, 'low']",2,white,0.5366617,45,left,up,med,low,white_low_45-black_low_135-white_low_135-black_low_45,white_med_45_up,black_med_135_up,7,1.834885239,0.2467172,right,0.5278922,0,7,1,1,0,1,1,TRUE,FALSE,med_2_mask_low,0.75,-1,3,TRUE,1,,,,,,,,,,,,,,,,,,,165,5,3.2.2021,165.151948
17,"['low', 1, 'low']",1,black,0.993569408,45,right,down,low,low,white_low_45-black_low_135-white_low_135-black_low_45,black_low_45_down,white_low_135_down,7,1.052471409,0.2485298,left,0.6424541,0,7,1,1,0,1,1,TRUE,FALSE,low_1_mask_low,0.75,-1,3,TRUE,1,,,,,,,,,,,,,,,,,,,165,5,3.2.2021,165.151948
18,"['med', 2, 'low']",2,black,0.417863613,45,right,down,med,low,black_low_135-white_low_45-black_low_45-white_low_135,black_med_45_down,white_med_135_down,10,1.750751722,0.246739,right,0.3791129,1,10,2,0,0,1,1,TRUE,FALSE,med_2_mask_low,0.75,-1,3,TRUE,2,,,,,,,,,,,,,,,,,,,165,5,3.2.2021,165.151948
19,"['high', 3, 'low']",3,black,0.020269965,45,right,down,high,low,white_low_135-white_low_45-black_low_135-black_low_45,black_high_45_down,white_high_135_down,13,1.92903258,0.2488209,right,1.2535076,1,13,3,0,0,1,1,TRUE,FALSE,high_3_mask_low,0.75,-1,3,TRUE,2,,,,,,,,,,,,,,,,,,,165,5,3.2.2021,165.151948
20,"['med', 2, 'high']",2,black,0.423696927,45,right,up,med,high,white_high_135-white_high_135-black_high_135-black_high_45,black_med_45_up,white_med_135_up,8,1.030213398,0.2485516,right,0.4997997,1,8,0,None,0,1,1,TRUE,FALSE,med_2_mask_high,0.75,-1,3,FALSE,0,,,,,,,,,,,,,,,,,,,165,5,3.2.2021,165.151948
21,"['med', 1, 'low']",1,white,0.295987066,135,right,down,med,low,black_low_135-black_low_45-white_low_45-white_low_135,white_med_135_down,black_med_45_down,12,1.557786911,0.2467816,left,0.9367543,0,12,0,None,0,1,1,TRUE,FALSE,med_1_mask_low,0.75,-1,3,FALSE,0,,,,,,,,,,,,,,,,,,,165,5,3.2.2021,165.151948
22,"['high', 3, 'low']",3,white,0.307723065,135,right,down,high,low,black_low_135-white_low_135-black_low_45-white_low_45,white_high_135_down,black_high_45_down,12,1.013430556,0.2502812,left,0.817043,0,12,4,1,0,1,1,TRUE,FALSE,high_3_mask_low,0.75,-1,3,TRUE,3,,,,,,,,,,,,,,,,,,,165,5,3.2.2021,165.151948
23,"['low', 2, 'high']",2,white,0.77890483,45,left,up,low,high,white_high_135-black_high_45-black_high_135-white_high_135,white_low_45_up,black_low_135_up,2,1.27236857,0.250293,right,0.505992,0,2,1,1,0,1,1,TRUE,FALSE,low_2_mask_high,0.75,-1,3,TRUE,1,,,,,,,,,,,,,,,,,,,165,5,3.2.2021,165.151948
24,"['low', 1, 'high']",1,white,0.577243521,45,left,up,low,high,white_high_135-black_high_135-white_high_135-black_high_45,white_low_45_up,black_low_135_up,8,1.303202633,0.2485505,right,0.5051565,0,8,0,None,0,1,1,TRUE,FALSE,low_1_mask_high,0.75,-1,3,FALSE,0,,,,,,,,,,,,,,,,,,,165,5,3.2.2021,165.151948
25,"['high', 2, 'low']",2,black,0.135815936,45,right,down,high,low,black_low_45-white_low_45-white_low_135-black_low_135,black_high_45_down,white_high_135_down,6,1.682992367,0.2470581,right,0.945225,1,6,2,1,0,1,1,TRUE,FALSE,high_2_mask_low,0.75,-1,3,FALSE,0,,,,,,,,,,,,,,,,,,,165,5,3.2.2021,165.151948
26,"['med', 3, 'high']",3,black,0.444986771,45,right,down,med,high,white_high_135-black_high_45-white_high_135-black_high_135,black_med_45_down,white_med_135_down,7,1.919719145,0.2485448,right,0.7416847,1,7,1,1,0,1,1,TRUE,FALSE,med_3_mask_high,0.75,-1,3,FALSE,0,,,,,,,,,,,,,,,,,,,165,5,3.2.2021,165.151948
27,"['med', 3, 'low']",3,white,0.861040067,45,left,down,med,low,white_low_135-black_low_45-black_low_135-white_low_45,white_med_45_down,black_med_135_down,8,1.44345673,0.2485565,left,0.3933243,1,8,0,None,0,1,1,TRUE,FALSE,med_3_mask_low,0.75,-1,3,FALSE,0,,,,,,,,,,,,,,,,,,,165,5,3.2.2021,165.151948
28,"['low', 3, 'high']",3,black,0.970192398,135,left,up,low,high,white_high_135-white_high_135-black_high_45-black_high_135,black_low_135_up,white_low_45_up,6,1.15041464,0.2485512,right,0.7633117,0,6,1,0,0,1,1,TRUE,FALSE,low_3_mask_high,0.75,-1,3,FALSE,0,,,,,,,,,,,,,,,,,,,165,5,3.2.2021,165.151948
29,"['low', 1, 'low']",1,black,0.79633555,135,left,up,low,low,black_low_135-white_low_45-black_low_45-white_low_135,black_low_135_up,white_low_45_up,10,1.935371692,0.2467573,left,1.6875283,1,10,2,0,0,1,1,TRUE,FALSE,low_1_mask_low,0.75,-1,3,TRUE,2,,,,,,,,,,,,,,,,,,,165,5,3.2.2021,165.151948
30,"['med', 3, 'high']",3,white,0.177854074,135,right,down,med,high,white_high_135-black_high_45-black_high_135-white_high_135,white_med_135_down,black_med_45_down,6,1.695031827,0.2467261,left,0.2782557,0,6,2,1,0,1,1,TRUE,FALSE,med_3_mask_high,0.75,-1,3,TRUE,1,,,,,,,,,,,,,,,,,,,165,5,3.2.2021,165.151948
31,"['med', 1, 'high']",1,black,0.63946009,135,left,up,med,high,black_high_135-black_high_45-white_high_135-white_high_135,black_med_135_up,white_med_45_up,11,1.580478412,0.2485479,left,0.3426822,1,11,1,1,0,1,1,TRUE,FALSE,med_1_mask_high,0.75,-1,3,FALSE,0,,,,,,,,,,,,,,,,,,,165,5,3.2.2021,165.151948
32,"['high', 1, 'low']",1,white,0.809513963,135,right,down,high,low,black_low_135-black_low_45-white_low_45-white_low_135,white_high_135_down,black_high_45_down,12,1.439453142,0.2470568,right,0.5114312,1,12,0,None,0,1,1,TRUE,FALSE,high_1_mask_low,0.75,-1,3,FALSE,0,,,,,,,,,,,,,,,,,,,165,5,3.2.2021,165.151948
33,"['low', 3, 'low']",3,white,0.02553942,45,left,down,low,low,black_low_135-white_low_45-white_low_135-black_low_45,white_low_45_down,black_low_135_down,3,1.027415031,0.2485635,left,0.6623052,1,3,0,None,0,1,1,TRUE,FALSE,low_3_mask_low,0.75,-1,3,FALSE,0,,,,,,,,,,,,,,,,,,,165,5,3.2.2021,165.151948
34,"['med', 1, 'low']",1,white,0.706878065,135,right,down,med,low,black_low_45-white_low_135-white_low_45-black_low_135,white_med_135_down,black_med_45_down,15,1.591020137,0.2503435,right,0.304724,1,15,1,0,0,1,1,TRUE,FALSE,med_1_mask_low,0.75,-1,3,TRUE,1,,,,,,,,,,,,,,,,,,,165,5,3.2.2021,165.151948
35,"['high', 3, 'high']",3,black,0.354418209,45,right,down,high,high,white_high_135-black_high_135-white_high_135-black_high_45,black_high_45_down,white_high_135_down,8,1.554309654,0.2488226,right,0.74636,1,8,0,None,0,1,1,TRUE,FALSE,high_3_mask_high,0.75,-1,3,FALSE,0,,,,,,,,,,,,,,,,,,,165,5,3.2.2021,165.151948
36,"['low', 2, 'low']",2,black,0.902635202,45,right,down,low,low,black_low_45-black_low_135-white_low_135-white_low_45,black_low_45_down,white_low_135_down,9,1.438975238,0.2466678,left,0.8212376,0,9,2,0,0,1,1,TRUE,FALSE,low_2_mask_low,0.75,-1,3,FALSE,0,,,,,,,,,,,,,,,,,,,165,5,3.2.2021,165.151948
37,"['high', 1, 'low']",1,black,0.84274986,135,left,up,high,low,white_low_45-white_low_135-black_low_45-black_low_135,black_high_135_up,white_high_45_up,11,1.848155859,0.248546,right,0.4301423,0,11,1,1,0,1,1,TRUE,FALSE,high_1_mask_low,0.75,-1,3,TRUE,1,,,,,,,,,,,,,,,,,,,165,5,3.2.2021,165.151948
38,"['low', 3, 'low']",3,white,0.387789764,135,right,down,low,low,white_low_45-white_low_135-black_low_45-black_low_135,white_low_135_down,black_low_45_down,2,1.72487032,0.2467225,left,0.3291429,0,2,1,1,0,1,1,TRUE,FALSE,low_3_mask_low,0.75,-1,3,TRUE,1,,,,,,,,,,,,,,,,,,,165,5,3.2.2021,165.151948
39,"['med', 3, 'low']",3,white,0.827566344,135,right,down,med,low,white_low_45-black_low_45-black_low_135-white_low_135,white_med_135_down,black_med_45_down,7,1.713303047,0.2485494,right,0.8368431,1,7,1,1,0,1,1,TRUE,FALSE,med_3_mask_low,0.75,-1,3,FALSE,0,,,,,,,,,,,,,,,,,,,165,5,3.2.2021,165.151948
40,"['high', 3, 'high']",3,white,0.974659935,135,right,down,high,high,black_high_45-white_high_135-white_high_135-black_high_135,white_high_135_down,black_high_45_down,7,1.316948523,0.248527,left,0.3059465,0,7,1,1,0,1,1,TRUE,FALSE,high_3_mask_high,0.75,-1,3,TRUE,1,,,,,,,,,,,,,,,,,,,165,5,3.2.2021,165.151948
41,"['high', 2, 'high']",2,white,0.716252737,135,right,up,high,high,black_high_135-white_high_135-white_high_135-black_high_45,white_high_135_up,black_high_45_up,8,1.604369727,0.2485574,right,0.4208229,1,8,0,None,0,1,1,TRUE,FALSE,high_2_mask_high,0.75,-1,3,FALSE,0,,,,,,,,,,,,,,,,,,,165,5,3.2.2021,165.151948
42,"['low', 2, 'low']",2,white,0.286341389,135,right,down,low,low,white_low_135-white_low_45-black_low_135-black_low_45,white_low_135_down,black_low_45_down,12,1.590476453,0.2485443,right,0.3873523,1,12,3,0,0,1,1,TRUE,FALSE,low_2_mask_low,0.75,-1,3,TRUE,1,,,,,,,,,,,,,,,,,,,165,5,3.2.2021,165.151948
43,"['low', 1, 'high']",1,black,0.126711416,135,left,up,low,high,black_high_135-white_high_135-black_high_45-white_high_135,black_low_135_up,white_low_45_up,11,1.670940181,0.2485567,right,0.2491946,0,11,1,0,0,1,1,TRUE,FALSE,low_1_mask_high,0.75,-1,3,FALSE,0,,,,,,,,,,,,,,,,,,,165,5,3.2.2021,165.151948
44,"['med', 1, 'high']",1,black,0.975683022,45,right,down,med,high,black_high_135-white_high_135-white_high_135-black_high_45,black_med_45_down,white_med_135_down,10,1.72534807,0.2488324,right,0.5473104,1,10,2,1,0,1,1,TRUE,FALSE,med_1_mask_high,0.75,-1,3,FALSE,0,,,,,,,,,,,,,,,,,,,165,5,3.2.2021,165.151948
45,"['med', 2, 'low']",2,black,0.593514999,135,left,down,med,low,black_low_45-white_low_135-white_low_45-black_low_135,black_med_135_down,white_med_45_down,9,1.525405122,0.2450484,left,0.1288469,1,9,3,1,0,1,1,TRUE,FALSE,med_2_mask_low,0.75,-1,3,FALSE,2,,,,,,,,,,,,,,,,,,,165,5,3.2.2021,165.151948
46,"['high', 1, 'low']",1,black,0.318049904,135,left,up,high,low,black_low_135-black_low_45-white_low_135-white_low_45,black_high_135_up,white_high_45_up,14,1.909186282,0.2485515,right,0.1288691,0,14,2,0,0,1,1,TRUE,FALSE,high_1_mask_low,0.75,-1,3,FALSE,1,,,,,,,,,,,,,,,,,,,165,5,3.2.2021,165.151948
47,"['high', 2, 'high']",2,black,0.05285659,135,left,down,high,high,black_high_45-white_high_135-black_high_135-white_high_135,black_high_135_down,white_high_45_down,7,1.510907505,0.246747,left,0.4201542,1,7,1,1,0,1,1,TRUE,FALSE,high_2_mask_high,0.75,-1,3,FALSE,0,,,,,,,,,,,,,,,,,,,165,5,3.2.2021,165.151948
48,"['low', 3, 'high']",3,black,0.758678291,45,right,down,low,high,black_high_135-white_high_135-black_high_45-white_high_135,black_low_45_down,white_low_135_down,9,1.163246983,0.2485336,right,0.3795148,1,9,2,0,0,1,1,TRUE,FALSE,low_3_mask_high,0.75,-1,3,TRUE,1,,,,,,,,,,,,,,,,,,,165,5,3.2.2021,165.151948
49,"['high', 1, 'high']",1,white,0.524408743,135,right,up,high,high,white_high_135-white_high_135-black_high_45-black_high_135,white_high_135_up,black_high_45_up,13,1.251396377,0.2485542,right,0.3098972,1,13,3,1,0,1,1,TRUE,FALSE,high_1_mask_high,0.75,-1,3,FALSE,2,,,,,,,,,,,,,,,,,,,165,5,3.2.2021,165.151948
50,"['low', 2, 'high']",2,black,0.857726247,45,right,up,low,high,white_high_135-black_high_45-white_high_135-black_high_135,black_low_45_up,white_low_135_up,5,1.173736681,0.2485362,right,0.5784209,1,5,2,0,0,1,1,TRUE,FALSE,low_2_mask_high,0.75,-1,3,TRUE,2,,,,,,,,,,,,,,,,,,,165,5,3.2.2021,165.151948
51,"['med', 1, 'low']",1,black,0.559319657,45,right,up,med,low,white_low_135-white_low_45-black_low_135-black_low_45,black_med_45_up,white_med_135_up,14,1.239344954,0.2485498,left,0.4015491,0,14,2,1,0,1,1,TRUE,FALSE,med_1_mask_low,0.75,-1,3,TRUE,2,,,,,,,,,,,,,,,,,,,165,5,3.2.2021,165.151948
52,"['med', 1, 'low']",1,white,0.29839553,45,left,up,med,low,white_low_45-white_low_135-black_low_45-black_low_135,white_med_45_up,black_med_135_up,17,1.240707735,0.2485482,left,0.2338163,1,17,3,0,0,1,1,TRUE,FALSE,med_1_mask_low,0.75,-1,3,TRUE,3,,,,,,,,,,,,,,,,,,,165,5,3.2.2021,165.151948
53,"['med', 3, 'high']",3,white,0.185784518,135,right,down,med,high,black_high_135-white_high_135-white_high_135-black_high_45,white_med_135_down,black_med_45_down,9,1.460062344,0.2485409,right,1.0558862,1,9,3,0,0,1,1,TRUE,FALSE,med_3_mask_high,0.75,-1,3,TRUE,2,,,,,,,,,,,,,,,,,,,165,5,3.2.2021,165.151948
54,"['med', 2, 'high']",2,white,0.476502447,135,right,down,med,high,white_high_135-black_high_45-white_high_135-black_high_135,white_med_135_down,black_med_45_down,7,1.468877286,0.2503272,left,0.3724008,0,7,1,1,0,1,1,TRUE,FALSE,med_2_mask_high,0.75,-1,3,TRUE,1,,,,,,,,,,,,,,,,,,,165,5,3.2.2021,165.151948
55,"['med', 2, 'high']",2,white,0.246935174,45,left,up,med,high,white_high_135-white_high_135-black_high_135-black_high_45,white_med_45_up,black_med_135_up,10,1.582871365,0.248542,left,0.3207186,1,10,2,0,0,1,1,TRUE,FALSE,med_2_mask_high,0.75,-1,3,TRUE,2,,,,,,,,,,,,,,,,,,,165,5,3.2.2021,165.151948
56,"['med', 1, 'low']",1,white,0.839572043,45,left,up,med,low,black_low_45-white_low_135-black_low_135-white_low_45,white_med_45_up,black_med_135_up,16,1.803293157,0.248564,left,0.4358874,1,16,4,1,0,1,1,TRUE,FALSE,med_1_mask_low,0.75,-1,3,FALSE,3,,,,,,,,,,,,,,,,,,,165,5,3.2.2021,165.151948
57,"['med', 1, 'low']",1,black,0.063265452,45,right,up,med,low,white_low_45-black_low_45-black_low_135-white_low_135,black_med_45_up,white_med_135_up,15,1.906217267,0.246774,left,0.2366665,0,15,5,1,0,1,1,TRUE,FALSE,med_1_mask_low,0.75,-1,3,TRUE,4,,,,,,,,,,,,,,,,,,,165,5,3.2.2021,165.151948
58,"['low', 1, 'low']",1,white,0.800545274,45,left,down,low,low,white_low_135-black_low_45-white_low_45-black_low_135,white_low_45_down,black_low_135_down,9,1.988148713,0.2467847,left,0.4946288,1,9,3,1,0,1,1,TRUE,FALSE,low_1_mask_low,0.75,-1,3,FALSE,2,,,,,,,,,,,,,,,,,,,165,5,3.2.2021,165.151948
59,"['med', 1, 'high']",1,white,0.3567891,135,right,up,med,high,black_high_135-white_high_135-white_high_135-black_high_45,white_med_135_up,black_med_45_up,9,1.683675991,0.2467387,right,0.4560905,1,9,3,1,0,1,1,TRUE,FALSE,med_1_mask_high,0.75,-1,3,FALSE,0,,,,,,,,,,,,,,,,,,,165,5,3.2.2021,165.151948
60,"['high', 3, 'low']",3,white,0.257317247,45,left,up,high,low,white_low_135-white_low_45-black_low_45-black_low_135,white_high_45_up,black_high_135_up,15,1.103304402,0.2485527,left,0.2350864,1,15,5,0,0,1,1,TRUE,FALSE,high_3_mask_low,0.75,-1,3,TRUE,4,,,,,,,,,,,,,,,,,,,165,5,3.2.2021,165.151948
61,"['med', 1, 'high']",1,white,0.710691363,135,right,up,med,high,black_high_135-white_high_135-white_high_135-black_high_45,white_med_135_up,black_med_45_up,8,1.746261097,0.2467829,right,0.5060655,1,8,4,1,0,1,1,TRUE,FALSE,med_1_mask_high,0.75,-1,3,FALSE,0,,,,,,,,,,,,,,,,,,,165,5,3.2.2021,165.151948
62,"['med', 3, 'low']",3,white,0.775336724,45,left,up,med,low,black_low_45-white_low_135-black_low_135-white_low_45,white_med_45_up,black_med_135_up,6,1.963098827,0.2485494,left,0.2234578,1,6,2,1,0,1,1,TRUE,FALSE,med_3_mask_low,0.75,-1,3,FALSE,0,,,,,,,,,,,,,,,,,,,165,5,3.2.2021,165.151948
63,"['med', 3, 'low']",3,white,0.157872026,45,left,down,med,low,black_low_45-white_low_45-white_low_135-black_low_135,white_med_45_down,black_med_135_down,5,1.596034805,0.2488289,left,0.3870029,1,5,3,1,0,1,1,TRUE,FALSE,med_3_mask_low,0.75,-1,3,FALSE,0,,,,,,,,,,,,,,,,,,,165,5,3.2.2021,165.151948
64,"['high', 2, 'low']",2,white,0.57041197,45,left,down,high,low,white_low_45-white_low_135-black_low_45-black_low_135,white_high_45_down,black_high_135_down,5,1.011136925,0.2470217,left,0.3617171,1,5,3,1,0,1,1,TRUE,FALSE,high_2_mask_low,0.75,-1,3,FALSE,0,,,,,,,,,,,,,,,,,,,165,5,3.2.2021,165.151948
65,"['low', 3, 'low']",3,white,0.711570354,135,right,up,low,low,black_low_45-white_low_45-black_low_135-white_low_135,white_low_135_up,black_low_45_up,5,1.231111977,0.2467734,left,0.4519807,0,5,2,0,0,1,1,TRUE,FALSE,low_3_mask_low,0.75,-1,3,FALSE,1,,,,,,,,,,,,,,,,,,,165,5,3.2.2021,165.151948
66,"['low', 1, 'low']",1,black,0.154643774,135,left,up,low,low,white_low_45-white_low_135-black_low_135-black_low_45,black_low_135_up,white_low_45_up,8,1.152105142,0.2485518,right,0.2906048,0,8,4,1,0,1,1,TRUE,FALSE,low_1_mask_low,0.75,-1,3,TRUE,3,,,,,,,,,,,,,,,,,,,165,5,3.2.2021,165.151948
67,"['high', 2, 'low']",2,white,0.703768589,135,right,down,high,low,white_low_135-black_low_135-black_low_45-white_low_45,white_high_135_down,black_high_45_down,4,1.237567699,0.2485448,right,0.3616772,1,4,4,1,0,1,1,TRUE,FALSE,high_2_mask_low,0.75,-1,3,FALSE,0,,,,,,,,,,,,,,,,,,,165,5,3.2.2021,165.151948
68,"['high', 1, 'high']",1,black,0.417761976,135,left,down,high,high,white_high_135-white_high_135-black_high_45-black_high_135,black_high_135_down,white_high_45_down,12,1.625404741,0.2467513,right,1.3119174,0,12,4,1,0,1,1,TRUE,FALSE,high_1_mask_high,0.75,-1,3,TRUE,3,,,,,,,,,,,,,,,,,,,165,5,3.2.2021,165.151948
69,"['high', 1, 'high']",1,black,0.264775975,45,right,down,high,high,black_high_135-white_high_135-black_high_45-white_high_135,black_high_45_down,white_high_135_down,15,1.263070032,0.2485489,left,0.4175887,0,15,5,0,0,1,1,TRUE,FALSE,high_1_mask_high,0.75,-1,3,FALSE,3,,,,,,,,,,,,,,,,,,,165,5,3.2.2021,165.151948
70,"['low', 3, 'high']",3,black,0.66953541,135,left,down,low,high,black_high_135-white_high_135-black_high_45-white_high_135,black_low_135_down,white_low_45_down,8,1.430608849,0.2485547,right,0.2948698,0,8,3,1,0,1,1,TRUE,FALSE,low_3_mask_high,0.75,-1,3,TRUE,2,,,,,,,,,,,,,,,,,,,165,5,3.2.2021,165.151948
71,"['med', 3, 'high']",3,black,0.18652752,135,left,down,med,high,white_high_135-white_high_135-black_high_135-black_high_45,black_med_135_down,white_med_45_down,8,1.775766761,0.2485466,right,0.5170082,0,8,4,1,0,1,1,TRUE,FALSE,med_3_mask_high,0.75,-1,3,TRUE,3,,,,,,,,,,,,,,,,,,,165,5,3.2.2021,165.151948
72,"['med', 2, 'high']",2,black,0.263796163,45,right,up,med,high,white_high_135-white_high_135-black_high_45-black_high_135,black_med_45_up,white_med_135_up,9,1.349803567,0.2485472,left,0.7826586,0,9,3,1,0,1,1,TRUE,FALSE,med_2_mask_high,0.75,-1,3,TRUE,3,,,,,,,,,,,,,,,,,,,165,5,3.2.2021,165.151948
73,"['med', 1, 'high']",1,black,0.733219905,135,left,up,med,high,white_high_135-black_high_135-black_high_45-white_high_135,black_med_135_up,white_med_45_up,7,1.78995723,0.2467184,right,0.3838252,0,7,5,1,0,1,1,TRUE,FALSE,med_1_mask_high,0.75,-1,3,TRUE,1,,,,,,,,,,,,,,,,,,,165,5,3.2.2021,165.151948
74,"['low', 2, 'low']",2,black,0.439941457,135,left,down,low,low,black_low_135-black_low_45-white_low_135-white_low_45,black_low_135_down,white_low_45_down,11,1.251293269,0.2485387,right,0.6355576,0,11,4,1,0,1,1,TRUE,FALSE,low_2_mask_low,0.75,-1,3,TRUE,2,,,,,,,,,,,,,,,,,,,165,5,3.2.2021,165.151948
75,"['low', 1, 'low']",1,white,0.393031416,135,right,down,low,low,black_low_45-white_low_135-white_low_45-black_low_135,white_low_135_down,black_low_45_down,11,1.482635431,0.2485547,right,0.1365304,1,11,5,0,0,1,1,TRUE,FALSE,low_1_mask_low,0.75,-1,3,TRUE,4,,,,,,,,,,,,,,,,,,,165,5,3.2.2021,165.151948
76,"['low', 1, 'high']",1,white,0.463145477,135,right,up,low,high,white_high_135-black_high_45-white_high_135-black_high_135,white_low_135_up,black_low_45_up,14,1.547033994,0.2501555,right,1.6513483,1,14,2,0,0,1,1,TRUE,FALSE,low_1_mask_high,0.75,-1,3,TRUE,1,,,,,,,,,,,,,,,,,,,165,5,3.2.2021,165.151948
77,"['low', 3, 'low']",3,black,0.917984778,45,right,down,low,low,black_low_135-black_low_45-white_low_45-white_low_135,black_low_45_down,white_low_135_down,8,1.29094307,0.2485543,left,0.1342912,0,8,3,0,0,1,1,TRUE,FALSE,low_3_mask_low,0.75,-1,3,FALSE,1,,,,,,,,,,,,,,,,,,,165,5,3.2.2021,165.151948
78,"['high', 1, 'high']",1,black,0.220214712,45,right,up,high,high,white_high_135-black_high_45-black_high_135-white_high_135,black_high_45_up,white_high_135_up,18,1.290806918,0.2485562,right,0.0334035,1,18,6,0,0,1,1,TRUE,FALSE,high_1_mask_high,0.75,-1,3,TRUE,4,,,,,,,,,,,,,,,,,,,165,5,3.2.2021,165.151948
79,"['low', 2, 'low']",2,black,0.973880719,45,right,down,low,low,black_low_45-black_low_135-white_low_135-white_low_45,black_low_45_down,white_low_135_down,14,1.95628877,0.2485556,left,0.5290799,0,14,5,0,0,1,1,TRUE,FALSE,low_2_mask_low,0.75,-1,3,FALSE,2,,,,,,,,,,,,,,,,,,,165,5,3.2.2021,165.151948
80,"['med', 3, 'high']",3,white,0.366276892,45,left,up,med,high,black_high_45-white_high_135-white_high_135-black_high_135,white_med_45_up,black_med_135_up,11,1.09938733,0.248812,right,0.3492539,0,11,5,0,0,1,1,TRUE,FALSE,med_3_mask_high,0.75,-1,3,FALSE,3,,,,,,,,,,,,,,,,,,,165,5,3.2.2021,165.151948
81,"['high', 1, 'low']",1,white,0.13357913,45,left,down,high,low,black_low_45-black_low_135-white_low_45-white_low_135,white_high_45_down,black_high_135_down,17,1.832688735,0.2485501,left,0.1115331,1,17,3,0,0,1,1,TRUE,FALSE,high_1_mask_low,0.75,-1,3,TRUE,2,,,,,,,,,,,,,,,,,,,165,5,3.2.2021,165.151948
82,"['low', 2, 'high']",2,white,0.23893471,45,left,down,low,high,white_high_135-white_high_135-black_high_135-black_high_45,white_low_45_down,black_low_135_down,4,1.412200431,0.2470318,left,0.2259654,1,4,3,1,0,1,1,TRUE,FALSE,low_2_mask_high,0.75,-1,3,FALSE,2,,,,,,,,,,,,,,,,,,,165,5,3.2.2021,165.151948
83,"['low', 1, 'low']",1,white,0.794010582,45,left,up,low,low,black_low_135-white_low_45-black_low_45-white_low_135,white_low_45_up,black_low_135_up,10,1.634464924,0.2485391,right,0.1616043,0,10,6,1,0,1,1,TRUE,FALSE,low_1_mask_low,0.75,-1,3,TRUE,5,,,,,,,,,,,,,,,,,,,165,5,3.2.2021,165.151948
84,"['high', 2, 'low']",2,white,0.919918523,135,right,up,high,low,black_low_45-black_low_135-white_low_45-white_low_135,white_high_135_up,black_high_45_up,3,1.117869218,0.2467624,left,0.2520813,0,3,5,1,0,1,1,TRUE,FALSE,high_2_mask_low,0.75,-1,3,TRUE,1,,,,,,,,,,,,,,,,,,,165,5,3.2.2021,165.151948
85,"['med', 3, 'high']",3,black,0.835148372,45,right,down,med,high,black_high_135-white_high_135-white_high_135-black_high_45,black_med_45_down,white_med_135_down,14,1.470248853,0.2485385,left,0.0744867,0,14,6,0,0,1,1,TRUE,FALSE,med_3_mask_high,0.75,-1,3,FALSE,3,,,,,,,,,,,,,,,,,,,165,5,3.2.2021,165.151948
86,"['med', 3, 'low']",3,white,0.346301265,135,right,up,med,low,white_low_45-black_low_45-black_low_135-white_low_135,white_med_135_up,black_med_45_up,4,1.804783828,0.2467436,right,0.3201594,1,4,4,1,0,1,1,TRUE,FALSE,med_3_mask_low,0.75,-1,3,FALSE,0,,,,,,,,,,,,,,,,,,,165,5,3.2.2021,165.151948
87,"['high', 3, 'low']",3,black,0.076629996,45,right,up,high,low,white_low_45-black_low_45-black_low_135-white_low_135,black_high_45_up,white_high_135_up,14,1.152589181,0.2485402,left,0.2745837,0,14,6,1,0,1,1,TRUE,FALSE,high_3_mask_low,0.75,-1,3,TRUE,5,,,,,,,,,,,,,,,,,,,165,5,3.2.2021,165.151948
88,"['high', 2, 'high']",2,black,0.532020638,45,right,up,high,high,white_high_135-black_high_135-black_high_45-white_high_135,black_high_45_up,white_high_135_up,6,1.872521086,0.2467858,right,0.1520395,1,6,2,1,0,1,1,TRUE,FALSE,high_2_mask_high,0.75,-1,3,FALSE,0,,,,,,,,,,,,,,,,,,,165,5,3.2.2021,165.151948
89,"['low', 3, 'low']",3,white,0.236495671,135,right,up,low,low,black_low_135-white_low_45-black_low_45-white_low_135,white_low_135_up,black_low_45_up,11,1.241469836,0.2485416,right,0.0296497,1,11,4,0,0,1,1,TRUE,FALSE,low_3_mask_low,0.75,-1,3,TRUE,2,,,,,,,,,,,,,,,,,,,165,5,3.2.2021,165.151948
90,"['low', 2, 'high']",2,white,0.074363614,135,right,up,low,high,black_high_135-white_high_135-black_high_45-white_high_135,white_low_135_up,black_low_45_up,3,1.798247367,0.2467818,right,0.2748261,1,3,4,1,0,1,1,TRUE,FALSE,low_2_mask_high,0.75,-1,3,FALSE,2,,,,,,,,,,,,,,,,,,,165,5,3.2.2021,165.151948
91,"['low', 1, 'high']",1,white,0.887308988,45,left,up,low,high,black_high_135-black_high_45-white_high_135-white_high_135,white_low_45_up,black_low_135_up,13,1.936583502,0.2485477,left,0.216808,1,13,3,1,0,1,1,TRUE,FALSE,low_1_mask_high,0.75,-1,3,FALSE,1,,,,,,,,,,,,,,,,,,,165,5,3.2.2021,165.151948
92,"['med', 2, 'low']",2,black,0.702958902,45,right,up,med,low,black_low_135-white_low_45-white_low_135-black_low_45,black_med_45_up,white_med_135_up,8,1.109931372,0.2485557,right,0.6045272,1,8,4,1,0,1,1,TRUE,FALSE,med_2_mask_low,0.75,-1,3,FALSE,2,,,,,,,,,,,,,,,,,,,165,5,3.2.2021,165.151948
93,"['med', 3, 'low']",3,white,0.296167955,135,right,up,med,low,white_low_45-white_low_135-black_low_135-black_low_45,white_med_135_up,black_med_45_up,3,1.983204759,0.2485475,right,0.7517929,1,3,5,1,0,1,1,TRUE,FALSE,med_3_mask_low,0.75,-1,3,FALSE,0,,,,,,,,,,,,,,,,,,,165,5,3.2.2021,165.151948
94,"['high', 3, 'low']",3,black,0.563391876,135,left,down,high,low,white_low_45-black_low_135-black_low_45-white_low_135,black_high_135_down,white_high_45_down,17,1.725301901,0.2485562,left,0.2277405,1,17,7,0,1,1,1,TRUE,FALSE,high_3_mask_low,0.75,-1,3,TRUE,6,,,,,,,,,,,,,,,,,,,165,5,3.2.2021,165.151948
95,"['low', 3, 'low']",3,white,0.846761162,45,left,up,low,low,black_low_135-white_low_45-white_low_135-black_low_45,white_low_45_up,black_low_135_up,10,1.491237059,0.248549,left,0.2420451,1,10,5,1,0,1,1,TRUE,FALSE,low_3_mask_low,0.75,-1,3,FALSE,2,,,,,,,,,,,,,,,,,,,165,5,3.2.2021,165.151948
96,"['high', 1, 'high']",1,white,0.397282109,135,right,down,high,high,black_high_135-black_high_45-white_high_135-white_high_135,white_high_135_down,black_high_45_down,17,1.644238137,0.2485214,right,0.2592554,1,17,7,1,0,1,1,TRUE,FALSE,high_1_mask_high,0.75,-1,3,FALSE,4,,,,,,,,,,,,,,,,,,,165,5,3.2.2021,165.151948
97,"['med', 2, 'high']",2,black,0.231921833,45,right,up,med,high,white_high_135-black_high_135-white_high_135-black_high_45,black_med_45_up,white_med_135_up,12,1.338285945,0.2485025,right,0.5534697,1,12,4,0,0,1,1,TRUE,FALSE,med_2_mask_high,0.75,-1,3,TRUE,4,,,,,,,,,,,,,,,,,,,165,5,3.2.2021,165.151948
98,"['low', 1, 'high']",1,black,0.961912544,135,left,up,low,high,black_high_135-white_high_135-black_high_45-white_high_135,black_low_135_up,white_low_45_up,12,1.279568274,0.2502897,right,0.1859772,0,12,4,1,0,1,1,TRUE,FALSE,low_1_mask_high,0.75,-1,3,TRUE,2,,,,,,,,,,,,,,,,,,,165,5,3.2.2021,165.151948
99,"['med', 1, 'high']",1,black,0.869401606,45,right,up,med,high,black_high_135-white_high_135-white_high_135-black_high_45,black_med_45_up,white_med_135_up,10,1.969470466,0.2467981,right,0.2046686,1,10,6,0,0,1,1,TRUE,FALSE,med_1_mask_high,0.75,-1,3,TRUE,2,,,,,,,,,,,,,,,,,,,165,5,3.2.2021,165.151948
100,"['high', 3, 'low']",3,black,0.521585606,45,right,up,high,low,black_low_135-white_low_135-white_low_45-black_low_45,black_high_45_up,white_high_135_up,16,1.484783869,0.248535,right,0.0335746,1,16,8,1,1,1,1,TRUE,FALSE,high_3_mask_low,0.75,-1,3,FALSE,6,,,,,,,,,,,,,,,,,,,165,5,3.2.2021,165.151948
101,"['low', 2, 'low']",2,white,0.555482612,135,right,down,low,low,black_low_135-white_low_45-white_low_135-black_low_45,white_low_135_down,black_low_45_down,17,1.739606212,0.248544,right,0.0308474,1,17,6,0,0,1,1,TRUE,FALSE,low_2_mask_low,0.75,-1,3,TRUE,3,,,,,,,,,,,,,,,,,,,165,5,3.2.2021,165.151948
102,"['med', 2, 'low']",2,white,0.668242819,45,left,down,med,low,black_low_135-white_low_135-black_low_45-white_low_45,white_med_45_down,black_med_135_down,7,1.463514858,0.2502954,left,0.2992936,1,7,5,1,0,1,1,TRUE,FALSE,med_2_mask_low,0.75,-1,3,FALSE,2,,,,,,,,,,,,,,,,,,,165,5,3.2.2021,165.151948
103,"['low', 2, 'high']",2,white,0.268644962,45,left,up,low,high,black_high_45-black_high_135-white_high_135-white_high_135,white_low_45_up,black_low_135_up,2,1.959538017,0.2467837,right,0.3198088,0,2,5,1,0,1,1,TRUE,FALSE,low_2_mask_high,0.75,-1,3,TRUE,3,,,,,,,,,,,,,,,,,,,165,5,3.2.2021,165.151948
104,"['med', 1, 'high']",1,white,0.778224092,135,right,down,med,high,white_high_135-black_high_135-white_high_135-black_high_45,white_med_135_down,black_med_45_down,9,1.459227652,0.2502806,right,0.2221759,1,9,7,1,0,1,1,TRUE,FALSE,med_1_mask_high,0.75,-1,3,FALSE,2,,,,,,,,,,,,,,,,,,,165,5,3.2.2021,165.151948
105,"['high', 2, 'low']",2,black,0.407345941,135,left,down,high,low,black_low_135-white_low_45-white_low_135-black_low_45,black_high_135_down,white_high_45_down,6,1.843770593,0.2467675,left,0.3898477,1,6,6,0,0,1,1,TRUE,FALSE,high_2_mask_low,0.75,-1,3,TRUE,2,,,,,,,,,,,,,,,,,,,165,5,3.2.2021,165.151948
106,"['low', 2, 'low']",2,white,0.577534235,135,right,down,low,low,black_low_45-white_low_135-black_low_135-white_low_45,white_low_135_down,black_low_45_down,16,1.894206219,0.2485363,right,0.1023111,1,16,7,1,0,1,1,TRUE,FALSE,low_2_mask_low,0.75,-1,3,FALSE,3,,,,,,,,,,,,,,,,,,,165,5,3.2.2021,165.151948
107,"['high', 1, 'low']",1,black,0.287267948,135,left,down,high,low,white_low_45-black_low_45-black_low_135-white_low_135,black_high_135_down,white_high_45_down,16,1.873826623,0.248553,right,0.5605907,0,16,4,1,0,1,1,TRUE,FALSE,high_1_mask_low,0.75,-1,3,TRUE,3,,,,,,,,,,,,,,,,,,,165,5,3.2.2021,165.151948
108,"['med', 2, 'low']",2,black,0.180952882,135,left,up,med,low,black_low_135-white_low_135-white_low_45-black_low_45,black_med_135_up,white_med_45_up,6,1.072216276,0.2485507,right,1.8645447,0,6,6,1,0,1,1,TRUE,FALSE,med_2_mask_low,0.75,-1,3,TRUE,3,,,,,,,,,,,,,,,,,,,165,5,3.2.2021,165.151948
109,"['med', 3, 'high']",3,white,0.014002602,45,left,down,med,high,white_high_135-black_high_45-white_high_135-black_high_135,white_med_45_down,black_med_135_down,17,1.449455401,0.2485404,left,1.2196378,1,17,7,0,0,1,1,TRUE,FALSE,med_3_mask_high,0.75,-1,3,TRUE,4,,,,,,,,,,,,,,,,,,,165,5,3.2.2021,165.151948
110,"['low', 2, 'high']",2,black,0.578739762,135,left,down,low,high,white_high_135-white_high_135-black_high_135-black_high_45,black_low_135_down,white_low_45_down,5,1.824507931,0.2467597,right,0.5081905,0,5,6,0,0,1,1,TRUE,FALSE,low_2_mask_high,0.75,-1,3,FALSE,3,,,,,,,,,,,,,,,,,,,165,5,3.2.2021,165.151948
111,"['high', 2, 'low']",2,white,0.019888922,45,left,down,high,low,black_low_45-white_low_45-black_low_135-white_low_135,white_high_45_down,black_high_135_down,5,1.815426809,0.2467075,left,0.7857005,1,5,7,1,0,1,1,TRUE,FALSE,high_2_mask_low,0.75,-1,3,FALSE,2,,,,,,,,,,,,,,,,,,,165,5,3.2.2021,165.151948
112,"['med', 3, 'low']",3,black,0.284445095,135,left,down,med,low,white_low_45-white_low_135-black_low_45-black_low_135,black_med_135_down,white_med_45_down,2,1.133582982,0.2485461,left,1.170058,1,2,6,1,0,1,1,TRUE,FALSE,med_3_mask_low,0.75,-1,3,FALSE,0,,,,,,,,,,,,,,,,,,,165,5,3.2.2021,165.151948
113,"['high', 3, 'high']",3,white,0.439917781,45,left,up,high,high,white_high_135-black_high_45-black_high_135-white_high_135,white_high_45_up,black_high_135_up,10,1.615674124,0.2485555,right,0.674077,0,10,2,0,0,1,1,TRUE,FALSE,high_3_mask_high,0.75,-1,3,FALSE,1,,,,,,,,,,,,,,,,,,,165,5,3.2.2021,165.151948
114,"['med', 1, 'low']",1,black,0.055782894,45,right,down,med,low,white_low_45-white_low_135-black_low_135-black_low_45,black_med_45_down,white_med_135_down,18,1.661420152,0.2467129,right,0.6844034,1,18,6,0,0,1,1,TRUE,FALSE,med_1_mask_low,0.75,-1,3,TRUE,5,,,,,,,,,,,,,,,,,,,165,5,3.2.2021,165.151948
115,"['high', 2, 'high']",2,white,0.052355159,45,left,up,high,high,black_high_45-black_high_135-white_high_135-white_high_135,white_high_45_up,black_high_135_up,5,1.06225064,0.24856,left,0.6357617,1,5,3,1,0,1,1,TRUE,FALSE,high_2_mask_high,0.75,-1,3,FALSE,0,,,,,,,,,,,,,,,,,,,165,5,3.2.2021,165.151948
116,"['high', 3, 'low']",3,white,0.461910227,135,right,down,high,low,black_low_135-white_low_45-black_low_45-white_low_135,white_high_135_down,black_high_45_down,15,1.157747601,0.2502941,right,0.3398255,1,15,9,1,1,1,1,TRUE,FALSE,high_3_mask_low,0.75,-1,3,FALSE,6,,,,,,,,,,,,,,,,,,,165,5,3.2.2021,165.151948
117,"['high', 3, 'low']",3,black,0.051286009,135,left,down,high,low,white_low_135-black_low_135-white_low_45-black_low_45,black_high_135_down,white_high_45_down,14,1.516482472,0.2467715,left,0.118625,1,14,10,1,1,1,1,TRUE,FALSE,high_3_mask_low,0.75,-1,3,FALSE,6,,,,,,,,,,,,,,,,,,,165,5,3.2.2021,165.151948
118,"['low', 2, 'high']",2,white,0.345588925,135,right,up,low,high,black_high_45-black_high_135-white_high_135-white_high_135,white_low_135_up,black_low_45_up,8,1.424838509,0.2485509,right,0.2291045,1,8,7,0,0,1,1,TRUE,FALSE,low_2_mask_high,0.75,-1,3,TRUE,4,,,,,,,,,,,,,,,,,,,165,5,3.2.2021,165.151948
119,"['low', 2, 'high']",2,black,0.800734737,45,right,up,low,high,black_high_135-black_high_45-white_high_135-white_high_135,black_low_45_up,white_low_135_up,7,1.734841462,0.2467766,left,0.3159562,0,7,8,1,0,1,1,TRUE,FALSE,low_2_mask_high,0.75,-1,3,TRUE,5,,,,,,,,,,,,,,,,,,,165,5,3.2.2021,165.151948
120,"['med', 2, 'low']",2,white,0.204787452,135,right,up,med,low,black_low_45-white_low_135-white_low_45-black_low_135,white_med_135_up,black_med_45_up,9,1.207145357,0.2485501,right,0.0867888,1,9,7,0,0,1,1,TRUE,FALSE,med_2_mask_low,0.75,-1,3,TRUE,4,,,,,,,,,,,,,,,,,,,165,5,3.2.2021,165.151948
121,"['med', 3, 'low']",3,black,0.212786753,135,left,up,med,low,white_low_45-black_low_135-black_low_45-white_low_135,black_med_135_up,white_med_45_up,1,1.763347519,0.2503014,left,0.3217083,1,1,7,1,0,1,1,TRUE,FALSE,med_3_mask_low,0.75,-1,3,FALSE,0,,,,,,,,,,,,,,,,,,,165,5,3.2.2021,165.151948
122,"['med', 2, 'high']",2,white,0.157241203,135,right,down,med,high,white_high_135-black_high_45-black_high_135-white_high_135,white_med_135_down,black_med_45_down,11,1.022338167,0.2485432,right,0.1677504,1,11,5,1,0,1,1,TRUE,FALSE,med_2_mask_high,0.75,-1,3,FALSE,4,,,,,,,,,,,,,,,,,,,165,5,3.2.2021,165.151948
123,"['med', 2, 'high']",2,white,0.755082175,45,left,up,med,high,black_high_135-white_high_135-black_high_45-white_high_135,white_med_45_up,black_med_135_up,10,1.67549332,0.2467557,left,0.0675509,1,10,6,1,0,1,1,TRUE,FALSE,med_2_mask_high,0.75,-1,3,FALSE,4,,,,,,,,,,,,,,,,,,,165,5,3.2.2021,165.151948
124,"['med', 1, 'low']",1,white,0.367353697,135,right,up,med,low,black_low_45-white_low_135-black_low_135-white_low_45,white_med_135_up,black_med_45_up,17,1.05834393,0.2485469,right,0.1544093,1,17,7,1,1,1,1,TRUE,FALSE,med_1_mask_low,0.75,-1,3,FALSE,5,,,,,,,,,,,,,,,,,,,165,5,3.2.2021,165.151948
125,"['low', 1, 'low']",1,black,0.456739519,135,left,up,low,low,white_low_135-white_low_45-black_low_135-black_low_45,black_low_135_up,white_low_45_up,13,1.897999479,0.2467818,right,0.6523519,0,13,7,0,1,1,1,TRUE,FALSE,low_1_mask_low,0.75,-1,3,FALSE,5,,,,,,,,,,,,,,,,,,,165,5,3.2.2021,165.151948
126,"['med', 2, 'high']",2,white,0.714079151,135,right,down,med,high,white_high_135-white_high_135-black_high_45-black_high_135,white_med_135_down,black_med_45_down,9,1.55852964,0.2485387,right,0.0644869,1,9,7,1,0,1,1,TRUE,FALSE,med_2_mask_high,0.75,-1,3,FALSE,4,,,,,,,,,,,,,,,,,,,165,5,3.2.2021,165.151948
127,"['med', 3, 'low']",3,black,0.631988769,45,right,down,med,low,white_low_135-black_low_135-white_low_45-black_low_45,black_med_45_down,white_med_135_down,1,1.237242331,0.2485617,left,0.1252073,0,1,8,1,0,1,1,TRUE,FALSE,med_3_mask_low,0.75,-1,3,TRUE,1,,,,,,,,,,,,,,,,,,,165,5,3.2.2021,165.151948
128,"['med', 1, 'low']",1,white,0.804870754,45,left,down,med,low,white_low_135-white_low_45-black_low_135-black_low_45,white_med_45_down,black_med_135_down,16,1.682648617,0.2467578,left,0.0633821,1,16,8,1,1,1,1,TRUE,FALSE,med_1_mask_low,0.75,-1,3,FALSE,5,,,,,,,,,,,,,,,,,,,165,5,3.2.2021,165.151948
129,"['med', 2, 'high']",2,white,0.924465198,45,left,down,med,high,black_high_45-white_high_135-black_high_135-white_high_135,white_med_45_down,black_med_135_down,8,1.179364151,0.2502818,left,0.4591857,1,8,8,1,0,1,1,TRUE,FALSE,med_2_mask_high,0.75,-1,3,FALSE,4,,,,,,,,,,,,,,,,,,,165,5,3.2.2021,165.151948
130,"['low', 3, 'high']",3,black,0.687217371,45,right,down,low,high,black_high_135-white_high_135-black_high_45-white_high_135,black_low_45_down,white_low_135_down,11,1.281241007,0.248547,right,0.418725,1,11,4,0,0,1,1,TRUE,FALSE,low_3_mask_high,0.75,-1,3,TRUE,3,,,,,,,,,,,,,,,,,,,165,5,3.2.2021,165.151948
131,"['med', 3, 'low']",3,white,0.142603848,45,left,up,med,low,black_low_135-black_low_45-white_low_45-white_low_135,white_med_45_up,black_med_135_up,4,1.58382686,0.2485479,right,0.1172047,0,4,9,0,0,1,1,TRUE,FALSE,med_3_mask_low,0.75,-1,3,FALSE,1,,,,,,,,,,,,,,,,,,,165,5,3.2.2021,165.151948
132,"['high', 1, 'high']",1,white,0.640884972,45,left,down,high,high,black_high_135-white_high_135-black_high_45-white_high_135,white_high_45_down,black_high_135_down,16,1.377050286,0.2485442,left,1.040915,1,16,8,1,0,1,1,TRUE,FALSE,high_1_mask_high,0.75,-1,3,FALSE,4,,,,,,,,,,,,,,,,,,,165,5,3.2.2021,165.151948
133,"['med', 1, 'low']",1,black,0.957099436,45,right,down,med,low,black_low_135-white_low_45-black_low_45-white_low_135,black_med_45_down,white_med_135_down,15,1.209176146,0.2485355,left,0.1312249,0,15,9,1,1,1,1,TRUE,FALSE,med_1_mask_low,0.75,-1,3,TRUE,6,,,,,,,,,,,,,,,,,,,165,5,3.2.2021,165.151948
134,"['med', 1, 'high']",1,white,0.184437778,135,right,up,med,high,white_high_135-black_high_135-white_high_135-black_high_45,white_med_135_up,black_med_45_up,8,1.914719628,0.2467206,left,0.2154963,0,8,8,1,0,1,1,TRUE,FALSE,med_1_mask_high,0.75,-1,3,TRUE,3,,,,,,,,,,,,,,,,,,,165,5,3.2.2021,165.151948
135,"['med', 3, 'high']",3,white,0.776873372,45,left,down,med,high,black_high_135-black_high_45-white_high_135-white_high_135,white_med_45_down,black_med_135_down,16,1.643562313,0.2485609,left,0.0211349,1,16,8,1,0,1,1,TRUE,FALSE,med_3_mask_high,0.75,-1,3,FALSE,4,,,,,,,,,,,,,,,,,,,165,5,3.2.2021,165.151948
136,"['high', 2, 'low']",2,black,0.438994709,45,right,down,high,low,white_low_45-black_low_45-white_low_135-black_low_135,black_high_45_down,white_high_135_down,4,1.419057109,0.2467177,right,0.5724146,1,4,8,1,0,1,1,TRUE,FALSE,high_2_mask_low,0.75,-1,3,FALSE,2,,,,,,,,,,,,,,,,,,,165,5,3.2.2021,165.151948
137,"['high', 1, 'high']",1,white,0.846025335,45,left,up,high,high,black_high_45-black_high_135-white_high_135-white_high_135,white_high_45_up,black_high_135_up,15,1.708498296,0.248556,right,0.6289694,0,15,9,1,0,1,1,TRUE,FALSE,high_1_mask_high,0.75,-1,3,TRUE,5,,,,,,,,,,,,,,,,,,,165,5,3.2.2021,165.151948
138,"['med', 3, 'low']",3,black,0.967419927,45,right,up,med,low,black_low_45-black_low_135-white_low_45-white_low_135,black_med_45_up,white_med_135_up,7,1.701347683,0.248824,right,0.4218469,1,7,10,0,0,1,1,TRUE,FALSE,med_3_mask_low,0.75,-1,3,TRUE,2,,,,,,,,,,,,,,,,,,,165,5,3.2.2021,165.151948
139,"['high', 3, 'low']",3,white,0.636644659,135,right,down,high,low,black_low_135-black_low_45-white_low_45-white_low_135,white_high_135_down,black_high_45_down,13,1.634950672,0.248553,left,0.0162056,0,13,11,1,1,1,1,TRUE,FALSE,high_3_mask_low,0.75,-1,3,TRUE,7,,,,,,,,,,,,,,,,,,,165,5,3.2.2021,165.151948
140,"['high', 2, 'low']",2,white,0.535611635,135,right,down,high,low,white_low_135-black_low_135-black_low_45-white_low_45,white_high_135_down,black_high_45_down,3,1.106503143,0.2485469,right,0.4060991,1,3,9,1,0,1,1,TRUE,FALSE,high_2_mask_low,0.75,-1,3,FALSE,2,,,,,,,,,,,,,,,,,,,165,5,3.2.2021,165.151948
141,"['med', 1, 'high']",1,black,0.346368406,45,right,down,med,high,white_high_135-white_high_135-black_high_135-black_high_45,black_med_45_down,white_med_135_down,11,1.264596901,0.2485445,left,0.1560642,0,11,9,0,0,1,1,TRUE,FALSE,med_1_mask_high,0.75,-1,3,FALSE,3,,,,,,,,,,,,,,,,,,,165,5,3.2.2021,165.151948
142,"['high', 1, 'low']",1,white,0.141077976,135,right,up,high,low,black_low_135-white_low_45-white_low_135-black_low_45,white_high_135_up,black_high_45_up,19,1.256405635,0.2485384,right,0.4538185,1,19,5,0,0,1,1,TRUE,FALSE,high_1_mask_low,0.75,-1,3,TRUE,4,,,,,,,,,,,,,,,,,,,165,5,3.2.2021,165.151948
143,"['low', 3, 'low']",3,white,0.950049072,135,right,down,low,low,black_low_45-white_low_45-black_low_135-white_low_135,white_low_135_down,black_low_45_down,9,1.958714156,0.2485512,right,0.3643503,1,9,6,1,0,1,1,TRUE,FALSE,low_3_mask_low,0.75,-1,3,FALSE,2,,,,,,,,,,,,,,,,,,,165,5,3.2.2021,165.151948
144,"['high', 2, 'high']",2,black,0.868404332,135,left,down,high,high,white_high_135-black_high_45-black_high_135-white_high_135,black_high_135_down,white_high_45_down,4,1.896806133,0.2467177,left,0.1084954,1,4,4,1,0,1,1,TRUE,FALSE,high_2_mask_high,0.75,-1,3,FALSE,0,,,,,,,,,,,,,,,,,,,165,5,3.2.2021,165.151948
145,"['low', 2, 'low']",2,black,0.63020976,135,left,down,low,low,black_low_45-white_low_135-white_low_45-black_low_135,black_low_135_down,white_low_45_down,15,1.998680479,0.2485356,left,0.0840551,1,15,8,1,0,1,1,TRUE,FALSE,low_2_mask_low,0.75,-1,3,FALSE,3,,,,,,,,,,,,,,,,,,,165,5,3.2.2021,165.151948
146,"['med', 2, 'high']",2,white,0.608121074,45,left,down,med,high,black_high_45-black_high_135-white_high_135-white_high_135,white_med_45_down,black_med_135_down,7,1.450264919,0.2467195,left,0.1563313,1,7,9,1,0,1,1,TRUE,FALSE,med_2_mask_high,0.75,-1,3,FALSE,4,,,,,,,,,,,,,,,,,,,165,5,3.2.2021,165.151948
147,"['high', 1, 'high']",1,white,0.408595955,135,right,down,high,high,black_high_135-white_high_135-black_high_45-white_high_135,white_high_135_down,black_high_45_down,18,1.571241346,0.2485382,right,0.2386168,1,18,10,0,1,1,1,TRUE,FALSE,high_1_mask_high,0.75,-1,3,TRUE,6,,,,,,,,,,,,,,,,,,,165,5,3.2.2021,165.151948
148,"['med', 2, 'low']",2,white,0.13341885,135,right,down,med,low,black_low_135-white_low_45-white_low_135-black_low_45,white_med_135_down,black_med_45_down,8,1.95290657,0.2485419,left,0.4131516,0,8,8,1,0,1,1,TRUE,FALSE,med_2_mask_low,0.75,-1,3,TRUE,5,,,,,,,,,,,,,,,,,,,165,5,3.2.2021,165.151948
149,"['low', 2, 'low']",2,white,0.816874543,135,right,down,low,low,white_low_135-black_low_45-white_low_45-black_low_135,white_low_135_down,black_low_45_down,14,1.459911171,0.2485527,right,0.3293681,1,14,9,1,0,1,1,TRUE,FALSE,low_2_mask_low,0.75,-1,3,FALSE,3,,,,,,,,,,,,,,,,,,,165,5,3.2.2021,165.151948
150,"['med', 2, 'high']",2,white,0.057221613,135,right,down,med,high,white_high_135-black_high_45-black_high_135-white_high_135,white_med_135_down,black_med_45_down,6,1.324800296,0.2485467,left,0.2560688,0,6,10,1,0,1,1,TRUE,FALSE,med_2_mask_high,0.75,-1,3,TRUE,5,,,,,,,,,,,,,,,,,,,165,5,3.2.2021,165.151948
151,"['low', 2, 'low']",2,black,0.350342142,45,right,down,low,low,black_low_135-white_low_45-black_low_45-white_low_135,black_low_45_down,white_low_135_down,13,1.73261746,0.2467853,right,0.0875453,1,13,10,1,0,1,1,TRUE,FALSE,low_2_mask_low,0.75,-1,3,FALSE,3,,,,,,,,,,,,,,,,,,,165,5,3.2.2021,165.151948
152,"['med', 2, 'high']",2,white,0.830230813,135,right,up,med,high,black_high_135-white_high_135-white_high_135-black_high_45,white_med_135_up,black_med_45_up,9,1.297152131,0.2485533,right,0.0380574,1,9,11,0,1,1,1,TRUE,FALSE,med_2_mask_high,0.75,-1,3,TRUE,6,,,,,,,,,,,,,,,,,,,165,5,3.2.2021,165.151948
153,"['low', 2, 'low']",2,white,0.86111124,135,right,down,low,low,white_low_135-black_low_45-white_low_45-black_low_135,white_low_135_down,black_low_45_down,12,1.057002116,0.2485543,right,0.3815251,1,12,11,1,0,1,1,TRUE,FALSE,low_2_mask_low,0.75,-1,3,FALSE,3,,,,,,,,,,,,,,,,,,,165,5,3.2.2021,165.151948
154,"['med', 1, 'low']",1,white,0.169889589,45,left,down,med,low,black_low_45-white_low_45-black_low_135-white_low_135,white_med_45_down,black_med_135_down,18,1.675933759,0.2488258,left,0.0773075,1,18,10,0,1,1,1,TRUE,FALSE,med_1_mask_low,0.75,-1,3,TRUE,7,,,,,,,,,,,,,,,,,,,165,5,3.2.2021,165.151948
155,"['low', 3, 'high']",3,black,0.193485142,45,right,up,low,high,white_high_135-black_high_135-black_high_45-white_high_135,black_low_45_up,white_low_135_up,10,1.469071075,0.2485459,right,0.0220816,1,10,5,1,0,1,1,TRUE,FALSE,low_3_mask_high,0.75,-1,3,FALSE,3,,,,,,,,,,,,,,,,,,,165,5,3.2.2021,165.151948
156,"['high', 3, 'high']",3,black,0.832024433,135,left,down,high,high,black_high_45-white_high_135-white_high_135-black_high_135,black_high_135_down,white_high_45_down,13,1.091740035,0.2488247,right,0.508474,0,13,3,0,0,1,1,TRUE,FALSE,high_3_mask_high,0.75,-1,3,FALSE,1,,,,,,,,,,,,,,,,,,,165,5,3.2.2021,165.151948
157,"['med', 1, 'high']",1,white,0.154031705,135,right,down,med,high,black_high_135-white_high_135-black_high_45-white_high_135,white_med_135_down,black_med_45_down,14,1.416586957,0.2485469,right,0.0815418,1,14,10,0,0,1,1,TRUE,FALSE,med_1_mask_high,0.75,-1,3,TRUE,4,,,,,,,,,,,,,,,,,,,165,5,3.2.2021,165.151948
158,"['low', 2, 'low']",2,black,0.336575899,45,right,down,low,low,black_low_45-black_low_135-white_low_45-white_low_135,black_low_45_down,white_low_135_down,11,1.348817933,0.2485478,right,0.2881885,1,11,12,1,0,1,1,TRUE,FALSE,low_2_mask_low,0.75,-1,3,FALSE,3,,,,,,,,,,,,,,,,,,,165,5,3.2.2021,165.151948
159,"['low', 2, 'low']",2,black,0.919301206,45,right,down,low,low,white_low_135-black_low_135-black_low_45-white_low_45,black_low_45_down,white_low_135_down,10,1.442127158,0.2485511,right,0.3921114,1,10,13,1,0,1,1,TRUE,FALSE,low_2_mask_low,0.75,-1,3,FALSE,3,,,,,,,,,,,,,,,,,,,165,5,3.2.2021,165.151948
160,"['low', 3, 'high']",3,white,0.115561114,135,right,up,low,high,white_high_135-black_high_135-white_high_135-black_high_45,white_low_135_up,black_low_45_up,9,1.032356631,0.2485493,right,0.2844567,1,9,6,1,0,1,1,TRUE,FALSE,low_3_mask_high,0.75,-1,3,FALSE,3,,,,,,,,,,,,,,,,,,,165,5,3.2.2021,165.151948
161,"['med', 1, 'high']",1,white,0.846530026,135,right,down,med,high,white_high_135-white_high_135-black_high_135-black_high_45,white_med_135_down,black_med_45_down,13,1.490833184,0.2485474,right,0.3653416,1,13,11,1,0,1,1,TRUE,FALSE,med_1_mask_high,0.75,-1,3,FALSE,4,,,,,,,,,,,,,,,,,,,165,5,3.2.2021,165.151948
162,"['med', 1, 'low']",1,black,0.146088263,135,left,down,med,low,black_low_135-black_low_45-white_low_45-white_low_135,black_med_135_down,white_med_45_down,17,1.227879208,0.2485408,right,0.1029095,0,17,11,1,1,1,1,TRUE,FALSE,med_1_mask_low,0.75,-1,3,TRUE,8,,,,,,,,,,,,,,,,,,,165,5,3.2.2021,165.151948
163,"['med', 1, 'low']",1,black,0.711262529,135,left,up,med,low,white_low_135-white_low_45-black_low_45-black_low_135,black_med_135_up,white_med_45_up,20,1.088091852,0.2467779,right,0.1155913,0,20,12,0,1,1,1,TRUE,FALSE,med_1_mask_low,0.75,-1,3,FALSE,8,,,,,,,,,,,,,,,,,,,165,5,3.2.2021,165.151948
164,"['high', 3, 'low']",3,white,0.470508689,135,right,down,high,low,white_low_45-black_low_135-black_low_45-white_low_135,white_high_135_down,black_high_45_down,16,1.013049085,0.2485537,right,0.1373368,1,16,12,0,1,1,1,TRUE,FALSE,high_3_mask_low,0.75,-1,3,TRUE,8,,,,,,,,,,,,,,,,,,,165,5,3.2.2021,165.151948
165,"['low', 3, 'high']",3,white,0.40705092,45,left,down,low,high,white_high_135-black_high_135-white_high_135-black_high_45,white_low_45_down,black_low_135_down,8,1.487468577,0.2485627,right,0.5130977,0,8,7,1,0,1,1,TRUE,FALSE,low_3_mask_high,0.75,-1,3,TRUE,4,,,,,,,,,,,,,,,,,,,165,5,3.2.2021,165.151948
166,"['low', 2, 'low']",2,black,0.94726391,45,right,down,low,low,black_low_135-black_low_45-white_low_45-white_low_135,black_low_45_down,white_low_135_down,9,1.344862849,0.2503155,right,0.2169753,1,9,14,1,0,1,1,TRUE,FALSE,low_2_mask_low,0.75,-1,3,FALSE,3,,,,,,,,,,,,,,,,,,,165,5,3.2.2021,165.151948
167,"['high', 3, 'high']",3,white,0.724512426,135,right,up,high,high,black_high_135-white_high_135-white_high_135-black_high_45,white_high_135_up,black_high_45_up,16,1.051189147,0.2485475,right,0.0642602,1,16,4,0,0,1,1,TRUE,FALSE,high_3_mask_high,0.75,-1,3,TRUE,2,,,,,,,,,,,,,,,,,,,165,5,3.2.2021,165.151948
168,"['low', 1, 'low']",1,black,0.396695263,45,right,down,low,low,black_low_45-white_low_135-black_low_135-white_low_45,black_low_45_down,white_low_135_down,16,1.725135531,0.2485316,right,0.0634322,1,16,8,0,1,1,1,TRUE,FALSE,low_1_mask_low,0.75,-1,3,TRUE,6,,,,,,,,,,,,,,,,,,,165,5,3.2.2021,165.151948
169,"['high', 3, 'low']",3,white,0.589378554,45,left,down,high,low,black_low_45-white_low_45-black_low_135-white_low_135,white_high_45_down,black_high_135_down,15,1.069552224,0.2485317,left,0.4195529,1,15,13,1,1,1,1,TRUE,FALSE,high_3_mask_low,0.75,-1,3,FALSE,8,,,,,,,,,,,,,,,,,,,165,5,3.2.2021,165.151948
170,"['med', 2, 'high']",2,white,0.278727209,135,right,down,med,high,white_high_135-white_high_135-black_high_135-black_high_45,white_med_135_down,black_med_45_down,8,1.481831587,0.2485574,right,0.1804507,1,8,12,1,1,1,1,TRUE,FALSE,med_2_mask_high,0.75,-1,3,FALSE,6,,,,,,,,,,,,,,,,,,,165,5,3.2.2021,165.151948
171,"['low', 1, 'low']",1,white,0.915307843,135,right,down,low,low,white_low_135-black_low_135-white_low_45-black_low_45,white_low_135_down,black_low_45_down,15,1.822604483,0.2485305,right,0.3675384,1,15,9,1,1,1,1,TRUE,FALSE,low_1_mask_low,0.75,-1,3,FALSE,6,,,,,,,,,,,,,,,,,,,165,5,3.2.2021,165.151948
172,"['low', 1, 'low']",1,white,0.646735074,135,right,up,low,low,black_low_45-black_low_135-white_low_135-white_low_45,white_low_135_up,black_low_45_up,14,1.663571274,0.2466829,right,0.0268399,1,14,10,1,1,1,1,TRUE,FALSE,low_1_mask_low,0.75,-1,3,FALSE,6,,,,,,,,,,,,,,,,,,,165,5,3.2.2021,165.151948
173,"['high', 2, 'low']",2,white,0.285776268,45,left,down,high,low,black_low_135-black_low_45-white_low_135-white_low_45,white_high_45_down,black_high_135_down,2,1.316183083,0.248537,left,1.118689,1,2,10,1,0,1,1,TRUE,FALSE,high_2_mask_low,0.75,-1,3,FALSE,2,,,,,,,,,,,,,,,,,,,165,5,3.2.2021,165.151948
174,"['med', 1, 'low']",1,black,0.056812753,135,left,down,med,low,white_low_135-black_low_45-black_low_135-white_low_45,black_med_135_down,white_med_45_down,23,1.78983166,0.2488228,right,0.3826967,0,23,13,0,1,1,1,TRUE,FALSE,med_1_mask_low,0.75,-1,3,FALSE,8,,,,,,,,,,,,,,,,,,,165,5,3.2.2021,165.151948
175,"['high', 2, 'low']",2,white,0.074235319,45,left,down,high,low,black_low_135-white_low_135-white_low_45-black_low_45,white_high_45_down,black_high_135_down,1,1.29595989,0.2485587,left,0.3356119,1,1,11,1,0,1,1,TRUE,FALSE,high_2_mask_low,0.75,-1,3,FALSE,2,,,,,,,,,,,,,,,,,,,165,5,3.2.2021,165.151948
176,"['low', 1, 'low']",1,white,0.014527727,45,left,up,low,low,black_low_45-white_low_135-black_low_135-white_low_45,white_low_45_up,black_low_135_up,13,1.869689034,0.2485102,left,0.0937485,1,13,11,1,1,1,1,TRUE,FALSE,low_1_mask_low,0.75,-1,3,FALSE,6,,,,,,,,,,,,,,,,,,,165,5,3.2.2021,165.151948
177,"['low', 2, 'low']",2,black,0.490488869,135,left,down,low,low,white_low_45-black_low_45-black_low_135-white_low_135,black_low_135_down,white_low_45_down,8,1.929427449,0.2482681,right,0.3337708,0,8,15,1,0,1,1,TRUE,FALSE,low_2_mask_low,0.75,-1,3,TRUE,4,,,,,,,,,,,,,,,,,,,165,5,3.2.2021,165.151948
178,"['high', 2, 'high']",2,black,0.193552493,45,right,up,high,high,black_high_135-white_high_135-black_high_45-white_high_135,black_high_45_up,white_high_135_up,3,1.182783474,0.2466928,right,0.1867607,1,3,5,1,0,1,1,TRUE,FALSE,high_2_mask_high,0.75,-1,3,FALSE,0,,,,,,,,,,,,,,,,,,,165,5,3.2.2021,165.151948
179,"['low', 1, 'high']",1,black,0.953655997,45,right,up,low,high,black_high_135-black_high_45-white_high_135-white_high_135,black_low_45_up,white_low_135_up,15,1.53231046,0.2485504,left,0.3278895,0,15,5,0,0,1,1,TRUE,FALSE,low_1_mask_high,0.75,-1,3,FALSE,2,,,,,,,,,,,,,,,,,,,165,5,3.2.2021,165.151948
180,"['med', 2, 'low']",2,black,0.860255593,45,right,up,med,low,black_low_135-black_low_45-white_low_45-white_low_135,black_med_45_up,white_med_135_up,11,1.916626399,0.2485444,right,0.300258,1,11,9,0,1,1,1,TRUE,FALSE,med_2_mask_low,0.75,-1,3,TRUE,6,,,,,,,,,,,,,,,,,,,165,5,3.2.2021,165.151948
181,"['med', 1, 'low']",1,black,0.303373987,45,right,down,med,low,black_low_45-white_low_45-white_low_135-black_low_135,black_med_45_down,white_med_135_down,26,1.712355114,0.2502841,left,0.0554343,0,26,14,0,1,1,1,TRUE,FALSE,med_1_mask_low,0.75,-1,3,FALSE,8,,,,,,,,,,,,,,,,,,,165,5,3.2.2021,165.151948
182,"['high', 3, 'high']",3,black,0.546052118,45,right,up,high,high,white_high_135-black_high_135-white_high_135-black_high_45,black_high_45_up,white_high_135_up,15,1.698460935,0.2485441,right,0.1516188,1,15,5,1,0,1,1,TRUE,FALSE,high_3_mask_high,0.75,-1,3,FALSE,2,,,,,,,,,,,,,,,,,,,165,5,3.2.2021,165.151948
183,"['low', 1, 'high']",1,black,0.961453098,135,left,down,low,high,black_high_45-black_high_135-white_high_135-white_high_135,black_low_135_down,white_low_45_down,18,1.333767049,0.2485548,right,0.0230464,0,18,6,0,0,1,1,TRUE,FALSE,low_1_mask_high,0.75,-1,3,FALSE,2,,,,,,,,,,,,,,,,,,,165,5,3.2.2021,165.151948
184,"['high', 1, 'high']",1,white,0.594937887,45,left,down,high,high,white_high_135-white_high_135-black_high_135-black_high_45,white_high_45_down,black_high_135_down,17,1.296316649,0.2503257,left,0.1932835,1,17,11,1,1,1,1,TRUE,FALSE,high_1_mask_high,0.75,-1,3,FALSE,6,,,,,,,,,,,,,,,,,,,165,5,3.2.2021,165.151948
185,"['low', 1, 'low']",1,black,0.065487368,135,left,down,low,low,white_low_135-white_low_45-black_low_135-black_low_45,black_low_135_down,white_low_45_down,12,1.062563066,0.2485348,right,0.0793848,0,12,12,1,1,1,1,TRUE,FALSE,low_1_mask_low,0.75,-1,3,TRUE,7,,,,,,,,,,,,,,,,,,,165,5,3.2.2021,165.151948
186,"['low', 3, 'high']",3,white,0.974489033,45,left,up,low,high,black_high_135-black_high_45-white_high_135-white_high_135,white_low_45_up,black_low_135_up,11,1.786749979,0.2488325,left,0.0733678,1,11,8,0,0,1,1,TRUE,FALSE,low_3_mask_high,0.75,-1,3,TRUE,5,,,,,,,,,,,,,,,,,,,165,5,3.2.2021,165.151948
187,"['low', 2, 'high']",2,black,0.417919846,135,left,down,low,high,white_high_135-black_high_135-black_high_45-white_high_135,black_low_135_down,white_low_45_down,10,1.633255545,0.2450569,right,0.3286858,0,10,9,0,1,1,1,TRUE,FALSE,low_2_mask_high,0.75,-1,3,FALSE,5,,,,,,,,,,,,,,,,,,,165,5,3.2.2021,165.151948
188,"['med', 1, 'low']",1,black,0.309055238,135,left,up,med,low,white_low_45-white_low_135-black_low_45-black_low_135,black_med_135_up,white_med_45_up,29,1.3457878,0.248546,right,0.0336659,0,29,15,0,1,1,1,TRUE,FALSE,med_1_mask_low,0.75,-1,3,FALSE,8,,,,,,,,,,,,,,,,,,,165,5,3.2.2021,165.151948
189,"['low', 1, 'high']",1,white,0.797408541,135,right,up,low,high,black_high_45-black_high_135-white_high_135-white_high_135,white_low_135_up,black_low_45_up,21,1.11588993,0.2467578,right,0.3710256,1,21,7,0,0,1,1,TRUE,FALSE,low_1_mask_high,0.75,-1,3,TRUE,3,,,,,,,,,,,,,,,,,,,165,5,3.2.2021,165.151948
190,"['med', 1, 'high']",1,black,0.864185467,135,left,up,med,high,white_high_135-black_high_135-black_high_45-white_high_135,black_med_135_up,white_med_45_up,12,1.959000299,0.2450262,right,0.0107986,0,12,12,1,0,1,1,TRUE,FALSE,med_1_mask_high,0.75,-1,3,TRUE,5,,,,,,,,,,,,,,,,,,,165,5,3.2.2021,165.151948
191,"['low', 1, 'high']",1,white,0.19370941,135,right,up,low,high,white_high_135-white_high_135-black_high_45-black_high_135,white_low_135_up,black_low_45_up,20,1.572339534,0.2485532,right,0.3628484,1,20,8,1,0,1,1,TRUE,FALSE,low_1_mask_high,0.75,-1,3,FALSE,3,,,,,,,,,,,,,,,,,,,165,5,3.2.2021,165.151948
192,"['high', 1, 'low']",1,white,0.535438245,135,right,up,high,low,black_low_135-black_low_45-white_low_135-white_low_45,white_high_135_up,black_high_45_up,18,1.103830305,0.248549,right,0.5975562,1,18,6,1,0,1,1,TRUE,FALSE,high_1_mask_low,0.75,-1,3,FALSE,4,,,,,,,,,,,,,,,,,,,165,5,3.2.2021,165.151948
193,"['low', 2, 'low']",2,black,0.048393467,45,right,up,low,low,black_low_45-white_low_45-black_low_135-white_low_135,black_low_45_up,white_low_135_up,11,1.640703555,0.2470533,left,0.2571264,0,11,16,0,0,1,1,TRUE,FALSE,low_2_mask_low,0.75,-1,3,FALSE,4,,,,,,,,,,,,,,,,,,,165,5,3.2.2021,165.151948
194,"['med', 2, 'low']",2,black,0.469513158,45,right,down,med,low,black_low_45-white_low_45-black_low_135-white_low_135,black_med_45_down,white_med_135_down,10,1.404501197,0.2485547,right,0.0868777,1,10,10,1,1,1,1,TRUE,FALSE,med_2_mask_low,0.75,-1,3,FALSE,6,,,,,,,,,,,,,,,,,,,165,5,3.2.2021,165.151948
195,"['low', 3, 'low']",3,white,0.707721498,135,right,down,low,low,black_low_45-black_low_135-white_low_135-white_low_45,white_low_135_down,black_low_45_down,8,1.0675203,0.2485567,right,0.3093196,1,8,7,1,0,1,1,TRUE,FALSE,low_3_mask_low,0.75,-1,3,FALSE,2,,,,,,,,,,,,,,,,,,,165,5,3.2.2021,165.151948
196,"['med', 1, 'high']",1,black,0.829173214,45,right,down,med,high,black_high_45-white_high_135-black_high_135-white_high_135,black_med_45_down,white_med_135_down,15,1.444640611,0.2503001,left,0.3594284,0,15,13,0,1,1,1,TRUE,FALSE,med_1_mask_high,0.75,-1,3,FALSE,5,,,,,,,,,,,,,,,,,,,165,5,3.2.2021,165.151948
197,"['low', 2, 'low']",2,white,0.941479442,45,left,up,low,low,black_low_135-black_low_45-white_low_135-white_low_45,white_low_45_up,black_low_135_up,14,1.564336729,0.246752,left,0.1555335,1,14,17,0,0,1,1,TRUE,FALSE,low_2_mask_low,0.75,-1,3,TRUE,5,,,,,,,,,,,,,,,,,,,165,5,3.2.2021,165.151948
198,"['med', 2, 'low']",2,white,0.460012896,45,left,up,med,low,white_low_45-black_low_135-black_low_45-white_low_135,white_med_45_up,black_med_135_up,9,1.316823041,0.2485432,left,0.353202,1,9,11,1,1,1,1,TRUE,FALSE,med_2_mask_low,0.75,-1,3,FALSE,6,,,,,,,,,,,,,,,,,,,165,5,3.2.2021,165.151948
199,"['med', 1, 'low']",1,white,0.903015142,135,right,down,med,low,white_low_45-white_low_135-black_low_135-black_low_45,white_med_135_down,black_med_45_down,32,1.652669457,0.2467629,right,0.1665303,1,32,16,0,1,1,1,TRUE,FALSE,med_1_mask_low,0.75,-1,3,TRUE,9,,,,,,,,,,,,,,,,,,,165,5,3.2.2021,165.151948
200,"['low', 3, 'low']",3,white,0.547720144,135,right,up,low,low,black_low_45-black_low_135-white_low_45-white_low_135,white_low_135_up,black_low_45_up,7,1.53548238,0.2488089,right,0.2208036,1,7,8,1,0,1,1,TRUE,FALSE,low_3_mask_low,0.75,-1,3,FALSE,2,,,,,,,,,,,,,,,,,,,165,5,3.2.2021,165.151948
201,"['low', 3, 'low']",3,black,0.171546169,135,left,down,low,low,black_low_45-white_low_45-white_low_135-black_low_135,black_low_135_down,white_low_45_down,6,1.942833904,0.2488213,left,0.2225706,1,6,9,1,0,1,1,TRUE,FALSE,low_3_mask_low,0.75,-1,3,FALSE,2,,,,,,,,,,,,,,,,,,,165,5,3.2.2021,165.151948
202,"['high', 2, 'high']",2,black,0.226334993,45,right,up,high,high,black_high_135-white_high_135-black_high_45-white_high_135,black_high_45_up,white_high_135_up,2,1.403869243,0.2485318,left,0.3591196,0,2,6,1,0,1,1,TRUE,FALSE,high_2_mask_high,0.75,-1,3,TRUE,1,,,,,,,,,,,,,,,,,,,165,5,3.2.2021,165.151948
203,"['high', 2, 'low']",2,white,0.203102585,135,right,down,high,low,black_low_135-black_low_45-white_low_45-white_low_135,white_high_135_down,black_high_45_down,1,1.919824915,0.2467815,right,1.1497001,1,1,12,1,0,1,1,TRUE,FALSE,high_2_mask_low,0.75,-1,3,FALSE,2,,,,,,,,,,,,,,,,,,,165,5,3.2.2021,165.151948
204,"['high', 3, 'low']",3,black,0.556130336,45,right,down,high,low,black_low_135-white_low_135-white_low_45-black_low_45,black_high_45_down,white_high_135_down,14,1.475935313,0.2485435,left,0.1543987,0,14,14,1,1,1,1,TRUE,FALSE,high_3_mask_low,0.75,-1,3,TRUE,9,,,,,,,,,,,,,,,,,,,165,5,3.2.2021,165.151948
205,"['low', 2, 'high']",2,black,0.806730272,45,right,up,low,high,black_high_45-white_high_135-white_high_135-black_high_135,black_low_45_up,white_low_135_up,13,1.073172069,0.2485454,right,0.4167227,1,13,10,0,1,1,1,TRUE,FALSE,low_2_mask_high,0.75,-1,3,TRUE,6,,,,,,,,,,,,,,,,,,,165,5,3.2.2021,165.151948
206,"['low', 3, 'high']",3,white,0.757741069,45,left,up,low,high,black_high_45-black_high_135-white_high_135-white_high_135,white_low_45_up,black_low_135_up,10,1.460813788,0.248546,left,0.2428329,1,10,9,1,1,1,1,TRUE,FALSE,low_3_mask_high,0.75,-1,3,FALSE,5,,,,,,,,,,,,,,,,,,,165,5,3.2.2021,165.151948
207,"['low', 1, 'low']",1,black,0.768985533,135,left,up,low,low,white_low_135-white_low_45-black_low_45-black_low_135,black_low_135_up,white_low_45_up,15,1.82087112,0.2485525,right,0.0270316,0,15,13,0,1,1,1,TRUE,FALSE,low_1_mask_low,0.75,-1,3,FALSE,7,,,,,,,,,,,,,,,,,,,165,5,3.2.2021,165.151948
208,"['med', 3, 'high']",3,white,0.984262285,45,left,down,med,high,black_high_135-black_high_45-white_high_135-white_high_135,white_med_45_down,black_med_135_down,15,1.961666167,0.2482743,left,0.0407284,1,15,9,1,0,1,1,TRUE,FALSE,med_3_mask_high,0.75,-1,3,FALSE,4,,,,,,,,,,,,,,,,,,,165,5,3.2.2021,165.151948
209,"['med', 1, 'high']",1,black,0.984923278,135,left,down,med,high,black_high_135-white_high_135-black_high_45-white_high_135,black_med_135_down,white_med_45_down,18,1.624735008,0.24678,right,0.3878673,0,18,14,0,1,1,1,TRUE,FALSE,med_1_mask_high,0.75,-1,3,FALSE,5,,,,,,,,,,,,,,,,,,,165,5,3.2.2021,165.151948
210,"['med', 2, 'low']",2,black,0.664523769,135,left,down,med,low,black_low_135-white_low_135-black_low_45-white_low_45,black_med_135_down,white_med_45_down,8,1.944573906,0.2485401,left,0.2279695,1,8,12,1,1,1,1,TRUE,FALSE,med_2_mask_low,0.75,-1,3,FALSE,6,,,,,,,,,,,,,,,,,,,165,5,3.2.2021,165.151948
211,"['med', 2, 'low']",2,black,0.121398242,135,left,up,med,low,black_low_45-white_low_45-black_low_135-white_low_135,black_med_135_up,white_med_45_up,7,1.617027588,0.2485475,right,0.3675167,0,7,13,1,1,1,1,TRUE,FALSE,med_2_mask_low,0.75,-1,3,TRUE,7,,,,,,,,,,,,,,,,,,,165,5,3.2.2021,165.151948
212,"['high', 2, 'high']",2,black,0.390105849,45,right,down,high,high,black_high_45-white_high_135-white_high_135-black_high_135,black_high_45_down,white_high_135_down,5,1.977587916,0.246709,right,0.3982771,1,5,7,0,0,1,1,TRUE,FALSE,high_2_mask_high,0.75,-1,3,TRUE,2,,,,,,,,,,,,,,,,,,,165,5,3.2.2021,165.151948
213,"['med', 1, 'high']",1,black,0.887004466,45,right,up,med,high,white_high_135-white_high_135-black_high_135-black_high_45,black_med_45_up,white_med_135_up,21,1.53663229,0.2467698,left,0.1891211,0,21,15,0,1,1,1,TRUE,FALSE,med_1_mask_high,0.75,-1,3,FALSE,5,,,,,,,,,,,,,,,,,,,165,5,3.2.2021,165.151948
214,"['med', 2, 'high']",2,black,0.963890784,135,left,up,med,high,black_high_45-white_high_135-black_high_135-white_high_135,black_med_135_up,white_med_45_up,7,1.793079644,0.2467893,right,0.1310203,0,7,13,1,1,1,1,TRUE,FALSE,med_2_mask_high,0.75,-1,3,TRUE,7,,,,,,,,,,,,,,,,,,,165,5,3.2.2021,165.151948
215,"['low', 3, 'high']",3,white,0.144193497,45,left,up,low,high,black_high_135-white_high_135-black_high_45-white_high_135,white_low_45_up,black_low_135_up,9,1.88077992,0.2485431,left,0.0462176,1,9,10,1,1,1,1,TRUE,FALSE,low_3_mask_high,0.75,-1,3,FALSE,5,,,,,,,,,,,,,,,,,,,165,5,3.2.2021,165.151948
216,"['med', 3, 'low']",3,white,0.326089991,135,right,down,med,low,black_low_45-white_low_135-white_low_45-black_low_135,white_med_135_down,black_med_45_down,6,1.530809345,0.2485424,left,0.0936361,0,6,11,1,0,1,1,TRUE,FALSE,med_3_mask_low,0.75,-1,3,TRUE,3,,,,,,,,,,,,,,,,,,,165,5,3.2.2021,165.151948
217,"['med', 3, 'high']",3,black,0.963824671,45,right,up,med,high,white_high_135-white_high_135-black_high_135-black_high_45,black_med_45_up,white_med_135_up,14,1.196689638,0.248265,left,0.3511915,0,14,10,1,0,1,1,TRUE,FALSE,med_3_mask_high,0.75,-1,3,TRUE,5,,,,,,,,,,,,,,,,,,,165,5,3.2.2021,165.151948
218,"['low', 3, 'high']",3,white,0.088615089,135,right,up,low,high,black_high_45-white_high_135-black_high_135-white_high_135,white_low_135_up,black_low_45_up,8,1.16167071,0.2485464,right,0.1680238,1,8,11,1,1,1,1,TRUE,FALSE,low_3_mask_high,0.75,-1,3,FALSE,5,,,,,,,,,,,,,,,,,,,165,5,3.2.2021,165.151948
219,"['med', 3, 'high']",3,white,0.30019113,45,left,down,med,high,white_high_135-black_high_45-white_high_135-black_high_135,white_med_45_down,black_med_135_down,17,1.778256605,0.2485402,left,0.1924369,1,17,11,0,1,1,1,TRUE,FALSE,med_3_mask_high,0.75,-1,3,TRUE,6,,,,,,,,,,,,,,,,,,,165,5,3.2.2021,165.151948
220,"['low', 1, 'high']",1,white,0.551639915,45,left,up,low,high,white_high_135-white_high_135-black_high_45-black_high_135,white_low_45_up,black_low_135_up,19,1.787983131,0.2485471,left,0.2888734,1,19,9,1,0,1,1,TRUE,FALSE,low_1_mask_high,0.75,-1,3,FALSE,3,,,,,,,,,,,,,,,,,,,165,5,3.2.2021,165.151948
221,"['high', 2, 'low']",2,white,0.020467796,135,right,up,high,low,white_low_45-black_low_135-black_low_45-white_low_135,white_high_135_up,black_high_45_up,1,1.01501637,0.2485418,left,1.7818859,0,1,13,1,0,1,1,TRUE,FALSE,high_2_mask_low,0.75,-1,3,TRUE,3,,,,,,,,,,,,,,,,,,,165,5,3.2.2021,165.151948
222,"['low', 2, 'low']",2,white,0.343435526,135,right,up,low,low,black_low_45-black_low_135-white_low_45-white_low_135,white_low_135_up,black_low_45_up,13,1.322645509,0.2503106,right,0.201252,1,13,18,1,1,1,1,TRUE,FALSE,low_2_mask_low,0.75,-1,3,FALSE,5,,,,,,,,,,,,,,,,,,,165,5,3.2.2021,165.151948
223,"['med', 1, 'low']",1,white,0.567946619,135,right,up,med,low,black_low_135-white_low_45-white_low_135-black_low_45,white_med_135_up,black_med_45_up,31,1.887632,0.2485533,right,0.0387695,1,31,17,1,1,1,1,TRUE,FALSE,med_1_mask_low,0.75,-1,3,FALSE,9,,,,,,,,,,,,,,,,,,,165,5,3.2.2021,165.151948
224,"['high', 3, 'high']",3,black,0.680863438,135,left,down,high,high,white_high_135-black_high_135-white_high_135-black_high_45,black_high_135_down,white_high_45_down,14,1.494533119,0.2482886,left,0.1485336,1,14,6,1,0,1,1,TRUE,FALSE,high_3_mask_high,0.75,-1,3,FALSE,2,,,,,,,,,,,,,,,,,,,165,5,3.2.2021,165.151948
225,"['med', 2, 'low']",2,white,0.046771458,45,left,down,med,low,white_low_45-white_low_135-black_low_135-black_low_45,white_med_45_down,black_med_135_down,10,1.427803495,0.2485495,left,0.2819913,1,10,14,0,1,1,1,TRUE,FALSE,med_2_mask_low,0.75,-1,3,TRUE,8,,,,,,,,,,,,,,,,,,,165,5,3.2.2021,165.151948
226,"['high', 3, 'low']",3,black,0.523567775,135,left,down,high,low,black_low_135-white_low_45-black_low_45-white_low_135,black_high_135_down,white_high_45_down,17,1.673031686,0.2485489,left,0.1040129,1,17,15,0,1,1,1,TRUE,FALSE,high_3_mask_low,0.75,-1,3,TRUE,10,,,,,,,,,,,,,,,,,,,165,5,3.2.2021,165.151948
227,"['med', 1, 'low']",1,black,0.212576793,135,left,down,med,low,black_low_45-black_low_135-white_low_135-white_low_45,black_med_135_down,white_med_45_down,30,1.339412555,0.2485646,left,0.2306454,1,30,18,1,1,1,1,TRUE,FALSE,med_1_mask_low,0.75,-1,3,FALSE,9,,,,,,,,,,,,,,,,,,,165,5,3.2.2021,165.151948
228,"['high', 1, 'low']",1,white,0.892535201,45,left,up,high,low,black_low_135-white_low_135-white_low_45-black_low_45,white_high_45_up,black_high_135_up,17,1.916925646,0.2485364,left,0.2609628,1,17,7,1,0,1,1,TRUE,FALSE,high_1_mask_low,0.75,-1,3,FALSE,4,,,,,,,,,,,,,,,,,,,165,5,3.2.2021,165.151948
229,"['high', 1, 'high']",1,black,0.958433627,135,left,down,high,high,black_high_45-white_high_135-white_high_135-black_high_135,black_high_135_down,white_high_45_down,16,1.689926245,0.2485606,left,0.8536746,1,16,12,1,1,1,1,TRUE,FALSE,high_1_mask_high,0.75,-1,3,FALSE,6,,,,,,,,,,,,,,,,,,,165,5,3.2.2021,165.151948
230,"['low', 1, 'high']",1,black,0.521693978,135,left,up,low,high,black_high_45-white_high_135-black_high_135-white_high_135,black_low_135_up,white_low_45_up,18,1.446101782,0.245277,left,0.4275889,1,18,10,1,0,1,1,TRUE,FALSE,low_1_mask_high,0.75,-1,3,FALSE,3,,,,,,,,,,,,,,,,,,,165,5,3.2.2021,165.151948
231,"['low', 2, 'high']",2,white,0.848264954,45,left,down,low,high,black_high_45-black_high_135-white_high_135-white_high_135,white_low_45_down,black_low_135_down,12,1.532251453,0.2485418,left,0.0921645,1,12,11,1,1,1,1,TRUE,FALSE,low_2_mask_high,0.75,-1,3,FALSE,6,,,,,,,,,,,,,,,,,,,165,5,3.2.2021,165.151948
232,"['high', 2, 'high']",2,black,0.514875125,45,right,down,high,high,white_high_135-black_high_45-white_high_135-black_high_135,black_high_45_down,white_high_135_down,4,1.460157175,0.2485528,left,0.0180917,0,4,8,1,0,1,1,TRUE,FALSE,high_2_mask_high,0.75,-1,3,TRUE,3,,,,,,,,,,,,,,,,,,,165,5,3.2.2021,165.151948
233,"['low', 1, 'low']",1,black,0.367028626,45,right,up,low,low,white_low_135-white_low_45-black_low_45-black_low_135,black_low_45_up,white_low_135_up,18,1.754798584,0.2467223,left,0.1305604,0,18,14,0,1,1,1,TRUE,FALSE,low_1_mask_low,0.75,-1,3,FALSE,7,,,,,,,,,,,,,,,,,,,165,5,3.2.2021,165.151948
234,"['med', 2, 'high']",2,white,0.762143914,135,right,up,med,high,black_high_135-white_high_135-white_high_135-black_high_45,white_med_135_up,black_med_45_up,10,1.081980226,0.2485385,left,0.0110743,0,10,14,0,1,1,1,TRUE,FALSE,med_2_mask_high,0.75,-1,3,FALSE,7,,,,,,,,,,,,,,,,,,,165,5,3.2.2021,165.151948
235,"['low', 2, 'low']",2,black,0.202620014,135,left,up,low,low,white_low_135-black_low_135-black_low_45-white_low_45,black_low_135_up,white_low_45_up,12,1.907236649,0.2467774,left,0.0831065,1,12,19,1,1,1,1,TRUE,FALSE,low_2_mask_low,0.75,-1,3,FALSE,5,,,,,,,,,,,,,,,,,,,165,5,3.2.2021,165.151948
236,"['high', 2, 'high']",2,white,0.839604367,45,left,down,high,high,black_high_135-black_high_45-white_high_135-white_high_135,white_high_45_down,black_high_135_down,7,1.391930403,0.2485102,left,0.0452231,1,7,9,0,0,1,1,TRUE,FALSE,high_2_mask_high,0.75,-1,3,TRUE,4,,,,,,,,,,,,,,,,,,,165,5,3.2.2021,165.151948
237,"['high', 3, 'high']",3,black,0.843108264,135,left,up,high,high,white_high_135-white_high_135-black_high_45-black_high_135,black_high_135_up,white_high_45_up,13,1.016378968,0.2503201,left,0.2105305,1,13,7,1,0,1,1,TRUE,FALSE,high_3_mask_high,0.75,-1,3,FALSE,2,,,,,,,,,,,,,,,,,,,165,5,3.2.2021,165.151948
238,"['low', 3, 'low']",3,black,0.890604166,135,left,down,low,low,white_low_45-black_low_135-white_low_135-black_low_45,black_low_135_down,white_low_45_down,5,1.606478941,0.2485495,left,0.3238295,1,5,10,1,0,1,1,TRUE,FALSE,low_3_mask_low,0.75,-1,3,FALSE,2,,,,,,,,,,,,,,,,,,,165,5,3.2.2021,165.151948
239,"['high', 1, 'low']",1,black,0.878074778,45,right,up,high,low,black_low_135-black_low_45-white_low_135-white_low_45,black_high_45_up,white_high_135_up,16,1.192993729,0.2467717,left,0.058358,0,16,8,1,0,1,1,TRUE,FALSE,high_1_mask_low,0.75,-1,3,TRUE,5,,,,,,,,,,,,,,,,,,,165,5,3.2.2021,165.151948
240,"['med', 2, 'low']",2,black,0.649527954,45,right,up,med,low,white_low_135-black_low_45-white_low_45-black_low_135,black_med_45_up,white_med_135_up,9,1.038167693,0.2485477,left,0.1745146,0,9,15,1,1,1,1,TRUE,FALSE,med_2_mask_low,0.75,-1,3,TRUE,9,,,,,,,,,,,,,,,,,,,165,5,3.2.2021,165.151948
241,"['low', 3, 'high']",3,black,0.51593029,135,left,up,low,high,black_high_135-white_high_135-white_high_135-black_high_45,black_low_135_up,white_low_45_up,7,1.689314299,0.2485357,left,0.2483051,1,7,12,1,1,1,1,TRUE,FALSE,low_3_mask_high,0.75,-1,3,FALSE,5,,,,,,,,,,,,,,,,,,,165,5,3.2.2021,165.151948
242,"['med', 2, 'low']",2,white,0.441707654,45,left,down,med,low,black_low_135-black_low_45-white_low_135-white_low_45,white_med_45_down,black_med_135_down,12,1.296391425,0.2485476,left,0.7837938,1,12,16,0,1,1,1,TRUE,FALSE,med_2_mask_low,0.75,-1,3,TRUE,10,,,,,,,,,,,,,,,,,,,165,5,3.2.2021,165.151948
243,"['med', 2, 'high']",2,white,0.012571117,45,left,up,med,high,white_high_135-white_high_135-black_high_45-black_high_135,white_med_45_up,black_med_135_up,13,1.554043109,0.248554,left,0.0643494,1,13,15,0,1,1,1,TRUE,FALSE,med_2_mask_high,0.75,-1,3,TRUE,8,,,,,,,,,,,,,,,,,,,165,5,3.2.2021,165.151948
244,"['med', 2, 'high']",2,white,0.035853986,135,right,up,med,high,white_high_135-white_high_135-black_high_135-black_high_45,white_med_135_up,black_med_45_up,12,1.541506507,0.2485511,right,0.4271882,1,12,16,1,1,1,1,TRUE,FALSE,med_2_mask_high,0.75,-1,3,FALSE,8,,,,,,,,,,,,,,,,,,,165,5,3.2.2021,165.151948
245,"['high', 3, 'low']",3,black,0.77296007,135,left,up,high,low,black_low_45-black_low_135-white_low_135-white_low_45,black_high_135_up,white_high_45_up,16,1.707180609,0.2485457,left,0.3963812,1,16,16,1,1,1,1,TRUE,FALSE,high_3_mask_low,0.75,-1,3,FALSE,10,,,,,,,,,,,,,,,,,,,165,5,3.2.2021,165.151948
246,"['low', 2, 'high']",2,black,0.138464729,135,left,down,low,high,black_high_45-black_high_135-white_high_135-white_high_135,black_low_135_down,white_low_45_down,11,1.329606266,0.2484375,left,0.3400226,1,11,12,1,1,1,1,TRUE,FALSE,low_2_mask_high,0.75,-1,3,FALSE,6,,,,,,,,,,,,,,,,,,,165,5,3.2.2021,165.151948
247,"['med', 2, 'low']",2,white,0.014329808,45,left,down,med,low,black_low_135-white_low_135-black_low_45-white_low_45,white_med_45_down,black_med_135_down,11,1.138377975,0.246795,left,0.2354245,1,11,17,1,1,1,1,TRUE,FALSE,med_2_mask_low,0.75,-1,3,FALSE,10,,,,,,,,,,,,,,,,,,,165,5,3.2.2021,165.151948
248,"['high', 3, 'low']",3,white,0.602796133,135,right,down,high,low,black_low_135-black_low_45-white_low_135-white_low_45,white_high_135_down,black_high_45_down,15,1.798815615,0.2485458,left,0.2613766,0,15,17,1,1,1,1,TRUE,FALSE,high_3_mask_low,0.75,-1,3,TRUE,11,,,,,,,,,,,,,,,,,,,165,5,3.2.2021,165.151948
249,"['high', 3, 'low']",3,black,0.201452078,45,right,down,high,low,white_low_45-black_low_135-black_low_45-white_low_135,black_high_45_down,white_high_135_down,18,1.280761515,0.248545,right,0.0961698,1,18,18,0,1,1,1,TRUE,FALSE,high_3_mask_low,0.75,-1,3,TRUE,12,,,,,,,,,,,,,,,,,,,165,5,3.2.2021,165.151948
250,"['med', 2, 'low']",2,black,0.216980931,135,left,down,med,low,black_low_45-white_low_135-white_low_45-black_low_135,black_med_135_down,white_med_45_down,10,1.261495733,0.2485414,left,0.0599817,1,10,18,1,1,1,1,TRUE,FALSE,med_2_mask_low,0.75,-1,3,FALSE,10,,,,,,,,,,,,,,,,,,,165,5,3.2.2021,165.151948
251,"['low', 3, 'low']",3,black,0.120536386,135,left,up,low,low,black_low_135-white_low_135-white_low_45-black_low_45,black_low_135_up,white_low_45_up,4,1.083037399,0.246731,right,0.5575456,0,4,11,1,0,1,1,TRUE,FALSE,low_3_mask_low,0.75,-1,3,TRUE,3,,,,,,,,,,,,,,,,,,,165,5,3.2.2021,165.151948
252,"['med', 2, 'high']",2,white,0.104172533,45,left,down,med,high,white_high_135-black_high_135-white_high_135-black_high_45,white_med_45_down,black_med_135_down,11,1.320098199,0.2485663,left,0.3972359,1,11,17,1,1,1,1,TRUE,FALSE,med_2_mask_high,0.75,-1,3,FALSE,8,,,,,,,,,,,,,,,,,,,165,5,3.2.2021,165.151948
253,"['high', 2, 'high']",2,black,0.219301187,45,right,down,high,high,black_high_45-black_high_135-white_high_135-white_high_135,black_high_45_down,white_high_135_down,6,1.166553962,0.2485442,right,0.2721877,1,6,10,1,0,1,1,TRUE,FALSE,high_2_mask_high,0.75,-1,3,FALSE,4,,,,,,,,,,,,,,,,,,,165,5,3.2.2021,165.151948
254,"['low', 3, 'high']",3,white,0.618394674,135,right,up,low,high,white_high_135-black_high_45-black_high_135-white_high_135,white_low_135_up,black_low_45_up,6,1.804338046,0.2485568,right,0.3582679,1,6,13,1,1,1,1,TRUE,FALSE,low_3_mask_high,0.75,-1,3,FALSE,5,,,,,,,,,,,,,,,,,,,165,5,3.2.2021,165.151948
255,"['high', 1, 'low']",1,white,0.44638959,45,left,up,high,low,white_low_135-white_low_45-black_low_45-black_low_135,white_high_45_up,black_high_135_up,19,1.150521938,0.2502933,left,0.3117621,1,19,9,0,1,1,1,TRUE,FALSE,high_1_mask_low,0.75,-1,3,TRUE,6,,,,,,,,,,,,,,,,,,,165,5,3.2.2021,165.151948
256,"['med', 2, 'high']",2,black,0.798138815,45,right,up,med,high,black_high_45-white_high_135-white_high_135-black_high_135,black_med_45_up,white_med_135_up,10,1.974486264,0.2488336,left,0.2386104,0,10,18,1,1,1,1,TRUE,FALSE,med_2_mask_high,0.75,-1,3,TRUE,9,,,,,,,,,,,,,,,,,,,165,5,3.2.2021,165.151948
257,"['med', 2, 'high']",2,black,0.747782989,45,right,up,med,high,black_high_45-white_high_135-black_high_135-white_high_135,black_med_45_up,white_med_135_up,13,1.285751708,0.2488166,right,0.1395709,1,13,19,0,1,1,1,TRUE,FALSE,med_2_mask_high,0.75,-1,3,TRUE,10,,,,,,,,,,,,,,,,,,,165,5,3.2.2021,165.151948
258,"['med', 2, 'high']",2,white,0.744992925,135,right,up,med,high,white_high_135-black_high_45-black_high_135-white_high_135,white_med_135_up,black_med_45_up,12,1.828575076,0.2485436,right,0.1961636,1,12,20,1,1,1,1,TRUE,FALSE,med_2_mask_high,0.75,-1,3,FALSE,10,,,,,,,,,,,,,,,,,,,165,5,3.2.2021,165.151948
259,"['med', 1, 'low']",1,black,0.793071299,45,right,down,med,low,black_low_45-white_low_45-black_low_135-white_low_135,black_med_45_down,white_med_135_down,29,1.456968668,0.2502936,right,0.020772,1,29,19,1,1,1,1,TRUE,FALSE,med_1_mask_low,0.75,-1,3,FALSE,9,,,,,,,,,,,,,,,,,,,165,5,3.2.2021,165.151948
260,"['med', 1, 'low']",1,black,0.449929579,45,right,up,med,low,white_low_135-black_low_45-black_low_135-white_low_45,black_med_45_up,white_med_135_up,28,1.170154572,0.2485557,right,0.010878,1,28,20,1,1,1,1,TRUE,FALSE,med_1_mask_low,0.75,-1,3,FALSE,9,,,,,,,,,,,,,,,,,,,165,5,3.2.2021,165.151948
261,"['low', 3, 'low']",3,white,0.2146545,135,right,down,low,low,black_low_135-black_low_45-white_low_135-white_low_45,white_low_135_down,black_low_45_down,7,1.914188565,0.2467845,right,0.0663169,1,7,12,0,0,1,1,TRUE,FALSE,low_3_mask_low,0.75,-1,3,TRUE,4,,,,,,,,,,,,,,,,,,,165,5,3.2.2021,165.151948
262,"['high', 2, 'high']",2,white,0.085781341,45,left,down,high,high,white_high_135-black_high_45-black_high_135-white_high_135,white_high_45_down,black_high_135_down,5,1.002904587,0.2485544,left,0.223541,1,5,11,1,0,1,1,TRUE,FALSE,high_2_mask_high,0.75,-1,3,FALSE,4,,,,,,,,,,,,,,,,,,,165,5,3.2.2021,165.151948
263,"['high', 3, 'low']",3,black,0.993069023,45,right,down,high,low,white_low_135-white_low_45-black_low_45-black_low_135,black_high_45_down,white_high_135_down,17,1.431977684,0.248539,right,0.3655412,1,17,19,1,1,1,1,TRUE,FALSE,high_3_mask_low,0.75,-1,3,FALSE,12,,,,,,,,,,,,,,,,,,,165,5,3.2.2021,165.151948
264,"['high', 1, 'low']",1,black,0.435889734,45,right,up,high,low,black_low_45-black_low_135-white_low_45-white_low_135,black_high_45_up,white_high_135_up,18,1.454499458,0.248535,left,0.1915151,0,18,10,1,1,1,1,TRUE,FALSE,high_1_mask_low,0.75,-1,3,TRUE,7,,,,,,,,,,,,,,,,,,,165,5,3.2.2021,165.151948
265,"['high', 1, 'high']",1,white,0.228127067,45,left,up,high,high,white_high_135-white_high_135-black_high_135-black_high_45,white_high_45_up,black_high_135_up,15,1.550910356,0.2502863,left,0.1868039,1,15,13,1,1,1,1,TRUE,FALSE,high_1_mask_high,0.75,-1,3,FALSE,6,,,,,,,,,,,,,,,,,,,165,5,3.2.2021,165.151948
266,"['low', 3, 'low']",3,black,0.599003572,45,right,up,low,low,white_low_45-black_low_135-black_low_45-white_low_135,black_low_45_up,white_low_135_up,6,1.593950244,0.2467303,right,0.3479307,1,6,13,1,0,1,1,TRUE,FALSE,low_3_mask_low,0.75,-1,3,FALSE,4,,,,,,,,,,,,,,,,,,,165,5,3.2.2021,165.151948
267,"['low', 2, 'high']",2,black,0.191905962,45,right,up,low,high,white_high_135-black_high_135-white_high_135-black_high_45,black_low_45_up,white_low_135_up,10,1.85526621,0.2467338,right,0.3070227,1,10,13,1,1,1,1,TRUE,FALSE,low_2_mask_high,0.75,-1,3,FALSE,6,,,,,,,,,,,,,,,,,,,165,5,3.2.2021,165.151948
268,"['high', 3, 'high']",3,white,0.802821353,45,left,up,high,high,black_high_45-black_high_135-white_high_135-white_high_135,white_high_45_up,black_high_135_up,12,1.158745347,0.2485464,left,0.1867019,1,12,8,1,0,1,1,TRUE,FALSE,high_3_mask_high,0.75,-1,3,FALSE,2,,,,,,,,,,,,,,,,,,,165,5,3.2.2021,165.151948
269,"['high', 3, 'high']",3,white,0.251872625,135,right,up,high,high,black_high_135-black_high_45-white_high_135-white_high_135,white_high_135_up,black_high_45_up,11,1.633201606,0.2485452,right,0.3343509,1,11,9,1,0,1,1,TRUE,FALSE,high_3_mask_high,0.75,-1,3,FALSE,2,,,,,,,,,,,,,,,,,,,165,5,3.2.2021,165.151948
270,"['high', 2, 'low']",2,white,0.151376534,135,right,down,high,low,black_low_135-white_low_45-white_low_135-black_low_45,white_high_135_down,black_high_45_down,4,1.024259335,0.250301,right,0.363889,1,4,14,0,0,1,1,TRUE,FALSE,high_2_mask_low,0.75,-1,3,TRUE,4,,,,,,,,,,,,,,,,,,,165,5,3.2.2021,165.151948
271,"['low', 2, 'high']",2,black,0.234696045,135,left,up,low,high,black_high_45-black_high_135-white_high_135-white_high_135,black_low_135_up,white_low_45_up,9,1.653338749,0.2467826,right,0.0560284,0,9,14,1,1,1,1,TRUE,FALSE,low_2_mask_high,0.75,-1,3,TRUE,7,,,,,,,,,,,,,,,,,,,165,5,3.2.2021,165.151948
272,"['med', 3, 'low']",3,white,0.102109944,135,right,down,med,low,black_low_135-black_low_45-white_low_45-white_low_135,white_med_135_down,black_med_45_down,9,1.798567987,0.2467514,right,0.1168354,1,9,12,0,0,1,1,TRUE,FALSE,med_3_mask_low,0.75,-1,3,TRUE,4,,,,,,,,,,,,,,,,,,,165,5,3.2.2021,165.151948
273,"['med', 3, 'high']",3,white,0.460730317,45,left,up,med,high,white_high_135-white_high_135-black_high_135-black_high_45,white_med_45_up,black_med_135_up,16,1.218118629,0.2502959,left,0.0929203,1,16,12,1,1,1,1,TRUE,FALSE,med_3_mask_high,0.75,-1,3,FALSE,6,,,,,,,,,,,,,,,,,,,165,5,3.2.2021,165.151948
274,"['low', 2, 'high']",2,white,0.579181263,45,left,down,low,high,white_high_135-black_high_135-white_high_135-black_high_45,white_low_45_down,black_low_135_down,12,1.309492088,0.2485391,left,0.1596035,1,12,15,0,1,1,1,TRUE,FALSE,low_2_mask_high,0.75,-1,3,TRUE,8,,,,,,,,,,,,,,,,,,,165,5,3.2.2021,165.151948
275,"['high', 3, 'high']",3,white,0.068255685,45,left,up,high,high,black_high_135-white_high_135-white_high_135-black_high_45,white_high_45_up,black_high_135_up,10,1.745374641,0.2467792,left,0.1429546,1,10,10,1,0,1,1,TRUE,FALSE,high_3_mask_high,0.75,-1,3,FALSE,2,,,,,,,,,,,,,,,,,,,165,5,3.2.2021,165.151948
276,"['low', 3, 'low']",3,white,0.934217975,45,left,down,low,low,white_low_135-black_low_45-white_low_45-black_low_135,white_low_45_down,black_low_135_down,5,1.547759396,0.2485356,left,0.1248077,1,5,14,1,0,1,1,TRUE,FALSE,low_3_mask_low,0.75,-1,3,FALSE,4,,,,,,,,,,,,,,,,,,,165,5,3.2.2021,165.151948
277,"['med', 1, 'high']",1,white,0.132984711,135,right,up,med,high,white_high_135-black_high_135-white_high_135-black_high_45,white_med_135_up,black_med_45_up,24,1.759946201,0.2467667,right,0.3218044,1,24,16,0,1,1,1,TRUE,FALSE,med_1_mask_high,0.75,-1,3,TRUE,6,,,,,,,,,,,,,,,,,,,165,5,3.2.2021,165.151948
278,"['low', 3, 'high']",3,white,0.357462278,45,left,down,low,high,black_high_135-black_high_45-white_high_135-white_high_135,white_low_45_down,black_low_135_down,5,1.648516245,0.2485426,right,0.2876331,0,5,14,1,1,1,1,TRUE,FALSE,low_3_mask_high,0.75,-1,3,TRUE,6,,,,,,,,,,,,,,,,,,,165,5,3.2.2021,165.151948
279,"['med', 3, 'high']",3,black,0.677109335,45,right,up,med,high,white_high_135-white_high_135-black_high_45-black_high_135,black_med_45_up,white_med_135_up,15,1.238895212,0.246785,right,0.2038842,1,15,13,1,1,1,1,TRUE,FALSE,med_3_mask_high,0.75,-1,3,FALSE,6,,,,,,,,,,,,,,,,,,,165,5,3.2.2021,165.151948
280,"['med', 1, 'high']",1,white,0.806036794,45,left,down,med,high,black_high_135-white_high_135-black_high_45-white_high_135,white_med_45_down,black_med_135_down,23,1.204163953,0.2485339,left,0.2239489,1,23,17,1,1,1,1,TRUE,FALSE,med_1_mask_high,0.75,-1,3,FALSE,6,,,,,,,,,,,,,,,,,,,165,5,3.2.2021,165.151948
281,"['low', 1, 'high']",1,white,0.006235314,135,right,down,low,high,black_high_135-black_high_45-white_high_135-white_high_135,white_low_135_down,black_low_45_down,17,1.42328872,0.2503247,right,0.0083912,1,17,11,1,0,1,1,TRUE,FALSE,low_1_mask_high,0.75,-1,3,FALSE,3,,,,,,,,,,,,,,,,,,,165,5,3.2.2021,165.151948
282,"['med', 3, 'low']",3,white,0.150230209,45,left,up,med,low,black_low_45-white_low_45-white_low_135-black_low_135,white_med_45_up,black_med_135_up,8,1.959035507,0.248556,left,0.1868378,1,8,13,1,0,1,1,TRUE,FALSE,med_3_mask_low,0.75,-1,3,FALSE,4,,,,,,,,,,,,,,,,,,,165,5,3.2.2021,165.151948
283,"['low', 3, 'low']",3,black,0.193533172,45,right,up,low,low,white_low_45-black_low_135-black_low_45-white_low_135,black_low_45_up,white_low_135_up,4,1.876877809,0.2485452,left,0.2336582,0,4,15,1,0,1,1,TRUE,FALSE,low_3_mask_low,0.75,-1,3,TRUE,5,,,,,,,,,,,,,,,,,,,165,5,3.2.2021,165.151948
284,"['low', 1, 'low']",1,white,0.958889726,45,left,up,low,low,white_low_45-black_low_45-white_low_135-black_low_135,white_low_45_up,black_low_135_up,21,1.186970328,0.2488218,left,0.1012762,1,21,15,0,1,1,1,TRUE,FALSE,low_1_mask_low,0.75,-1,3,TRUE,8,,,,,,,,,,,,,,,,,,,165,5,3.2.2021,165.151948
285,"['med', 3, 'low']",3,white,0.433097102,45,left,up,med,low,white_low_45-black_low_45-black_low_135-white_low_135,white_med_45_up,black_med_135_up,7,1.916117426,0.2485557,left,0.1019426,1,7,14,1,0,1,1,TRUE,FALSE,med_3_mask_low,0.75,-1,3,FALSE,4,,,,,,,,,,,,,,,,,,,165,5,3.2.2021,165.151948
286,"['low', 3, 'high']",3,black,0.479656157,45,right,up,low,high,black_high_45-white_high_135-black_high_135-white_high_135,black_low_45_up,white_low_135_up,8,1.104838108,0.2467403,right,0.240521,1,8,15,0,1,1,1,TRUE,FALSE,low_3_mask_high,0.75,-1,3,TRUE,7,,,,,,,,,,,,,,,,,,,165,5,3.2.2021,165.151948
287,"['high', 2, 'high']",2,black,0.545328387,135,left,up,high,high,white_high_135-black_high_45-black_high_135-white_high_135,black_high_135_up,white_high_45_up,4,1.43295572,0.2485435,right,0.2155279,0,4,12,1,0,1,1,TRUE,FALSE,high_2_mask_high,0.75,-1,3,TRUE,5,,,,,,,,,,,,,,,,,,,165,5,3.2.2021,165.151948
288,"['low', 2, 'low']",2,black,0.100469804,135,left,down,low,low,white_low_45-black_low_45-white_low_135-black_low_135,black_low_135_down,white_low_45_down,11,1.021026087,0.2485439,right,0.1057001,0,11,20,1,1,1,1,TRUE,FALSE,low_2_mask_low,0.75,-1,3,TRUE,6,,,,,,,,,,,,,,,,,,,165,5,3.2.2021,165.151948
289,"['low', 2, 'high']",2,white,0.620548152,135,right,down,low,high,black_high_45-black_high_135-white_high_135-white_high_135,white_low_135_down,black_low_45_down,11,1.763728985,0.2467837,right,0.259549,1,11,16,1,1,1,1,TRUE,FALSE,low_2_mask_high,0.75,-1,3,FALSE,8,,,,,,,,,,,,,,,,,,,165,5,3.2.2021,165.151948
290,"['med', 2, 'low']",2,white,0.344626578,45,left,up,med,low,black_low_135-white_low_135-black_low_45-white_low_45,white_med_45_up,black_med_135_up,9,1.728403143,0.2485439,left,0.0323363,1,9,19,1,1,1,1,TRUE,FALSE,med_2_mask_low,0.75,-1,3,FALSE,10,,,,,,,,,,,,,,,,,,,165,5,3.2.2021,165.151948
291,"['high', 3, 'high']",3,black,0.256295792,135,left,down,high,high,black_high_45-black_high_135-white_high_135-white_high_135,black_high_135_down,white_high_45_down,9,1.785359626,0.2503034,left,0.1336365,1,9,11,1,0,1,1,TRUE,FALSE,high_3_mask_high,0.75,-1,3,FALSE,2,,,,,,,,,,,,,,,,,,,165,5,3.2.2021,165.151948
292,"['high', 2, 'high']",2,black,0.115943801,45,right,up,high,high,white_high_135-white_high_135-black_high_135-black_high_45,black_high_45_up,white_high_135_up,7,1.170809374,0.2485507,right,0.2886273,1,7,13,0,1,1,1,TRUE,FALSE,high_2_mask_high,0.75,-1,3,TRUE,6,,,,,,,,,,,,,,,,,,,165,5,3.2.2021,165.151948
293,"['high', 2, 'high']",2,white,0.392359938,45,left,down,high,high,white_high_135-white_high_135-black_high_45-black_high_135,white_high_45_down,black_high_135_down,6,1.396928099,0.2503368,right,0.1663479,0,6,14,1,1,1,1,TRUE,FALSE,high_2_mask_high,0.75,-1,3,TRUE,7,,,,,,,,,,,,,,,,,,,165,5,3.2.2021,165.151948
294,"['low', 3, 'high']",3,black,0.374088788,45,right,up,low,high,white_high_135-black_high_135-white_high_135-black_high_45,black_low_45_up,white_low_135_up,7,1.703350449,0.2467869,right,0.1665302,1,7,16,1,1,1,1,TRUE,FALSE,low_3_mask_high,0.75,-1,3,FALSE,7,,,,,,,,,,,,,,,,,,,165,5,3.2.2021,165.151948
295,"['low', 1, 'low']",1,black,0.321746801,135,left,down,low,low,white_low_135-black_low_45-black_low_135-white_low_45,black_low_135_down,white_low_45_down,20,1.542607245,0.2503009,right,0.2372203,0,20,16,1,1,1,1,TRUE,FALSE,low_1_mask_low,0.75,-1,3,TRUE,9,,,,,,,,,,,,,,,,,,,165,5,3.2.2021,165.151948
296,"['low', 3, 'low']",3,white,0.869455923,135,right,down,low,low,white_low_135-black_low_45-black_low_135-white_low_45,white_low_135_down,black_low_45_down,7,1.976259435,0.2485439,right,0.0974422,1,7,16,0,1,1,1,TRUE,FALSE,low_3_mask_low,0.75,-1,3,TRUE,6,,,,,,,,,,,,,,,,,,,165,5,3.2.2021,165.151948
297,"['low', 1, 'high']",1,white,0.931064941,135,right,down,low,high,white_high_135-white_high_135-black_high_135-black_high_45,white_low_135_down,black_low_45_down,16,1.730977226,0.2485522,right,0.3029618,1,16,12,1,0,1,1,TRUE,FALSE,low_1_mask_high,0.75,-1,3,FALSE,3,,,,,,,,,,,,,,,,,,,165,5,3.2.2021,165.151948
298,"['high', 1, 'high']",1,black,0.857044457,135,left,down,high,high,white_high_135-black_high_135-white_high_135-black_high_45,black_high_135_down,white_high_45_down,14,1.35061573,0.2488312,right,0.013209,0,14,14,1,1,1,1,TRUE,FALSE,high_1_mask_high,0.75,-1,3,TRUE,7,,,,,,,,,,,,,,,,,,,165,5,3.2.2021,165.151948
299,"['low', 2, 'high']",2,white,0.408805784,45,left,down,low,high,black_high_135-white_high_135-black_high_45-white_high_135,white_low_45_down,black_low_135_down,10,1.3502588,0.2485458,right,0.0306078,0,10,17,1,1,1,1,TRUE,FALSE,low_2_mask_high,0.75,-1,3,TRUE,9,,,,,,,,,,,,,,,,,,,165,5,3.2.2021,165.151948
300,"['med', 3, 'high']",3,black,0.588234641,135,left,up,med,high,white_high_135-black_high_45-black_high_135-white_high_135,black_med_135_up,white_med_45_up,14,1.126222277,0.2485426,left,0.3889223,1,14,14,1,1,1,1,TRUE,FALSE,med_3_mask_high,0.75,-1,3,FALSE,6,,,,,,,,,,,,,,,,,,,165,5,3.2.2021,165.151948
301,"['low', 2, 'high']",2,white,0.433492132,45,left,up,low,high,black_high_45-white_high_135-black_high_135-white_high_135,white_low_45_up,black_low_135_up,13,1.358680997,0.2485552,left,0.0544629,1,13,18,0,1,1,1,TRUE,FALSE,low_2_mask_high,0.75,-1,3,TRUE,10,,,,,,,,,,,,,,,,,,,165,5,3.2.2021,165.151948
302,"['high', 2, 'high']",2,black,0.610973608,45,right,down,high,high,black_high_135-white_high_135-white_high_135-black_high_45,black_high_45_down,white_high_135_down,9,1.53395525,0.2485477,right,0.2929452,1,9,15,0,1,1,1,TRUE,FALSE,high_2_mask_high,0.75,-1,3,TRUE,8,,,,,,,,,,,,,,,,,,,165,5,3.2.2021,165.151948
303,"['med', 3, 'low']",3,white,0.258694785,135,right,down,med,low,black_low_135-white_low_45-black_low_45-white_low_135,white_med_135_down,black_med_45_down,6,1.562856554,0.2467815,right,0.017579,1,6,15,1,0,1,1,TRUE,FALSE,med_3_mask_low,0.75,-1,3,FALSE,4,,,,,,,,,,,,,,,,,,,165,5,3.2.2021,165.151948
304,"['med', 1, 'low']",1,white,0.635329043,45,left,up,med,low,black_low_135-white_low_45-black_low_45-white_low_135,white_med_45_up,black_med_135_up,27,1.07895135,0.2485445,left,0.0323907,1,27,21,1,1,1,1,TRUE,FALSE,med_1_mask_low,0.75,-1,3,FALSE,9,,,,,,,,,,,,,,,,,,,165,5,3.2.2021,165.151948
305,"['med', 3, 'low']",3,white,0.352321957,135,right,up,med,low,white_low_135-black_low_135-white_low_45-black_low_45,white_med_135_up,black_med_45_up,5,1.612977806,0.246749,right,0.0064062,1,5,16,1,0,1,1,TRUE,FALSE,med_3_mask_low,0.75,-1,3,FALSE,4,,,,,,,,,,,,,,,,,,,165,5,3.2.2021,165.151948
306,"['high', 3, 'high']",3,white,0.368821945,135,right,down,high,high,white_high_135-white_high_135-black_high_135-black_high_45,white_high_135_down,black_high_45_down,8,1.418072523,0.2485402,right,0.3233149,1,8,12,1,0,1,1,TRUE,FALSE,high_3_mask_high,0.75,-1,3,FALSE,2,,,,,,,,,,,,,,,,,,,165,5,3.2.2021,165.151948
307,"['low', 1, 'low']",1,white,0.503722163,135,right,up,low,low,black_low_45-black_low_135-white_low_135-white_low_45,white_low_135_up,black_low_45_up,23,1.011179691,0.2485547,right,0.2296363,1,23,17,0,1,1,1,TRUE,FALSE,low_1_mask_low,0.75,-1,3,TRUE,10,,,,,,,,,,,,,,,,,,,165,5,3.2.2021,165.151948
308,"['low', 1, 'low']",1,white,0.693014855,45,left,down,low,low,black_low_135-white_low_135-white_low_45-black_low_45,white_low_45_down,black_low_135_down,22,1.248479936,0.2485884,left,0.3269972,1,22,18,1,1,1,1,TRUE,FALSE,low_1_mask_low,0.75,-1,3,FALSE,10,,,,,,,,,,,,,,,,,,,165,5,3.2.2021,165.151948
309,"['high', 2, 'low']",2,white,0.597675125,45,left,up,high,low,white_low_45-black_low_45-black_low_135-white_low_135,white_high_45_up,black_high_135_up,3,1.179194631,0.2466236,left,0.1644251,1,3,15,1,0,1,1,TRUE,FALSE,high_2_mask_low,0.75,-1,3,FALSE,4,,,,,,,,,,,,,,,,,,,165,5,3.2.2021,165.151948
310,"['high', 2, 'low']",2,black,0.984534907,45,right,up,high,low,black_low_45-white_low_135-black_low_135-white_low_45,black_high_45_up,white_high_135_up,2,1.800188908,0.2485436,right,1.4371124,1,2,16,1,0,1,1,TRUE,FALSE,high_2_mask_low,0.75,-1,3,FALSE,4,,,,,,,,,,,,,,,,,,,165,5,3.2.2021,165.151948
311,"['low', 1, 'low']",1,black,0.625719773,135,left,up,low,low,black_low_45-white_low_45-black_low_135-white_low_135,black_low_135_up,white_low_45_up,21,1.007234219,0.2485558,left,0.2807684,1,21,19,1,1,1,1,TRUE,FALSE,low_1_mask_low,0.75,-1,3,FALSE,10,,,,,,,,,,,,,,,,,,,165,5,3.2.2021,165.151948
312,"['med', 1, 'high']",1,white,0.545834747,135,right,up,med,high,white_high_135-white_high_135-black_high_135-black_high_45,white_med_135_up,black_med_45_up,22,1.613468574,0.2485313,right,0.2664973,1,22,18,1,1,1,1,TRUE,FALSE,med_1_mask_high,0.75,-1,3,FALSE,6,,,,,,,,,,,,,,,,,,,165,5,3.2.2021,165.151948
313,"['med', 1, 'high']",1,black,0.872035737,135,left,down,med,high,black_high_135-white_high_135-white_high_135-black_high_45,black_med_135_down,white_med_45_down,21,1.481799794,0.250305,right,0.2564615,0,21,19,1,1,1,1,TRUE,FALSE,med_1_mask_high,0.75,-1,3,TRUE,7,,,,,,,,,,,,,,,,,,,165,5,3.2.2021,165.151948
314,"['med', 1, 'high']",1,white,0.56515247,135,right,down,med,high,black_high_135-black_high_45-white_high_135-white_high_135,white_med_135_down,black_med_45_down,24,1.393786981,0.2488179,right,0.2336479,1,24,20,0,1,1,1,TRUE,FALSE,med_1_mask_high,0.75,-1,3,TRUE,8,,,,,,,,,,,,,,,,,,,165,5,3.2.2021,165.151948
315,"['med', 3, 'high']",3,white,0.935441064,135,right,down,med,high,white_high_135-black_high_45-white_high_135-black_high_135,white_med_135_down,black_med_45_down,13,1.17882715,0.2467443,left,0.086112,0,13,15,1,1,1,1,TRUE,FALSE,med_3_mask_high,0.75,-1,3,TRUE,7,,,,,,,,,,,,,,,,,,,165,5,3.2.2021,165.151948
316,"['med', 3, 'high']",3,black,0.265821219,135,left,up,med,high,black_high_45-white_high_135-black_high_135-white_high_135,black_med_135_up,white_med_45_up,16,1.834620699,0.2485504,left,0.1806865,1,16,16,0,1,1,1,TRUE,FALSE,med_3_mask_high,0.75,-1,3,TRUE,8,,,,,,,,,,,,,,,,,,,165,5,3.2.2021,165.151948
317,"['med', 1, 'low']",1,black,0.339268525,45,right,up,med,low,white_low_135-black_low_45-white_low_45-black_low_135,black_med_45_up,white_med_135_up,26,1.710343212,0.2485416,right,0.0459393,1,26,22,1,1,1,1,TRUE,FALSE,med_1_mask_low,0.75,-1,3,FALSE,9,,,,,,,,,,,,,,,,,,,165,5,3.2.2021,165.151948
318,"['low', 2, 'high']",2,black,0.923485764,45,right,up,low,high,black_high_45-white_high_135-white_high_135-black_high_135,black_low_45_up,white_low_135_up,12,1.91748812,0.2485484,right,0.1444503,1,12,19,1,1,1,1,TRUE,FALSE,low_2_mask_high,0.75,-1,3,FALSE,10,,,,,,,,,,,,,,,,,,,165,5,3.2.2021,165.151948
319,"['med', 3, 'high']",3,black,0.494723827,135,left,down,med,high,white_high_135-black_high_45-white_high_135-black_high_135,black_med_135_down,white_med_45_down,15,1.071023623,0.248541,left,0.0493426,1,15,17,1,1,1,1,TRUE,FALSE,med_3_mask_high,0.75,-1,3,FALSE,8,,,,,,,,,,,,,,,,,,,165,5,3.2.2021,165.151948
320,"['low', 2, 'low']",2,black,0.97402849,45,right,down,low,low,white_low_45-white_low_135-black_low_135-black_low_45,black_low_45_down,white_low_135_down,14,1.107623387,0.2485356,left,0.3317851,0,14,21,0,1,1,1,TRUE,FALSE,low_2_mask_low,0.75,-1,3,FALSE,6,,,,,,,,,,,,,,,,,,,165,5,3.2.2021,165.151948
321,"['high', 3, 'low']",3,white,0.574182823,135,right,down,high,low,white_low_45-black_low_135-black_low_45-white_low_135,white_high_135_down,black_high_45_down,16,1.282485051,0.2485079,right,0.1073378,1,16,20,1,1,1,1,TRUE,FALSE,high_3_mask_low,0.75,-1,3,FALSE,12,,,,,,,,,,,,,,,,,,,165,5,3.2.2021,165.151948
322,"['high', 1, 'low']",1,white,0.80793979,135,right,down,high,low,black_low_135-black_low_45-white_low_45-white_low_135,white_high_135_down,black_high_45_down,21,1.222454331,0.2485152,right,0.1527861,1,21,11,0,1,1,1,TRUE,FALSE,high_1_mask_low,0.75,-1,3,TRUE,8,,,,,,,,,,,,,,,,,,,165,5,3.2.2021,165.151948
323,"['low', 3, 'high']",3,white,0.678436802,135,right,down,low,high,white_high_135-black_high_45-black_high_135-white_high_135,white_low_135_down,black_low_45_down,6,1.39017967,0.2485471,right,0.1095344,1,6,17,1,1,1,1,TRUE,FALSE,low_3_mask_high,0.75,-1,3,FALSE,7,,,,,,,,,,,,,,,,,,,165,5,3.2.2021,165.151948
324,"['med', 1, 'high']",1,black,0.494080307,135,left,up,med,high,black_high_45-white_high_135-black_high_135-white_high_135,black_med_135_up,white_med_45_up,23,1.143936679,0.2485481,left,0.3179174,1,23,21,1,1,1,1,TRUE,FALSE,med_1_mask_high,0.75,-1,3,FALSE,8,,,,,,,,,,,,,,,,,,,165,5,3.2.2021,165.151948
325,"['med', 1, 'low']",1,black,0.684350211,45,right,up,med,low,black_low_45-white_low_135-white_low_45-black_low_135,black_med_45_up,white_med_135_up,25,1.52428965,0.2487196,right,0.0448161,1,25,23,1,1,1,1,TRUE,FALSE,med_1_mask_low,0.75,-1,3,FALSE,9,,,,,,,,,,,,,,,,,,,165,5,3.2.2021,165.151948
326,"['low', 2, 'high']",2,white,0.565635861,135,right,up,low,high,black_high_45-white_high_135-white_high_135-black_high_135,white_low_135_up,black_low_45_up,11,1.382009334,0.2485448,right,0.1328559,1,11,20,1,1,1,1,TRUE,FALSE,low_2_mask_high,0.75,-1,3,FALSE,10,,,,,,,,,,,,,,,,,,,165,5,3.2.2021,165.151948
