trial_number,trial_type,cycle_number,first_color,phase,first_orientation,correct_response,visual_field,spatial_frequency,mask_type,mask_images,first_stim,second_stim,stimulus_frame_duration,fixation_duration,mask_start,mask_end,mask_duration,answer,rt,accuracy,staircase_dv,staircase_trial_num,staircase_previous_correct,staircase_phase,staircase_step_size,staircase_powers_law,staircase_siam,staircase_over,staircase_name,staircase_conv_p,staircase_step_hit,staircase_step_miss,staircase_reversal,staircase_reversal_num,threshold_low1_mask_low,threshold_low2_mask_low,threshold_low3_mask_low,threshold_high1_mask_low,threshold_high2_mask_low,threshold_high3_mask_low,threshold_low1_mask_high,threshold_low2_mask_high,threshold_low3_mask_high,threshold_high1_mask_high,threshold_high2_mask_high,threshold_high3_mask_high,threshold_med1_mask_low,threshold_med2_mask_low,threshold_med3_mask_low,threshold_med1_mask_high,threshold_med2_mask_high,threshold_med3_mask_high,frame_rate,participant,psychopyVersion,frame_rate_detected
0,"['low', 3, 'low']",3,black,0.316791046,45,right,up,low,low,white_low_45-black_low_45-white_low_135-black_low_135,black_low_45_up,white_low_135_up,3,1.115030301,1106.799188,1107.047731,0.2485429,left,0.3722052,0,3,0,None,0,1,1,TRUE,FALSE,low_3_mask_low,0.75,-1,3,FALSE,0,,,,,,,,,,,,,,,,,,,165,1,3.2.2021,164.9838316
1,"['high', 3, 'high']",3,black,0.329940023,45,right,up,high,high,white_high_135-black_high_135-white_high_135-black_high_45,black_high_45_up,white_high_135_up,8,1.524629868,1109.77719,1110.025745,0.2485551,left,0.4727236,0,8,0,None,0,1,1,TRUE,FALSE,high_3_mask_high,0.75,-1,3,FALSE,0,,,,,,,,,,,,,,,,,,,165,1,3.2.2021,164.9838316
2,"['high', 3, 'high']",3,white,0.389085407,45,left,up,high,high,white_high_135-black_high_135-black_high_45-white_high_135,white_high_45_up,black_high_135_up,11,1.032485057,1112.481218,1112.729759,0.2485412,left,0.3980096,1,11,1,0,0,1,1,TRUE,FALSE,high_3_mask_high,0.75,-1,3,TRUE,1,,,,,,,,,,,,,,,,,,,165,1,3.2.2021,164.9838316
3,"['high', 3, 'high']",3,white,0.943263956,135,right,down,high,high,black_high_45-white_high_135-white_high_135-black_high_135,white_high_135_down,black_high_45_down,10,1.948687559,1115.991199,1116.239749,0.2485498,right,0.3540479,1,10,2,1,0,1,1,TRUE,FALSE,high_3_mask_high,0.75,-1,3,FALSE,1,,,,,,,,,,,,,,,,,,,165,1,3.2.2021,164.9838316
4,"['high', 1, 'low']",1,white,0.701278138,135,right,up,high,low,white_low_45-black_low_135-white_low_135-black_low_45,white_high_135_up,black_high_45_up,12,1.678455821,1118.932848,1119.179633,0.2467847,right,0.3067124,1,12,0,None,0,1,1,TRUE,FALSE,high_1_mask_low,0.75,-1,3,FALSE,0,,,,,,,,,,,,,,,,,,,165,1,3.2.2021,164.9838316
5,"['high', 2, 'high']",2,black,0.710311812,135,left,down,high,high,white_high_135-white_high_135-black_high_135-black_high_45,black_high_135_down,white_high_45_down,8,1.956481435,1122.162259,1122.410785,0.2485258,right,0.3113885,0,8,0,None,0,1,1,TRUE,FALSE,high_2_mask_high,0.75,-1,3,FALSE,0,,,,,,,,,,,,,,,,,,,165,1,3.2.2021,164.9838316
6,"['high', 1, 'low']",1,black,0.081438184,135,left,down,high,low,white_low_135-white_low_45-black_low_45-black_low_135,black_high_135_down,white_high_45_down,11,1.882492677,1125.253964,1125.502508,0.248544,left,0.5348404,1,11,1,1,0,1,1,TRUE,FALSE,high_1_mask_low,0.75,-1,3,FALSE,0,,,,,,,,,,,,,,,,,,,165,1,3.2.2021,164.9838316
7,"['low', 1, 'low']",1,white,0.422687113,135,right,up,low,low,white_low_45-black_low_45-white_low_135-black_low_135,white_low_135_up,black_low_45_up,8,1.542523592,1128.20231,1128.448998,0.2466877,right,1.1350993,1,8,0,None,0,1,1,TRUE,FALSE,low_1_mask_low,0.75,-1,3,FALSE,0,,,,,,,,,,,,,,,,,,,165,1,3.2.2021,164.9838316
8,"['med', 1, 'low']",1,black,0.220714615,45,right,up,med,low,white_low_135-black_low_135-black_low_45-white_low_45,black_med_45_up,white_med_135_up,12,1.139048293,1131.382842,1131.631385,0.2485427,left,0.0736337,0,12,0,None,0,1,1,TRUE,FALSE,med_1_mask_low,0.75,-1,3,FALSE,0,,,,,,,,,,,,,,,,,,,165,1,3.2.2021,164.9838316
9,"['high', 2, 'high']",2,black,0.371978433,45,right,down,high,high,black_high_45-white_high_135-white_high_135-black_high_135,black_high_45_down,white_high_135_down,11,1.518189931,1134.019893,1134.270197,0.2503042,right,0.4229817,1,11,1,0,0,1,1,TRUE,FALSE,high_2_mask_high,0.75,-1,3,TRUE,1,,,,,,,,,,,,,,,,,,,165,1,3.2.2021,164.9838316
10,"['low', 3, 'high']",3,black,0.626265476,45,right,up,low,high,black_high_135-white_high_135-white_high_135-black_high_45,black_low_45_up,white_low_135_up,3,1.829086468,1137.166179,1137.414721,0.2485422,left,0.2177452,0,3,0,None,0,1,1,TRUE,FALSE,low_3_mask_high,0.75,-1,3,FALSE,0,,,,,,,,,,,,,,,,,,,165,1,3.2.2021,164.9838316
11,"['high', 1, 'high']",1,black,0.578900465,45,right,down,high,high,white_high_135-black_high_135-black_high_45-white_high_135,black_high_45_down,white_high_135_down,12,1.248940312,1139.548615,1139.797161,0.2485467,right,0.2318809,1,12,0,None,0,1,1,TRUE,FALSE,high_1_mask_high,0.75,-1,3,FALSE,0,,,,,,,,,,,,,,,,,,,165,1,3.2.2021,164.9838316
12,"['low', 3, 'low']",3,white,0.878496888,45,left,up,low,low,white_low_45-black_low_135-black_low_45-white_low_135,white_low_45_up,black_low_135_up,6,1.75558638,1142.543345,1142.791885,0.2485403,left,0.1881209,1,6,1,0,0,1,1,TRUE,FALSE,low_3_mask_low,0.75,-1,3,TRUE,1,,,,,,,,,,,,,,,,,,,165,1,3.2.2021,164.9838316
13,"['med', 1, 'high']",1,black,0.047390664,45,right,down,med,high,white_high_135-white_high_135-black_high_45-black_high_135,black_med_45_down,white_med_135_down,12,1.28552874,1144.938214,1145.186761,0.2485475,left,0.197025,0,12,0,None,0,1,1,TRUE,FALSE,med_1_mask_high,0.75,-1,3,FALSE,0,,,,,,,,,,,,,,,,,,,165,1,3.2.2021,164.9838316
14,"['high', 3, 'high']",3,white,0.963196603,135,right,up,high,high,white_high_135-white_high_135-black_high_45-black_high_135,white_high_135_up,black_high_45_up,9,1.257548278,1147.50825,1147.756817,0.2485663,left,0.8173236,0,9,3,1,0,1,1,TRUE,FALSE,high_3_mask_high,0.75,-1,3,TRUE,2,,,,,,,,,,,,,,,,,,,165,1,3.2.2021,164.9838316
15,"['low', 3, 'high']",3,black,0.869081104,45,right,up,low,high,black_high_135-white_high_135-white_high_135-black_high_45,black_low_45_up,white_low_135_up,6,1.119501622,1150.448436,1150.696983,0.2485478,left,0.1743333,0,6,1,0,0,1,1,TRUE,FALSE,low_3_mask_high,0.75,-1,3,FALSE,0,,,,,,,,,,,,,,,,,,,165,1,3.2.2021,164.9838316
16,"['high', 1, 'high']",1,white,0.306547314,45,left,up,high,high,black_high_135-white_high_135-black_high_45-white_high_135,white_high_45_up,black_high_135_up,11,1.541336642,1153.061247,1153.309784,0.2485376,left,0.1702003,1,11,1,1,0,1,1,TRUE,FALSE,high_1_mask_high,0.75,-1,3,FALSE,0,,,,,,,,,,,,,,,,,,,165,1,3.2.2021,164.9838316
17,"['high', 3, 'high']",3,black,0.893631111,135,left,up,high,high,black_high_45-white_high_135-black_high_135-white_high_135,black_high_135_up,white_high_45_up,12,1.065732248,1155.5225,1155.771342,0.2488421,right,0.3562339,0,12,4,0,0,1,1,TRUE,FALSE,high_3_mask_high,0.75,-1,3,FALSE,2,,,,,,,,,,,,,,,,,,,165,1,3.2.2021,164.9838316
18,"['high', 3, 'high']",3,black,0.721557612,45,right,down,high,high,white_high_135-black_high_135-white_high_135-black_high_45,black_high_45_down,white_high_135_down,15,1.006961146,1158.226534,1158.475081,0.2485467,left,0.0891048,0,15,5,0,0,1,1,TRUE,FALSE,high_3_mask_high,0.75,-1,3,FALSE,2,,,,,,,,,,,,,,,,,,,165,1,3.2.2021,164.9838316
19,"['low', 2, 'high']",2,white,0.830847676,135,right,down,low,high,black_high_135-white_high_135-white_high_135-black_high_45,white_low_135_down,black_low_45_down,3,1.655240072,1160.820865,1161.069407,0.2485424,right,0.2469282,1,3,0,None,0,1,1,TRUE,FALSE,low_2_mask_high,0.75,-1,3,FALSE,0,,,,,,,,,,,,,,,,,,,165,1,3.2.2021,164.9838316
20,"['med', 1, 'low']",1,black,0.766437025,45,right,down,med,low,white_low_45-black_low_135-white_low_135-black_low_45,black_med_45_down,white_med_135_down,15,1.93047631,1163.942893,1164.191436,0.2485436,left,0.065422,0,15,1,0,0,1,1,TRUE,FALSE,med_1_mask_low,0.75,-1,3,FALSE,0,,,,,,,,,,,,,,,,,,,165,1,3.2.2021,164.9838316
21,"['low', 3, 'high']",3,white,0.458411901,45,left,down,low,high,black_high_135-white_high_135-white_high_135-black_high_45,white_low_45_down,black_low_135_down,9,1.165155399,1166.288961,1166.537505,0.2485442,left,1.1741671,1,9,2,0,0,1,1,TRUE,FALSE,low_3_mask_high,0.75,-1,3,TRUE,1,,,,,,,,,,,,,,,,,,,165,1,3.2.2021,164.9838316
22,"['high', 3, 'low']",3,white,0.642054915,135,right,down,high,low,white_low_135-black_low_45-black_low_135-white_low_45,white_high_135_down,black_high_45_down,8,1.532592317,1170.079623,1170.326372,0.2467492,right,0.2367694,1,8,0,None,0,1,1,TRUE,FALSE,high_3_mask_low,0.75,-1,3,FALSE,0,,,,,,,,,,,,,,,,,,,165,1,3.2.2021,164.9838316
23,"['high', 2, 'high']",2,black,0.91980329,45,right,up,high,high,white_high_135-white_high_135-black_high_135-black_high_45,black_high_45_up,white_high_135_up,10,1.98372072,1173.321117,1173.569653,0.2485365,left,0.1291025,0,10,2,1,0,1,1,TRUE,FALSE,high_2_mask_high,0.75,-1,3,TRUE,2,,,,,,,,,,,,,,,,,,,165,1,3.2.2021,164.9838316
24,"['low', 1, 'high']",1,black,0.300626445,135,left,up,low,high,black_high_135-white_high_135-black_high_45-white_high_135,black_low_135_up,white_low_45_up,8,1.97097413,1176.293697,1176.540433,0.2467357,left,0.1855635,1,8,0,None,0,1,1,TRUE,FALSE,low_1_mask_high,0.75,-1,3,FALSE,0,,,,,,,,,,,,,,,,,,,165,1,3.2.2021,164.9838316
25,"['high', 1, 'low']",1,white,0.069850423,45,left,down,high,low,white_low_45-black_low_45-white_low_135-black_low_135,white_high_45_down,black_high_135_down,10,1.435426445,1178.795278,1179.043824,0.2485455,left,0.2724746,1,10,2,1,0,1,1,TRUE,FALSE,high_1_mask_low,0.75,-1,3,FALSE,0,,,,,,,,,,,,,,,,,,,165,1,3.2.2021,164.9838316
26,"['med', 1, 'low']",1,black,0.261393461,45,right,down,med,low,black_low_45-white_low_135-white_low_45-black_low_135,black_med_45_down,white_med_135_down,18,1.866015772,1181.925452,1182.172184,0.2467323,right,0.2803609,1,18,2,0,0,1,1,TRUE,FALSE,med_1_mask_low,0.75,-1,3,TRUE,1,,,,,,,,,,,,,,,,,,,165,1,3.2.2021,164.9838316
27,"['med', 1, 'high']",1,white,0.098448075,135,right,up,med,high,black_high_45-white_high_135-white_high_135-black_high_135,white_med_135_up,black_med_45_up,15,1.418838039,1184.572542,1184.821087,0.2485446,right,0.1491456,1,15,1,0,0,1,1,TRUE,FALSE,med_1_mask_high,0.75,-1,3,TRUE,1,,,,,,,,,,,,,,,,,,,165,1,3.2.2021,164.9838316
28,"['high', 1, 'low']",1,black,0.661823165,45,right,down,high,low,black_low_135-white_low_45-white_low_135-black_low_45,black_high_45_down,white_high_135_down,9,1.050172699,1186.645812,1186.894351,0.2485384,left,0.22639,0,9,3,1,0,1,1,TRUE,FALSE,high_1_mask_low,0.75,-1,3,TRUE,1,,,,,,,,,,,,,,,,,,,165,1,3.2.2021,164.9838316
29,"['med', 1, 'low']",1,white,0.543625218,135,right,up,med,low,white_low_45-black_low_135-white_low_135-black_low_45,white_med_135_up,black_med_45_up,17,1.195015345,1189.040373,1189.288916,0.2485423,right,0.0481543,1,17,3,1,0,1,1,TRUE,FALSE,med_1_mask_low,0.75,-1,3,FALSE,1,,,,,,,,,,,,,,,,,,,165,1,3.2.2021,164.9838316
30,"['med', 1, 'high']",1,white,0.36088092,45,left,up,med,high,black_high_135-black_high_45-white_high_135-white_high_135,white_med_45_up,black_med_135_up,14,1.904903579,1191.920215,1192.168749,0.2485332,left,0.0343966,1,14,2,1,0,1,1,TRUE,FALSE,med_1_mask_high,0.75,-1,3,FALSE,1,,,,,,,,,,,,,,,,,,,165,1,3.2.2021,164.9838316
31,"['high', 1, 'low']",1,white,0.657696016,135,right,up,high,low,white_low_45-white_low_135-black_low_45-black_low_135,white_high_135_up,black_high_45_up,12,1.389223891,1194.253869,1194.50241,0.2485406,right,0.0532816,1,12,4,0,0,1,1,TRUE,FALSE,high_1_mask_low,0.75,-1,3,TRUE,2,,,,,,,,,,,,,,,,,,,165,1,3.2.2021,164.9838316
32,"['low', 1, 'high']",1,white,0.133705123,45,left,up,low,high,white_high_135-black_high_45-white_high_135-black_high_135,white_low_45_up,black_low_135_up,7,1.28957913,1196.442322,1196.69086,0.2485378,right,0.4221701,0,7,1,1,0,1,1,TRUE,FALSE,low_1_mask_high,0.75,-1,3,TRUE,1,,,,,,,,,,,,,,,,,,,165,1,3.2.2021,164.9838316
33,"['med', 2, 'high']",2,white,0.226917513,45,left,down,med,high,black_high_135-white_high_135-black_high_45-white_high_135,white_med_45_down,black_med_135_down,8,1.547963298,1199.382761,1199.631317,0.248556,left,0.1271606,1,8,0,None,0,1,1,TRUE,FALSE,med_2_mask_high,0.75,-1,3,FALSE,0,,,,,,,,,,,,,,,,,,,165,1,3.2.2021,164.9838316
34,"['low', 3, 'high']",3,white,0.294807126,135,right,up,low,high,black_high_45-white_high_135-white_high_135-black_high_135,white_low_135_up,black_low_45_up,8,1.979345692,1202.571197,1202.819739,0.2485426,right,0.0506484,1,8,3,1,0,1,1,TRUE,FALSE,low_3_mask_high,0.75,-1,3,FALSE,1,,,,,,,,,,,,,,,,,,,165,1,3.2.2021,164.9838316
35,"['med', 1, 'high']",1,white,0.9857396,45,left,up,med,high,white_high_135-black_high_45-white_high_135-black_high_135,white_med_45_up,black_med_135_up,13,1.471741561,1205.014264,1205.262811,0.2485475,left,0.1509516,1,13,3,1,0,1,1,TRUE,FALSE,med_1_mask_high,0.75,-1,3,FALSE,1,,,,,,,,,,,,,,,,,,,165,1,3.2.2021,164.9838316
36,"['med', 1, 'low']",1,white,0.272081961,135,right,up,med,low,black_low_135-black_low_45-white_low_45-white_low_135,white_med_135_up,black_med_45_up,16,1.16269179,1207.287593,1207.536434,0.2488415,right,0.098868,1,16,4,1,0,1,1,TRUE,FALSE,med_1_mask_low,0.75,-1,3,FALSE,1,,,,,,,,,,,,,,,,,,,165,1,3.2.2021,164.9838316
37,"['low', 1, 'high']",1,black,0.02498677,135,left,down,low,high,black_high_45-black_high_135-white_high_135-white_high_135,black_low_135_down,white_low_45_down,10,1.632975335,1209.906454,1210.155002,0.2485473,right,0.1032329,0,10,2,0,0,1,1,TRUE,FALSE,low_1_mask_high,0.75,-1,3,FALSE,1,,,,,,,,,,,,,,,,,,,165,1,3.2.2021,164.9838316
38,"['low', 1, 'high']",1,white,0.260016898,45,left,down,low,high,black_high_45-white_high_135-black_high_135-white_high_135,white_low_45_down,black_low_135_down,13,1.55234574,1212.48896,1212.739277,0.2503169,left,0.132575,1,13,3,0,0,1,1,TRUE,FALSE,low_1_mask_high,0.75,-1,3,TRUE,2,,,,,,,,,,,,,,,,,,,165,1,3.2.2021,164.9838316
39,"['low', 3, 'low']",3,white,0.817671566,45,left,down,low,low,black_low_45-black_low_135-white_low_135-white_low_45,white_low_45_down,black_low_135_down,5,1.514079962,1215.101756,1215.350303,0.2485472,left,0.0371621,1,5,2,1,0,1,1,TRUE,FALSE,low_3_mask_low,0.75,-1,3,FALSE,1,,,,,,,,,,,,,,,,,,,165,1,3.2.2021,164.9838316
40,"['low', 1, 'low']",1,black,0.483182205,45,right,down,low,low,black_low_45-white_low_135-white_low_45-black_low_135,black_low_45_down,white_low_135_down,7,1.141029228,1217.132597,1217.381137,0.24854,right,0.1944233,1,7,1,1,0,1,1,TRUE,FALSE,low_1_mask_low,0.75,-1,3,FALSE,0,,,,,,,,,,,,,,,,,,,165,1,3.2.2021,164.9838316
41,"['high', 3, 'high']",3,black,0.339199597,45,right,up,high,high,white_high_135-white_high_135-black_high_45-black_high_135,black_high_45_up,white_high_135_up,18,1.304655222,1220.079128,1220.327663,0.2485348,left,0.273337,0,18,6,0,0,1,1,TRUE,FALSE,high_3_mask_high,0.75,-1,3,FALSE,2,,,,,,,,,,,,,,,,,,,165,1,3.2.2021,164.9838316
42,"['high', 1, 'high']",1,white,0.596285374,135,right,down,high,high,black_high_135-white_high_135-black_high_45-white_high_135,white_high_135_down,black_high_45_down,10,1.20252133,1222.443073,1222.691615,0.2485414,right,0.2691159,1,10,2,1,0,1,1,TRUE,FALSE,high_1_mask_high,0.75,-1,3,FALSE,0,,,,,,,,,,,,,,,,,,,165,1,3.2.2021,164.9838316
43,"['med', 3, 'high']",3,black,0.551346598,45,right,down,med,high,white_high_135-white_high_135-black_high_45-black_high_135,black_med_45_down,white_med_135_down,8,1.139251812,1224.934641,1225.183181,0.2485401,left,0.6418659,0,8,0,None,0,1,1,TRUE,FALSE,med_3_mask_high,0.75,-1,3,FALSE,0,,,,,,,,,,,,,,,,,,,165,1,3.2.2021,164.9838316
44,"['high', 1, 'low']",1,black,0.528324206,45,right,up,high,low,white_low_135-black_low_45-black_low_135-white_low_45,black_high_45_up,white_high_135_up,11,1.670191957,1228.147606,1228.396144,0.2485379,left,0.2370857,0,11,5,1,0,1,1,TRUE,FALSE,high_1_mask_low,0.75,-1,3,TRUE,3,,,,,,,,,,,,,,,,,,,165,1,3.2.2021,164.9838316
45,"['high', 2, 'high']",2,white,0.65478924,45,left,up,high,high,black_high_45-white_high_135-white_high_135-black_high_135,white_high_45_up,black_high_135_up,13,1.019208938,1230.499724,1230.748269,0.2485448,left,0.1322506,1,13,3,0,0,1,1,TRUE,FALSE,high_2_mask_high,0.75,-1,3,TRUE,3,,,,,,,,,,,,,,,,,,,165,1,3.2.2021,164.9838316
46,"['high', 2, 'low']",2,white,0.502205387,45,left,up,high,low,white_low_45-black_low_135-black_low_45-white_low_135,white_high_45_up,black_high_135_up,8,1.064941942,1232.663944,1232.914248,0.2503042,left,0.4153819,1,8,0,None,0,1,1,TRUE,FALSE,high_2_mask_low,0.75,-1,3,FALSE,0,,,,,,,,,,,,,,,,,,,165,1,3.2.2021,164.9838316
47,"['low', 3, 'high']",3,white,0.307326798,135,right,up,low,high,black_high_135-white_high_135-white_high_135-black_high_45,white_low_135_up,black_low_45_up,7,1.704001946,1235.830165,1236.076938,0.2467727,right,0.2477588,1,7,4,1,0,1,1,TRUE,FALSE,low_3_mask_high,0.75,-1,3,FALSE,1,,,,,,,,,,,,,,,,,,,165,1,3.2.2021,164.9838316
48,"['med', 2, 'low']",2,black,0.464404489,135,left,down,med,low,white_low_45-white_low_135-black_low_135-black_low_45,black_med_135_down,white_med_45_down,8,1.612334078,1238.659448,1238.90799,0.2485424,left,0.2133322,1,8,0,None,0,1,1,TRUE,FALSE,med_2_mask_low,0.75,-1,3,FALSE,0,,,,,,,,,,,,,,,,,,,165,1,3.2.2021,164.9838316
49,"['high', 1, 'low']",1,white,0.210343722,135,right,up,high,low,black_low_45-white_low_45-white_low_135-black_low_135,white_high_135_up,black_high_45_up,14,1.986196696,1241.793607,1242.042144,0.2485379,right,0.0713607,1,14,6,0,0,1,1,TRUE,FALSE,high_1_mask_low,0.75,-1,3,TRUE,4,,,,,,,,,,,,,,,,,,,165,1,3.2.2021,164.9838316
50,"['low', 1, 'high']",1,black,0.832438613,45,right,down,low,high,white_high_135-white_high_135-black_high_135-black_high_45,black_low_45_down,white_low_135_down,12,1.309913321,1244.091182,1244.339724,0.2485415,left,0.1926615,0,12,4,1,0,1,1,TRUE,FALSE,low_1_mask_high,0.75,-1,3,TRUE,3,,,,,,,,,,,,,,,,,,,165,1,3.2.2021,164.9838316
51,"['low', 1, 'high']",1,white,0.095267558,45,left,down,low,high,white_high_135-white_high_135-black_high_45-black_high_135,white_low_45_down,black_low_135_down,15,1.59748901,1246.831574,1247.080125,0.2485512,left,0.1891109,1,15,5,0,0,1,1,TRUE,FALSE,low_1_mask_high,0.75,-1,3,TRUE,4,,,,,,,,,,,,,,,,,,,165,1,3.2.2021,164.9838316
52,"['med', 3, 'low']",3,black,0.488334536,135,left,down,med,low,black_low_135-white_low_45-black_low_45-white_low_135,black_med_135_down,white_med_45_down,8,1.700652093,1249.801766,1250.050607,0.2488414,left,0.1675316,1,8,0,None,0,1,1,TRUE,FALSE,med_3_mask_low,0.75,-1,3,FALSE,0,,,,,,,,,,,,,,,,,,,165,1,3.2.2021,164.9838316
53,"['high', 1, 'high']",1,black,0.766731524,135,left,down,high,high,black_high_45-black_high_135-white_high_135-white_high_135,black_high_135_down,white_high_45_down,9,1.181655304,1252.020525,1252.269072,0.2485471,right,0.2116394,0,9,3,1,0,1,1,TRUE,FALSE,high_1_mask_high,0.75,-1,3,TRUE,1,,,,,,,,,,,,,,,,,,,165,1,3.2.2021,164.9838316
54,"['low', 3, 'high']",3,black,0.93394826,135,left,down,low,high,white_high_135-black_high_45-black_high_135-white_high_135,black_low_135_down,white_low_45_down,6,1.00670832,1254.251425,1254.500267,0.2488419,left,0.0675682,1,6,5,1,0,1,1,TRUE,FALSE,low_3_mask_high,0.75,-1,3,FALSE,1,,,,,,,,,,,,,,,,,,,165,1,3.2.2021,164.9838316
55,"['med', 3, 'high']",3,black,0.11579294,135,left,up,med,high,white_high_135-white_high_135-black_high_45-black_high_135,black_med_135_up,white_med_45_up,11,1.207566627,1256.719026,1256.967568,0.248542,right,0.1610975,0,11,1,0,0,1,1,TRUE,FALSE,med_3_mask_high,0.75,-1,3,FALSE,0,,,,,,,,,,,,,,,,,,,165,1,3.2.2021,164.9838316
56,"['high', 3, 'high']",3,white,0.362184703,45,left,up,high,high,black_high_45-white_high_135-white_high_135-black_high_135,white_high_45_up,black_high_135_up,21,1.081947073,1259.525806,1259.774359,0.248553,left,0.2100273,1,21,7,0,0,1,1,TRUE,FALSE,high_3_mask_high,0.75,-1,3,TRUE,3,,,,,,,,,,,,,,,,,,,165,1,3.2.2021,164.9838316
57,"['med', 1, 'low']",1,black,0.669146051,135,left,up,med,low,white_low_45-white_low_135-black_low_45-black_low_135,black_med_135_up,white_med_45_up,15,1.849069634,1262.532376,1262.780917,0.2485412,right,0.3012937,0,15,5,1,0,1,1,TRUE,FALSE,med_1_mask_low,0.75,-1,3,TRUE,2,,,,,,,,,,,,,,,,,,,165,1,3.2.2021,164.9838316
58,"['med', 1, 'low']",1,black,0.472602276,135,left,down,med,low,black_low_135-white_low_45-black_low_45-white_low_135,black_med_135_down,white_med_45_down,18,1.550222392,1265.36976,1265.618306,0.2485464,left,0.3412704,1,18,6,0,0,1,1,TRUE,FALSE,med_1_mask_low,0.75,-1,3,TRUE,3,,,,,,,,,,,,,,,,,,,165,1,3.2.2021,164.9838316
59,"['low', 1, 'high']",1,white,0.408063679,135,right,down,low,high,white_high_135-black_high_135-white_high_135-black_high_45,white_low_135_down,black_low_45_down,14,1.021180078,1267.667059,1267.915598,0.2485391,right,0.2600519,1,14,6,1,0,1,1,TRUE,FALSE,low_1_mask_high,0.75,-1,3,FALSE,4,,,,,,,,,,,,,,,,,,,165,1,3.2.2021,164.9838316
60,"['med', 3, 'low']",3,white,0.684186661,45,left,up,med,low,white_low_135-black_low_135-white_low_45-black_low_45,white_med_45_up,black_med_135_up,7,1.121375464,1270.091929,1270.340472,0.2485429,left,0.2020172,1,7,1,1,0,1,1,TRUE,FALSE,med_3_mask_low,0.75,-1,3,FALSE,0,,,,,,,,,,,,,,,,,,,165,1,3.2.2021,164.9838316
61,"['low', 2, 'high']",2,black,0.261183745,45,right,up,low,high,white_high_135-black_high_135-white_high_135-black_high_45,black_low_45_up,white_low_135_up,2,1.340988713,1272.468357,1272.716859,0.2485029,left,0.1845902,0,2,1,1,0,1,1,TRUE,FALSE,low_2_mask_high,0.75,-1,3,TRUE,1,,,,,,,,,,,,,,,,,,,165,1,3.2.2021,164.9838316
62,"['high', 3, 'low']",3,black,0.209724859,135,left,down,high,low,white_low_135-white_low_45-black_low_45-black_low_135,black_high_135_down,white_high_45_down,7,1.341830129,1275.038681,1275.287225,0.2485449,right,0.5119883,0,7,1,1,0,1,1,TRUE,FALSE,high_3_mask_low,0.75,-1,3,TRUE,1,,,,,,,,,,,,,,,,,,,165,1,3.2.2021,164.9838316
63,"['med', 3, 'high']",3,black,0.500506404,135,left,down,med,high,white_high_135-black_high_45-black_high_135-white_high_135,black_med_135_down,white_med_45_down,14,1.073429843,1277.918232,1278.167073,0.2488418,left,0.5513442,1,14,2,0,0,1,1,TRUE,FALSE,med_3_mask_high,0.75,-1,3,TRUE,1,,,,,,,,,,,,,,,,,,,165,1,3.2.2021,164.9838316
64,"['high', 1, 'high']",1,black,0.828837637,45,right,down,high,high,black_high_45-white_high_135-white_high_135-black_high_135,black_high_45_down,white_high_135_down,12,1.497967557,1280.878712,1281.125412,0.2467002,left,0.2149074,0,12,4,0,0,1,1,TRUE,FALSE,high_1_mask_high,0.75,-1,3,FALSE,1,,,,,,,,,,,,,,,,,,,165,1,3.2.2021,164.9838316
65,"['low', 1, 'high']",1,white,0.192194642,45,left,down,low,high,black_high_45-white_high_135-white_high_135-black_high_135,white_low_45_down,black_low_135_down,13,1.233518716,1283.246909,1283.497249,0.2503405,left,0.2584894,1,13,7,1,0,1,1,TRUE,FALSE,low_1_mask_high,0.75,-1,3,FALSE,4,,,,,,,,,,,,,,,,,,,165,1,3.2.2021,164.9838316
66,"['low', 1, 'high']",1,white,0.055405408,45,left,up,low,high,black_high_135-white_high_135-black_high_45-white_high_135,white_low_45_up,black_low_135_up,12,1.800647043,1286.211307,1286.459847,0.24854,left,0.1924013,1,12,8,1,0,1,1,TRUE,FALSE,low_1_mask_high,0.75,-1,3,FALSE,4,,,,,,,,,,,,,,,,,,,165,1,3.2.2021,164.9838316
67,"['low', 3, 'low']",3,white,0.65253777,45,left,down,low,low,white_low_45-black_low_135-white_low_135-black_low_45,white_low_45_down,black_low_135_down,4,1.871582803,1289.206037,1289.45488,0.2488436,left,0.1035301,1,4,3,1,0,1,1,TRUE,FALSE,low_3_mask_low,0.75,-1,3,FALSE,1,,,,,,,,,,,,,,,,,,,165,1,3.2.2021,164.9838316
68,"['high', 1, 'high']",1,black,0.576398832,45,right,down,high,high,white_high_135-black_high_45-black_high_135-white_high_135,black_high_45_down,white_high_135_down,15,1.143174765,1291.406895,1291.65544,0.2485443,left,0.2505892,0,15,5,0,0,1,1,TRUE,FALSE,high_1_mask_high,0.75,-1,3,FALSE,1,,,,,,,,,,,,,,,,,,,165,1,3.2.2021,164.9838316
69,"['low', 2, 'high']",2,white,0.162478819,135,right,down,low,high,black_high_135-white_high_135-white_high_135-black_high_45,white_low_135_down,black_low_45_down,5,1.381581766,1293.934558,1294.184883,0.2503249,right,0.1660015,1,5,2,0,0,1,1,TRUE,FALSE,low_2_mask_high,0.75,-1,3,TRUE,2,,,,,,,,,,,,,,,,,,,165,1,3.2.2021,164.9838316
70,"['low', 3, 'high']",3,black,0.814048806,135,left,down,low,high,black_high_45-white_high_135-white_high_135-black_high_135,black_low_135_down,white_low_45_down,5,1.421962706,1296.492803,1296.743092,0.250289,left,0.5033342,1,5,6,1,0,1,1,TRUE,FALSE,low_3_mask_high,0.75,-1,3,FALSE,1,,,,,,,,,,,,,,,,,,,165,1,3.2.2021,164.9838316
71,"['low', 2, 'high']",2,white,0.044690874,45,left,up,low,high,black_high_135-white_high_135-white_high_135-black_high_45,white_low_45_up,black_low_135_up,4,1.996028133,1299.869439,1300.117981,0.2485427,left,0.2616935,1,4,3,1,0,1,1,TRUE,FALSE,low_2_mask_high,0.75,-1,3,FALSE,2,,,,,,,,,,,,,,,,,,,165,1,3.2.2021,164.9838316
72,"['low', 1, 'high']",1,white,0.706810733,45,left,down,low,high,white_high_135-black_high_45-white_high_135-black_high_135,white_low_45_down,black_low_135_down,11,1.387346159,1302.415565,1302.664104,0.248539,left,0.2053373,1,11,9,1,0,1,1,TRUE,FALSE,low_1_mask_high,0.75,-1,3,FALSE,4,,,,,,,,,,,,,,,,,,,165,1,3.2.2021,164.9838316
73,"['high', 2, 'high']",2,black,0.595671602,45,right,up,high,high,black_high_135-white_high_135-black_high_45-white_high_135,black_high_45_up,white_high_135_up,12,1.849754235,1305.530071,1305.778626,0.2485548,left,0.2256101,0,12,4,1,0,1,1,TRUE,FALSE,high_2_mask_high,0.75,-1,3,TRUE,4,,,,,,,,,,,,,,,,,,,165,1,3.2.2021,164.9838316
74,"['low', 1, 'high']",1,white,0.349460075,135,right,up,low,high,black_high_135-black_high_45-white_high_135-white_high_135,white_low_135_up,black_low_45_up,10,1.275356725,1307.920052,1308.168589,0.2485376,right,0.1328621,1,10,10,1,0,1,1,TRUE,FALSE,low_1_mask_high,0.75,-1,3,FALSE,4,,,,,,,,,,,,,,,,,,,165,1,3.2.2021,164.9838316
75,"['low', 1, 'low']",1,black,0.167418509,45,right,down,low,low,white_low_45-black_low_45-black_low_135-white_low_135,black_low_45_down,white_low_135_down,6,1.678116625,1310.570979,1310.817748,0.2467688,left,0.1228679,0,6,2,1,0,1,1,TRUE,FALSE,low_1_mask_low,0.75,-1,3,TRUE,1,,,,,,,,,,,,,,,,,,,165,1,3.2.2021,164.9838316
76,"['med', 3, 'low']",3,black,0.061833052,45,right,up,med,low,black_low_135-white_low_135-black_low_45-white_low_45,black_med_45_up,white_med_135_up,6,1.112629852,1312.813987,1313.060761,0.2467746,left,0.2314188,0,6,2,1,0,1,1,TRUE,FALSE,med_3_mask_low,0.75,-1,3,TRUE,1,,,,,,,,,,,,,,,,,,,165,1,3.2.2021,164.9838316
77,"['high', 2, 'low']",2,white,0.875112889,135,right,up,high,low,white_low_45-white_low_135-black_low_135-black_low_45,white_high_135_up,black_high_45_up,7,1.7429807,1315.734213,1315.982747,0.2485338,right,0.1794305,1,7,1,1,0,1,1,TRUE,FALSE,high_2_mask_low,0.75,-1,3,FALSE,0,,,,,,,,,,,,,,,,,,,165,1,3.2.2021,164.9838316
78,"['high', 2, 'high']",2,black,0.566402743,45,right,down,high,high,white_high_135-white_high_135-black_high_45-black_high_135,black_high_45_down,white_high_135_down,15,1.408004464,1318.462198,1318.712495,0.2502974,left,0.2799436,0,15,5,0,0,1,1,TRUE,FALSE,high_2_mask_high,0.75,-1,3,FALSE,4,,,,,,,,,,,,,,,,,,,165,1,3.2.2021,164.9838316
79,"['low', 3, 'high']",3,white,0.013935684,135,right,down,low,high,white_high_135-black_high_45-black_high_135-white_high_135,white_low_135_down,black_low_45_down,4,1.96004419,1321.638782,1321.887331,0.2485496,left,0.212294,0,4,7,1,0,1,1,TRUE,FALSE,low_3_mask_high,0.75,-1,3,TRUE,2,,,,,,,,,,,,,,,,,,,165,1,3.2.2021,164.9838316
80,"['high', 2, 'low']",2,black,0.276357609,135,left,up,high,low,black_low_135-white_low_135-black_low_45-white_low_45,black_high_135_up,white_high_45_up,6,1.211427405,1323.984855,1324.233702,0.2488467,left,0.2417398,1,6,2,1,0,1,1,TRUE,FALSE,high_2_mask_low,0.75,-1,3,FALSE,0,,,,,,,,,,,,,,,,,,,165,1,3.2.2021,164.9838316
81,"['low', 2, 'high']",2,black,0.649260572,45,right,down,low,high,black_high_135-white_high_135-white_high_135-black_high_45,black_low_45_down,white_low_135_down,3,1.85947605,1326.939258,1327.185965,0.2467073,right,0.2290581,1,3,4,1,0,1,1,TRUE,FALSE,low_2_mask_high,0.75,-1,3,FALSE,2,,,,,,,,,,,,,,,,,,,165,1,3.2.2021,164.9838316
82,"['low', 2, 'low']",2,black,0.029260033,45,right,up,low,low,black_low_45-black_low_135-white_low_135-white_low_45,black_low_45_up,white_low_135_up,3,1.758275699,1329.780324,1330.030612,0.2502875,left,0.245721,0,3,0,None,0,1,1,TRUE,FALSE,low_2_mask_low,0.75,-1,3,FALSE,0,,,,,,,,,,,,,,,,,,,165,1,3.2.2021,164.9838316
83,"['med', 1, 'high']",1,black,0.897341934,45,right,up,med,high,black_high_45-white_high_135-black_high_135-white_high_135,black_med_45_up,white_med_135_up,12,1.828779707,1332.768976,1333.017514,0.2485379,left,0.2982904,0,12,4,1,0,1,1,TRUE,FALSE,med_1_mask_high,0.75,-1,3,TRUE,2,,,,,,,,,,,,,,,,,,,165,1,3.2.2021,164.9838316
84,"['med', 2, 'high']",2,white,0.084223922,135,right,down,med,high,white_high_135-white_high_135-black_high_45-black_high_135,white_med_135_down,black_med_45_down,7,1.960696049,1335.975873,1336.224722,0.2488487,left,0.60181,0,7,1,1,0,1,1,TRUE,FALSE,med_2_mask_high,0.75,-1,3,TRUE,1,,,,,,,,,,,,,,,,,,,165,1,3.2.2021,164.9838316
85,"['low', 1, 'low']",1,black,0.614037704,135,left,up,low,low,white_low_135-black_low_45-white_low_45-black_low_135,black_low_135_up,white_low_45_up,9,1.513136967,1338.964542,1339.214863,0.2503204,right,0.2452458,0,9,3,0,0,1,1,TRUE,FALSE,low_1_mask_low,0.75,-1,3,FALSE,1,,,,,,,,,,,,,,,,,,,165,1,3.2.2021,164.9838316
86,"['high', 1, 'high']",1,black,0.140096948,135,left,down,high,high,black_high_135-black_high_45-white_high_135-white_high_135,black_high_135_down,white_high_45_down,18,1.106817435,1341.300246,1341.547021,0.2467756,right,0.5247612,0,18,6,0,0,1,1,TRUE,FALSE,high_1_mask_high,0.75,-1,3,FALSE,1,,,,,,,,,,,,,,,,,,,165,1,3.2.2021,164.9838316
87,"['high', 3, 'high']",3,white,0.267808739,135,right,down,high,high,white_high_135-black_high_135-black_high_45-white_high_135,white_high_135_down,black_high_45_down,20,1.597076229,1344.935787,1345.184332,0.248545,right,0.2418577,1,20,8,1,0,1,1,TRUE,FALSE,high_3_mask_high,0.75,-1,3,FALSE,3,,,,,,,,,,,,,,,,,,,165,1,3.2.2021,164.9838316
88,"['med', 2, 'low']",2,white,0.667947946,45,left,up,med,low,black_low_45-white_low_135-white_low_45-black_low_135,white_med_45_up,black_med_135_up,7,1.376383118,1347.506185,1347.756469,0.2502843,left,0.1961655,1,7,1,1,0,1,1,TRUE,FALSE,med_2_mask_low,0.75,-1,3,FALSE,0,,,,,,,,,,,,,,,,,,,165,1,3.2.2021,164.9838316
89,"['med', 2, 'high']",2,black,0.169904742,135,left,down,med,high,black_high_45-white_high_135-white_high_135-black_high_135,black_med_135_down,white_med_45_down,10,1.913695084,1350.636028,1350.882802,0.2467745,right,0.1676948,0,10,2,0,0,1,1,TRUE,FALSE,med_2_mask_high,0.75,-1,3,FALSE,1,,,,,,,,,,,,,,,,,,,165,1,3.2.2021,164.9838316
90,"['low', 3, 'high']",3,white,0.997275743,45,left,down,low,high,black_high_135-black_high_45-white_high_135-white_high_135,white_low_45_down,black_low_135_down,7,1.993741327,1353.841155,1354.089704,0.2485486,left,0.1545793,1,7,8,0,0,1,1,TRUE,FALSE,low_3_mask_high,0.75,-1,3,TRUE,3,,,,,,,,,,,,,,,,,,,165,1,3.2.2021,164.9838316
91,"['low', 2, 'low']",2,black,0.461787239,45,right,up,low,low,black_low_45-white_low_45-black_low_135-white_low_135,black_low_45_up,white_low_135_up,6,1.43767453,1356.356986,1356.60729,0.2503043,right,0.3167321,1,6,1,0,0,1,1,TRUE,FALSE,low_2_mask_low,0.75,-1,3,TRUE,1,,,,,,,,,,,,,,,,,,,165,1,3.2.2021,164.9838316
92,"['high', 1, 'low']",1,black,0.448363179,45,right,up,high,low,black_low_45-white_low_45-white_low_135-black_low_135,black_high_45_up,white_high_135_up,13,1.694502294,1359.297142,1359.54569,0.2485486,left,0.3800723,0,13,7,1,0,1,1,TRUE,FALSE,high_1_mask_low,0.75,-1,3,TRUE,5,,,,,,,,,,,,,,,,,,,165,1,3.2.2021,164.9838316
93,"['med', 2, 'low']",2,white,0.283208704,135,right,down,med,low,white_low_135-black_low_135-white_low_45-black_low_45,white_med_135_down,black_med_45_down,6,1.86329443,1362.461609,1362.710153,0.2485436,right,0.217514,1,6,2,1,0,1,1,TRUE,FALSE,med_2_mask_low,0.75,-1,3,FALSE,0,,,,,,,,,,,,,,,,,,,165,1,3.2.2021,164.9838316
94,"['high', 2, 'high']",2,white,0.620067714,135,right,down,high,high,white_high_135-white_high_135-black_high_45-black_high_135,white_high_135_down,black_high_45_down,18,1.777874825,1365.668506,1365.917052,0.2485459,right,0.2124974,1,18,6,0,0,1,1,TRUE,FALSE,high_2_mask_high,0.75,-1,3,TRUE,5,,,,,,,,,,,,,,,,,,,165,1,3.2.2021,164.9838316
95,"['med', 3, 'low']",3,black,0.031451756,45,right,up,med,low,black_low_135-white_low_45-white_low_135-black_low_45,black_med_45_up,white_med_135_up,9,1.640006639,1368.63929,1368.887831,0.2485416,left,0.2154133,0,9,3,0,0,1,1,TRUE,FALSE,med_3_mask_low,0.75,-1,3,FALSE,1,,,,,,,,,,,,,,,,,,,165,1,3.2.2021,164.9838316
96,"['high', 2, 'low']",2,black,0.633289591,45,right,up,high,low,black_low_45-black_low_135-white_low_45-white_low_135,black_high_45_up,white_high_135_up,5,1.724628936,1371.477872,1371.72463,0.246758,right,0.2402197,1,5,3,1,0,1,1,TRUE,FALSE,high_2_mask_low,0.75,-1,3,FALSE,0,,,,,,,,,,,,,,,,,,,165,1,3.2.2021,164.9838316
97,"['high', 2, 'low']",2,black,0.033880549,45,right,up,high,low,white_low_135-black_low_135-white_low_45-black_low_45,black_high_45_up,white_high_135_up,4,1.592121784,1374.179836,1374.428382,0.2485464,left,0.2163698,0,4,4,1,0,1,1,TRUE,FALSE,high_2_mask_low,0.75,-1,3,TRUE,1,,,,,,,,,,,,,,,,,,,165,1,3.2.2021,164.9838316
98,"['low', 2, 'low']",2,white,0.9375771,135,right,down,low,low,black_low_135-white_low_135-white_low_45-black_low_45,white_low_135_down,black_low_45_down,5,1.17550727,1376.465281,1376.713825,0.2485436,right,0.1755001,1,5,2,1,0,1,1,TRUE,FALSE,low_2_mask_low,0.75,-1,3,FALSE,1,,,,,,,,,,,,,,,,,,,165,1,3.2.2021,164.9838316
99,"['low', 1, 'low']",1,black,0.485945082,135,left,up,low,low,white_low_45-white_low_135-black_low_45-black_low_135,black_low_135_up,white_low_45_up,12,1.12503582,1378.671918,1378.920465,0.2485472,right,0.1865335,0,12,4,0,0,1,1,TRUE,FALSE,low_1_mask_low,0.75,-1,3,FALSE,1,,,,,,,,,,,,,,,,,,,165,1,3.2.2021,164.9838316
100,"['med', 1, 'low']",1,black,0.883433589,45,right,down,med,low,white_low_45-black_low_45-black_low_135-white_low_135,black_med_45_down,white_med_135_down,17,1.399257284,1381.22411,1381.472655,0.2485455,left,0.1997833,0,17,7,1,0,1,1,TRUE,FALSE,med_1_mask_low,0.75,-1,3,TRUE,4,,,,,,,,,,,,,,,,,,,165,1,3.2.2021,164.9838316
101,"['high', 3, 'low']",3,white,0.966130644,135,right,down,high,low,white_low_45-black_low_45-white_low_135-black_low_135,white_high_135_down,black_high_45_down,10,1.537408843,1384.121818,1384.370366,0.2485484,right,0.8471544,1,10,2,0,0,1,1,TRUE,FALSE,high_3_mask_low,0.75,-1,3,TRUE,2,,,,,,,,,,,,,,,,,,,165,1,3.2.2021,164.9838316
102,"['low', 1, 'low']",1,black,0.602805736,45,right,up,low,low,black_low_45-white_low_45-white_low_135-black_low_135,black_low_45_up,white_low_135_up,15,1.27462703,1387.189312,1387.439602,0.25029,left,0.664761,0,15,5,0,0,1,1,TRUE,FALSE,low_1_mask_low,0.75,-1,3,FALSE,1,,,,,,,,,,,,,,,,,,,165,1,3.2.2021,164.9838316
103,"['med', 1, 'low']",1,white,0.548348753,45,left,down,med,low,white_low_135-black_low_45-black_low_135-white_low_45,white_med_45_down,black_med_135_down,20,1.256175228,1390.123416,1390.373709,0.2502933,right,1.0858464,0,20,8,0,0,1,1,TRUE,FALSE,med_1_mask_low,0.75,-1,3,FALSE,4,,,,,,,,,,,,,,,,,,,165,1,3.2.2021,164.9838316
104,"['high', 3, 'low']",3,white,0.663653877,135,right,down,high,low,black_low_135-white_low_135-white_low_45-black_low_45,white_high_135_down,black_high_45_down,9,1.935272831,1394.264181,1394.51273,0.2485491,right,0.3128275,1,9,3,1,0,1,1,TRUE,FALSE,high_3_mask_low,0.75,-1,3,FALSE,2,,,,,,,,,,,,,,,,,,,165,1,3.2.2021,164.9838316
105,"['high', 3, 'high']",3,white,0.314195156,45,left,down,high,high,black_high_135-white_high_135-white_high_135-black_high_45,white_high_45_down,black_high_135_down,19,1.189065853,1397.246485,1397.495027,0.2485423,left,0.5578377,1,19,9,1,0,1,1,TRUE,FALSE,high_3_mask_high,0.75,-1,3,FALSE,3,,,,,,,,,,,,,,,,,,,165,1,3.2.2021,164.9838316
106,"['low', 1, 'high']",1,white,0.806385141,135,right,down,low,high,black_high_45-white_high_135-black_high_135-white_high_135,white_low_135_down,black_low_45_down,9,1.843825236,1400.526145,1400.774989,0.2488441,right,0.1053423,1,9,11,1,0,1,1,TRUE,FALSE,low_1_mask_high,0.75,-1,3,FALSE,4,,,,,,,,,,,,,,,,,,,165,1,3.2.2021,164.9838316
107,"['low', 1, 'low']",1,white,0.287254382,45,left,down,low,low,white_low_45-black_low_135-white_low_135-black_low_45,white_low_45_down,black_low_135_down,18,1.832476782,1403.448115,1403.696664,0.2485487,left,0.211981,1,18,6,0,0,1,1,TRUE,FALSE,low_1_mask_low,0.75,-1,3,TRUE,2,,,,,,,,,,,,,,,,,,,165,1,3.2.2021,164.9838316
108,"['med', 3, 'low']",3,white,0.725729501,45,left,up,med,low,white_low_45-white_low_135-black_low_135-black_low_45,white_med_45_up,black_med_135_up,12,1.802082742,1406.685324,1406.933872,0.2485477,left,0.549242,1,12,4,0,0,1,1,TRUE,FALSE,med_3_mask_low,0.75,-1,3,TRUE,2,,,,,,,,,,,,,,,,,,,165,1,3.2.2021,164.9838316
109,"['low', 2, 'high']",2,black,0.003857958,135,left,down,low,high,black_high_45-white_high_135-white_high_135-black_high_135,black_low_135_down,white_low_45_down,2,1.385274974,1409.445734,1409.692442,0.2467078,right,0.2809938,0,2,5,1,0,1,1,TRUE,FALSE,low_2_mask_high,0.75,-1,3,TRUE,3,,,,,,,,,,,,,,,,,,,165,1,3.2.2021,164.9838316
110,"['med', 3, 'low']",3,black,0.353906629,45,right,up,med,low,black_low_45-black_low_135-white_low_45-white_low_135,black_med_45_up,white_med_135_up,11,1.355967674,1412.268618,1412.517158,0.2485403,right,0.6783666,1,11,5,1,0,1,1,TRUE,FALSE,med_3_mask_low,0.75,-1,3,FALSE,2,,,,,,,,,,,,,,,,,,,165,1,3.2.2021,164.9838316
111,"['high', 1, 'high']",1,black,0.475672571,135,left,down,high,high,white_high_135-black_high_135-white_high_135-black_high_45,black_high_135_down,white_high_45_down,21,1.610291046,1415.580335,1415.827108,0.2467728,left,0.3973547,1,21,7,0,0,1,1,TRUE,FALSE,high_1_mask_high,0.75,-1,3,TRUE,2,,,,,,,,,,,,,,,,,,,165,1,3.2.2021,164.9838316
112,"['low', 3, 'low']",3,black,0.691693692,135,left,up,low,low,white_low_45-white_low_135-black_low_45-black_low_135,black_low_135_up,white_low_45_up,3,1.334980117,1418.203497,1418.452045,0.2485483,left,0.2568514,1,3,4,1,0,1,1,TRUE,FALSE,low_3_mask_low,0.75,-1,3,FALSE,1,,,,,,,,,,,,,,,,,,,165,1,3.2.2021,164.9838316
113,"['med', 1, 'low']",1,black,0.141703484,135,left,down,med,low,black_low_45-white_low_135-black_low_135-white_low_45,black_med_135_down,white_med_45_down,23,1.055042114,1420.555629,1420.80417,0.248541,left,0.4040878,1,23,9,0,0,1,1,TRUE,FALSE,med_1_mask_low,0.75,-1,3,TRUE,5,,,,,,,,,,,,,,,,,,,165,1,3.2.2021,164.9838316
114,"['low', 3, 'low']",3,white,0.438087985,135,right,up,low,low,black_low_135-black_low_45-white_low_45-white_low_135,white_low_135_up,black_low_45_up,2,1.01184156,1422.828956,1423.0775,0.2485432,right,0.3450225,1,2,5,1,0,1,1,TRUE,FALSE,low_3_mask_low,0.75,-1,3,FALSE,1,,,,,,,,,,,,,,,,,,,165,1,3.2.2021,164.9838316
115,"['med', 1, 'high']",1,black,0.503935931,45,right,down,med,high,black_high_135-white_high_135-black_high_45-white_high_135,black_med_45_down,white_med_135_down,15,1.599202532,1425.720618,1425.969174,0.2485562,left,0.0843681,0,15,5,0,0,1,1,TRUE,FALSE,med_1_mask_high,0.75,-1,3,FALSE,2,,,,,,,,,,,,,,,,,,,165,1,3.2.2021,164.9838316
116,"['high', 1, 'high']",1,white,0.216546168,135,right,down,high,high,white_high_135-white_high_135-black_high_45-black_high_135,white_high_135_down,black_high_45_down,20,1.57609528,1428.396029,1428.641147,0.2451187,right,0.160226,1,20,8,1,0,1,1,TRUE,FALSE,high_1_mask_high,0.75,-1,3,FALSE,2,,,,,,,,,,,,,,,,,,,165,1,3.2.2021,164.9838316
117,"['high', 3, 'low']",3,white,0.37163538,45,left,up,high,low,black_low_45-black_low_135-white_low_135-white_low_45,white_high_45_up,black_high_135_up,8,1.397145706,1431.031433,1431.279979,0.2485461,left,0.2085431,1,8,4,1,0,1,1,TRUE,FALSE,high_3_mask_low,0.75,-1,3,FALSE,2,,,,,,,,,,,,,,,,,,,165,1,3.2.2021,164.9838316
118,"['high', 2, 'low']",2,black,0.033110242,45,right,up,high,low,black_low_45-white_low_45-white_low_135-black_low_135,black_high_45_up,white_high_135_up,7,1.428809156,1433.615432,1433.863922,0.2484907,right,0.3278678,1,7,5,0,0,1,1,TRUE,FALSE,high_2_mask_low,0.75,-1,3,TRUE,2,,,,,,,,,,,,,,,,,,,165,1,3.2.2021,164.9838316
119,"['high', 1, 'high']",1,black,0.403916696,135,left,down,high,high,black_high_135-white_high_135-black_high_45-white_high_135,black_high_135_down,white_high_45_down,19,1.494737865,1436.432521,1436.681068,0.2485472,right,0.160374,0,19,9,1,0,1,1,TRUE,FALSE,high_1_mask_high,0.75,-1,3,TRUE,3,,,,,,,,,,,,,,,,,,,165,1,3.2.2021,164.9838316
120,"['high', 2, 'high']",2,white,0.916491804,45,left,down,high,high,white_high_135-white_high_135-black_high_135-black_high_45,white_high_45_down,black_high_135_down,17,1.304981695,1439.088072,1439.336615,0.2485426,left,0.2885536,1,17,7,1,1,1,1,TRUE,FALSE,high_2_mask_high,0.75,-1,3,FALSE,5,,,,,,,,,,,,,,,,,,,165,1,3.2.2021,164.9838316
121,"['high', 1, 'high']",1,black,0.03020281,135,left,up,high,high,white_high_135-black_high_45-white_high_135-black_high_135,black_high_135_up,white_high_45_up,22,1.184005804,1441.591735,1441.840283,0.2485487,left,0.3917269,1,22,10,0,0,1,1,TRUE,FALSE,high_1_mask_high,0.75,-1,3,TRUE,4,,,,,,,,,,,,,,,,,,,165,1,3.2.2021,164.9838316
122,"['low', 3, 'low']",3,black,0.259951612,45,right,up,low,low,black_low_135-white_low_135-white_low_45-black_low_45,black_low_45_up,white_low_135_up,1,1.060184804,1443.864781,1444.113325,0.2485445,right,0.1532383,1,1,6,1,0,1,1,TRUE,FALSE,low_3_mask_low,0.75,-1,3,FALSE,1,,,,,,,,,,,,,,,,,,,165,1,3.2.2021,164.9838316
123,"['high', 2, 'high']",2,black,0.348259619,135,left,up,high,high,black_high_135-black_high_45-white_high_135-white_high_135,black_high_135_up,white_high_45_up,16,1.300061351,1446.483636,1446.73381,0.2501735,right,0.3100464,0,16,8,1,1,1,1,TRUE,FALSE,high_2_mask_high,0.75,-1,3,TRUE,6,,,,,,,,,,,,,,,,,,,165,1,3.2.2021,164.9838316
124,"['med', 3, 'high']",3,white,0.223685458,135,right,up,med,high,white_high_135-black_high_45-white_high_135-black_high_135,white_med_135_up,black_med_45_up,13,1.769042393,1449.823903,1450.072453,0.2485507,right,0.3817108,1,13,3,1,0,1,1,TRUE,FALSE,med_3_mask_high,0.75,-1,3,FALSE,1,,,,,,,,,,,,,,,,,,,165,1,3.2.2021,164.9838316
125,"['high', 3, 'low']",3,black,0.477193722,135,left,up,high,low,black_low_135-white_low_135-white_low_45-black_low_45,black_high_135_up,white_high_45_up,7,1.930640338,1453.182366,1453.430907,0.2485407,right,0.1808296,0,7,5,1,0,1,1,TRUE,FALSE,high_3_mask_low,0.75,-1,3,TRUE,3,,,,,,,,,,,,,,,,,,,165,1,3.2.2021,164.9838316
126,"['med', 2, 'low']",2,white,0.306972227,135,right,up,med,low,black_low_135-black_low_45-white_low_45-white_low_135,white_med_135_up,black_med_45_up,5,1.238095972,1455.492063,1455.740609,0.2485456,right,0.4071864,1,5,3,1,0,1,1,TRUE,FALSE,med_2_mask_low,0.75,-1,3,FALSE,0,,,,,,,,,,,,,,,,,,,165,1,3.2.2021,164.9838316
127,"['low', 2, 'high']",2,black,0.902295417,135,left,down,low,high,black_high_135-white_high_135-white_high_135-black_high_45,black_low_135_down,white_low_45_down,5,1.617235234,1458.41404,1458.662588,0.2485482,left,0.195779,1,5,6,0,0,1,1,TRUE,FALSE,low_2_mask_high,0.75,-1,3,TRUE,4,,,,,,,,,,,,,,,,,,,165,1,3.2.2021,164.9838316
128,"['low', 3, 'high']",3,white,0.219778775,135,right,down,low,high,black_high_45-white_high_135-black_high_135-white_high_135,white_low_135_down,black_low_45_down,6,1.079764467,1460.698043,1460.946586,0.2485435,right,0.1579204,1,6,9,1,0,1,1,TRUE,FALSE,low_3_mask_high,0.75,-1,3,FALSE,3,,,,,,,,,,,,,,,,,,,165,1,3.2.2021,164.9838316
129,"['high', 3, 'high']",3,black,0.529431468,45,right,up,high,high,black_high_135-white_high_135-white_high_135-black_high_45,black_high_45_up,white_high_135_up,18,1.821850298,1464.118584,1464.367447,0.2488634,right,0.4689982,1,18,10,1,0,1,1,TRUE,FALSE,high_3_mask_high,0.75,-1,3,FALSE,3,,,,,,,,,,,,,,,,,,,165,1,3.2.2021,164.9838316
130,"['high', 2, 'low']",2,white,0.942183336,45,left,down,high,low,white_low_135-white_low_45-black_low_45-black_low_135,white_high_45_down,black_high_135_down,6,1.977628014,1467.497355,1467.744041,0.246686,right,0.3018968,0,6,6,1,0,1,1,TRUE,FALSE,high_2_mask_low,0.75,-1,3,TRUE,3,,,,,,,,,,,,,,,,,,,165,1,3.2.2021,164.9838316
131,"['low', 2, 'high']",2,white,0.014710731,135,right,up,low,high,black_high_135-black_high_45-white_high_135-white_high_135,white_low_135_up,black_low_45_up,4,1.28656394,1469.96253,1470.211079,0.248549,left,0.2340181,0,4,7,1,0,1,1,TRUE,FALSE,low_2_mask_high,0.75,-1,3,TRUE,5,,,,,,,,,,,,,,,,,,,165,1,3.2.2021,164.9838316
132,"['med', 3, 'high']",3,white,0.543746775,45,left,up,med,high,black_high_45-white_high_135-black_high_135-white_high_135,white_med_45_up,black_med_135_up,12,1.539905472,1472.969379,1473.219677,0.2502977,right,0.3458907,0,12,4,1,0,1,1,TRUE,FALSE,med_3_mask_high,0.75,-1,3,TRUE,2,,,,,,,,,,,,,,,,,,,165,1,3.2.2021,164.9838316
133,"['high', 2, 'high']",2,black,0.234097256,45,right,down,high,high,black_high_135-black_high_45-white_high_135-white_high_135,black_high_45_down,white_high_135_down,19,1.222269929,1475.77619,1476.026474,0.2502836,left,0.4135931,0,19,9,0,1,1,1,TRUE,FALSE,high_2_mask_high,0.75,-1,3,FALSE,6,,,,,,,,,,,,,,,,,,,165,1,3.2.2021,164.9838316
134,"['low', 2, 'low']",2,white,0.397867378,135,right,down,low,low,black_low_45-white_low_45-black_low_135-white_low_135,white_low_135_down,black_low_45_down,4,1.096016871,1478.158614,1478.407169,0.2485552,left,0.3050242,0,4,3,1,0,1,1,TRUE,FALSE,low_2_mask_low,0.75,-1,3,TRUE,2,,,,,,,,,,,,,,,,,,,165,1,3.2.2021,164.9838316
135,"['low', 2, 'low']",2,black,0.67206923,135,left,up,low,low,black_low_45-black_low_135-white_low_45-white_low_135,black_low_135_up,white_low_45_up,7,1.762537192,1481.177591,1481.426156,0.2485646,right,0.1960842,0,7,4,0,0,1,1,TRUE,FALSE,low_2_mask_low,0.75,-1,3,FALSE,2,,,,,,,,,,,,,,,,,,,165,1,3.2.2021,164.9838316
136,"['med', 3, 'high']",3,white,0.709766032,45,left,down,med,high,white_high_135-black_high_45-black_high_135-white_high_135,white_med_45_down,black_med_135_down,15,1.032168831,1483.741904,1483.992562,0.250658,right,0.3752509,0,15,5,0,0,1,1,TRUE,FALSE,med_3_mask_high,0.75,-1,3,FALSE,2,,,,,,,,,,,,,,,,,,,165,1,3.2.2021,164.9838316
137,"['med', 3, 'high']",3,white,0.227312111,135,right,down,med,high,black_high_135-white_high_135-black_high_45-white_high_135,white_med_135_down,black_med_45_down,18,1.405724359,1486.966987,1487.215829,0.2488418,right,0.3038409,1,18,6,0,0,1,1,TRUE,FALSE,med_3_mask_high,0.75,-1,3,TRUE,3,,,,,,,,,,,,,,,,,,,165,1,3.2.2021,164.9838316
138,"['med', 1, 'low']",1,white,0.572355621,45,left,up,med,low,black_low_45-black_low_135-white_low_135-white_low_45,white_med_45_up,black_med_135_up,22,1.562147925,1489.87107,1490.119621,0.2485514,right,0.5117175,0,22,10,1,1,1,1,TRUE,FALSE,med_1_mask_low,0.75,-1,3,TRUE,6,,,,,,,,,,,,,,,,,,,165,1,3.2.2021,164.9838316
139,"['low', 2, 'high']",2,black,0.204462463,45,right,up,low,high,black_high_45-white_high_135-black_high_135-white_high_135,black_low_45_up,white_low_135_up,7,1.020582117,1492.350232,1492.599056,0.2488237,right,0.145233,1,7,8,0,1,1,1,TRUE,FALSE,low_2_mask_high,0.75,-1,3,TRUE,6,,,,,,,,,,,,,,,,,,,165,1,3.2.2021,164.9838316
140,"['high', 2, 'high']",2,white,0.246783906,135,right,up,high,high,white_high_135-black_high_45-white_high_135-black_high_135,white_high_135_up,black_high_45_up,22,1.984766255,1495.787782,1496.036326,0.2485444,left,0.3684619,0,22,10,0,1,1,1,TRUE,FALSE,high_2_mask_high,0.75,-1,3,FALSE,6,,,,,,,,,,,,,,,,,,,165,1,3.2.2021,164.9838316
141,"['med', 3, 'low']",3,white,0.281486716,45,left,up,med,low,black_low_45-black_low_135-white_low_45-white_low_135,white_med_45_up,black_med_135_up,10,1.177313708,1498.485451,1498.733697,0.2482456,right,0.4160171,0,10,6,1,0,1,1,TRUE,FALSE,med_3_mask_low,0.75,-1,3,TRUE,3,,,,,,,,,,,,,,,,,,,165,1,3.2.2021,164.9838316
142,"['low', 1, 'low']",1,black,0.883247087,135,left,down,low,low,black_low_45-white_low_135-black_low_135-white_low_45,black_low_135_down,white_low_45_down,17,1.979549219,1501.849676,1502.098221,0.2485455,left,0.4472227,1,17,7,1,0,1,1,TRUE,FALSE,low_1_mask_low,0.75,-1,3,FALSE,2,,,,,,,,,,,,,,,,,,,165,1,3.2.2021,164.9838316
143,"['low', 2, 'low']",2,black,0.71682189,135,left,down,low,low,white_low_135-black_low_45-white_low_45-black_low_135,black_low_135_down,white_low_45_down,10,1.133846236,1504.456415,1504.70496,0.2485452,left,0.2032451,1,10,5,0,0,1,1,TRUE,FALSE,low_2_mask_low,0.75,-1,3,TRUE,3,,,,,,,,,,,,,,,,,,,165,1,3.2.2021,164.9838316
144,"['high', 3, 'low']",3,white,0.648683208,45,left,up,high,low,white_low_45-black_low_135-black_low_45-white_low_135,white_high_45_up,black_high_135_up,10,1.579282344,1507.396588,1507.645142,0.2485541,left,0.2303983,1,10,6,0,0,1,1,TRUE,FALSE,high_3_mask_low,0.75,-1,3,TRUE,4,,,,,,,,,,,,,,,,,,,165,1,3.2.2021,164.9838316
145,"['low', 1, 'low']",1,black,0.348848685,45,right,up,low,low,black_low_45-white_low_135-white_low_45-black_low_135,black_low_45_up,white_low_135_up,16,1.831115124,1510.423393,1510.670161,0.2467684,left,0.2948122,0,16,8,1,0,1,1,TRUE,FALSE,low_1_mask_low,0.75,-1,3,TRUE,3,,,,,,,,,,,,,,,,,,,165,1,3.2.2021,164.9838316
146,"['med', 3, 'low']",3,white,0.136974512,135,right,down,med,low,black_low_45-black_low_135-white_low_135-white_low_45,white_med_135_down,black_med_45_down,13,1.190098973,1513.16779,1513.416332,0.2485417,right,0.1612168,1,13,7,0,0,1,1,TRUE,FALSE,med_3_mask_low,0.75,-1,3,TRUE,4,,,,,,,,,,,,,,,,,,,165,1,3.2.2021,164.9838316
147,"['low', 1, 'low']",1,white,0.805857046,135,right,down,low,low,white_low_135-black_low_45-white_low_45-black_low_135,white_low_135_down,black_low_45_down,19,1.153121218,1515.4775,1515.726045,0.2485458,right,0.9036635,1,19,9,0,0,1,1,TRUE,FALSE,low_1_mask_low,0.75,-1,3,TRUE,4,,,,,,,,,,,,,,,,,,,165,1,3.2.2021,164.9838316
148,"['med', 2, 'high']",2,black,0.806141228,135,left,down,med,high,white_high_135-black_high_135-white_high_135-black_high_45,black_med_135_down,white_med_45_down,13,1.671475668,1519.152974,1519.399727,0.2467526,right,0.1079154,0,13,3,0,0,1,1,TRUE,FALSE,med_2_mask_high,0.75,-1,3,FALSE,1,,,,,,,,,,,,,,,,,,,165,1,3.2.2021,164.9838316
149,"['med', 3, 'high']",3,white,0.41297428,45,left,down,med,high,black_high_135-black_high_45-white_high_135-white_high_135,white_med_45_down,black_med_135_down,17,1.151514603,1521.818834,1522.067389,0.248555,left,1.099842,1,17,7,1,0,1,1,TRUE,FALSE,med_3_mask_high,0.75,-1,3,FALSE,3,,,,,,,,,,,,,,,,,,,165,1,3.2.2021,164.9838316
150,"['med', 2, 'high']",2,black,0.878469591,45,right,up,med,high,black_high_45-white_high_135-white_high_135-black_high_135,black_med_45_up,white_med_135_up,16,1.356127126,1525.436231,1525.684781,0.2485498,left,0.2807257,0,16,4,0,0,1,1,TRUE,FALSE,med_2_mask_high,0.75,-1,3,FALSE,1,,,,,,,,,,,,,,,,,,,165,1,3.2.2021,164.9838316
151,"['high', 1, 'high']",1,white,0.613428049,135,right,up,high,high,white_high_135-white_high_135-black_high_135-black_high_45,white_high_135_up,black_high_45_up,21,1.751230179,1528.486981,1528.735525,0.2485447,left,0.5006229,0,21,11,1,0,1,1,TRUE,FALSE,high_1_mask_high,0.75,-1,3,TRUE,5,,,,,,,,,,,,,,,,,,,165,1,3.2.2021,164.9838316
152,"['med', 2, 'high']",2,black,0.690896287,45,right,up,med,high,white_high_135-black_high_135-white_high_135-black_high_45,black_med_45_up,white_med_135_up,19,1.414387228,1531.643914,1531.892465,0.2485512,left,0.1453167,0,19,5,0,0,1,1,TRUE,FALSE,med_2_mask_high,0.75,-1,3,FALSE,1,,,,,,,,,,,,,,,,,,,165,1,3.2.2021,164.9838316
153,"['high', 1, 'high']",1,black,0.224748287,135,left,down,high,high,white_high_135-black_high_135-white_high_135-black_high_45,black_high_135_down,white_high_45_down,24,1.330960828,1534.173319,1534.421864,0.248545,left,0.2988985,1,24,12,0,1,1,1,TRUE,FALSE,high_1_mask_high,0.75,-1,3,TRUE,6,,,,,,,,,,,,,,,,,,,165,1,3.2.2021,164.9838316
154,"['high', 1, 'high']",1,black,0.289732816,135,left,down,high,high,white_high_135-black_high_135-white_high_135-black_high_45,black_high_135_down,white_high_45_down,23,1.457086334,1536.974039,1537.222586,0.2485474,left,0.2107561,1,23,13,1,1,1,1,TRUE,FALSE,high_1_mask_high,0.75,-1,3,FALSE,6,,,,,,,,,,,,,,,,,,,165,1,3.2.2021,164.9838316
155,"['low', 1, 'high']",1,black,0.921165232,45,right,up,low,high,white_high_135-black_high_45-white_high_135-black_high_135,black_low_45_up,white_low_135_up,8,1.234886331,1539.277686,1539.526531,0.2488453,right,0.1727657,1,8,12,1,0,1,1,TRUE,FALSE,low_1_mask_high,0.75,-1,3,FALSE,4,,,,,,,,,,,,,,,,,,,165,1,3.2.2021,164.9838316
156,"['high', 3, 'high']",3,white,0.74976929,45,left,up,high,high,black_high_45-white_high_135-white_high_135-black_high_135,white_high_45_up,black_high_135_up,17,1.710257859,1542.567993,1542.816541,0.2485478,left,0.1055066,1,17,11,1,0,1,1,TRUE,FALSE,high_3_mask_high,0.75,-1,3,FALSE,3,,,,,,,,,,,,,,,,,,,165,1,3.2.2021,164.9838316
157,"['low', 2, 'high']",2,white,0.504761102,45,left,up,low,high,black_high_135-white_high_135-white_high_135-black_high_45,white_low_45_up,black_low_135_up,6,1.944540213,1545.539941,1545.788479,0.2485387,right,0.8139218,0,6,9,1,1,1,1,TRUE,FALSE,low_2_mask_high,0.75,-1,3,TRUE,7,,,,,,,,,,,,,,,,,,,165,1,3.2.2021,164.9838316
158,"['med', 1, 'low']",1,white,0.9390614,45,left,up,med,low,black_low_135-white_low_45-white_low_135-black_low_45,white_med_45_up,black_med_135_up,25,1.344795382,1548.765015,1549.01355,0.2485353,left,0.3890689,1,25,11,0,1,1,1,TRUE,FALSE,med_1_mask_low,0.75,-1,3,TRUE,7,,,,,,,,,,,,,,,,,,,165,1,3.2.2021,164.9838316
159,"['high', 2, 'low']",2,white,0.322401526,135,right,up,high,low,black_low_135-white_low_135-white_low_45-black_low_45,white_high_135_up,black_high_45_up,9,1.644983786,1551.796111,1552.044659,0.2485487,right,0.4241303,1,9,7,0,0,1,1,TRUE,FALSE,high_2_mask_low,0.75,-1,3,TRUE,4,,,,,,,,,,,,,,,,,,,165,1,3.2.2021,164.9838316
160,"['med', 3, 'low']",3,white,0.64069525,135,right,up,med,low,black_low_45-white_low_135-black_low_135-white_low_45,white_med_135_up,black_med_45_up,12,1.593262734,1555.045732,1555.293988,0.2482561,right,0.4683562,1,12,8,1,0,1,1,TRUE,FALSE,med_3_mask_low,0.75,-1,3,FALSE,4,,,,,,,,,,,,,,,,,,,165,1,3.2.2021,164.9838316
161,"['high', 1, 'high']",1,white,0.749812335,135,right,down,high,high,white_high_135-black_high_135-white_high_135-black_high_45,white_high_135_down,black_high_45_down,22,1.978060009,1558.519392,1558.76794,0.2485483,left,0.575597,0,22,14,1,1,1,1,TRUE,FALSE,high_1_mask_high,0.75,-1,3,TRUE,7,,,,,,,,,,,,,,,,,,,165,1,3.2.2021,164.9838316
162,"['high', 3, 'high']",3,black,0.06088126,135,left,up,high,high,white_high_135-black_high_45-black_high_135-white_high_135,black_high_135_up,white_high_45_up,16,1.143192835,1561.611096,1561.859351,0.2482543,left,0.3189151,1,16,12,1,0,1,1,TRUE,FALSE,high_3_mask_high,0.75,-1,3,FALSE,3,,,,,,,,,,,,,,,,,,,165,1,3.2.2021,164.9838316
163,"['med', 2, 'high']",2,black,0.449314921,135,left,down,med,high,black_high_45-white_high_135-white_high_135-black_high_135,black_med_135_down,white_med_45_down,22,1.367794129,1564.605528,1564.854071,0.2485432,left,0.2191304,1,22,6,0,0,1,1,TRUE,FALSE,med_2_mask_high,0.75,-1,3,TRUE,2,,,,,,,,,,,,,,,,,,,165,1,3.2.2021,164.9838316
164,"['low', 1, 'low']",1,black,0.277679191,45,right,down,low,low,white_low_45-black_low_135-white_low_135-black_low_45,black_low_45_down,white_low_135_down,18,1.869271294,1567.679063,1567.927603,0.24854,right,0.3249134,1,18,10,1,0,1,1,TRUE,FALSE,low_1_mask_low,0.75,-1,3,FALSE,4,,,,,,,,,,,,,,,,,,,165,1,3.2.2021,164.9838316
165,"['high', 3, 'high']",3,white,0.436457045,45,left,up,high,high,white_high_135-white_high_135-black_high_135-black_high_45,white_high_45_up,black_high_135_up,15,1.337282864,1570.673786,1570.922631,0.248845,left,0.5138241,1,15,13,1,0,1,1,TRUE,FALSE,high_3_mask_high,0.75,-1,3,FALSE,3,,,,,,,,,,,,,,,,,,,165,1,3.2.2021,164.9838316
166,"['high', 1, 'low']",1,white,0.297599313,135,right,down,high,low,black_low_135-white_low_135-black_low_45-white_low_45,white_high_135_down,black_high_45_down,16,1.836883622,1573.997955,1574.244685,0.2467305,right,0.272247,1,16,8,0,1,1,1,TRUE,FALSE,high_1_mask_low,0.75,-1,3,TRUE,6,,,,,,,,,,,,,,,,,,,165,1,3.2.2021,164.9838316
167,"['high', 2, 'low']",2,white,0.63626291,135,right,down,high,low,black_low_45-black_low_135-white_low_45-white_low_135,white_high_135_down,black_high_45_down,8,1.177813265,1576.420747,1576.669292,0.2485448,right,0.3345303,1,8,8,1,0,1,1,TRUE,FALSE,high_2_mask_low,0.75,-1,3,FALSE,4,,,,,,,,,,,,,,,,,,,165,1,3.2.2021,164.9838316
168,"['low', 2, 'low']",2,white,0.396917536,45,left,up,low,low,black_low_45-white_low_135-black_low_135-white_low_45,white_low_45_up,black_low_135_up,9,1.957567881,1579.706461,1579.955009,0.2485485,left,0.0525213,1,9,6,1,0,1,1,TRUE,FALSE,low_2_mask_low,0.75,-1,3,FALSE,3,,,,,,,,,,,,,,,,,,,165,1,3.2.2021,164.9838316
169,"['low', 2, 'low']",2,black,0.334580808,45,right,up,low,low,black_low_45-white_low_135-white_low_45-black_low_135,black_low_45_up,white_low_135_up,8,1.108919192,1581.834296,1582.082916,0.2486198,right,0.1359501,1,8,7,1,0,1,1,TRUE,FALSE,low_2_mask_low,0.75,-1,3,FALSE,3,,,,,,,,,,,,,,,,,,,165,1,3.2.2021,164.9838316
170,"['low', 3, 'low']",3,white,0.995360612,135,right,down,low,low,white_low_135-white_low_45-black_low_135-black_low_45,white_low_135_down,black_low_45_down,1,1.948113267,1584.744155,1584.992998,0.2488429,left,0.3313419,0,1,7,1,0,1,1,TRUE,FALSE,low_3_mask_low,0.75,-1,3,TRUE,2,,,,,,,,,,,,,,,,,,,165,1,3.2.2021,164.9838316
171,"['high', 1, 'high']",1,black,0.354983673,45,right,up,high,high,black_high_135-white_high_135-white_high_135-black_high_45,black_high_45_up,white_high_135_up,25,1.111220676,1587.252439,1587.500989,0.2485502,right,0.2555698,1,25,15,0,1,1,1,TRUE,FALSE,high_1_mask_high,0.75,-1,3,TRUE,8,,,,,,,,,,,,,,,,,,,165,1,3.2.2021,164.9838316
172,"['low', 2, 'low']",2,white,0.505832068,45,left,down,low,low,black_low_135-black_low_45-white_low_135-white_low_45,white_low_45_down,black_low_135_down,7,1.945680672,1590.4002,1590.64873,0.24853,left,0.1154381,1,7,8,1,0,1,1,TRUE,FALSE,low_2_mask_low,0.75,-1,3,FALSE,3,,,,,,,,,,,,,,,,,,,165,1,3.2.2021,164.9838316
173,"['med', 3, 'low']",3,black,0.53608017,45,right,down,med,low,black_low_45-black_low_135-white_low_45-white_low_135,black_med_45_down,white_med_135_down,11,1.156270605,1592.861413,1593.110009,0.2485966,left,0.6878533,0,11,9,1,0,1,1,TRUE,FALSE,med_3_mask_low,0.75,-1,3,TRUE,5,,,,,,,,,,,,,,,,,,,165,1,3.2.2021,164.9838316
174,"['low', 3, 'high']",3,black,0.050959734,45,right,down,low,high,white_high_135-black_high_45-black_high_135-white_high_135,black_low_45_down,white_low_135_down,5,1.755860089,1596.280496,1596.529038,0.2485424,right,0.1959272,1,5,10,1,0,1,1,TRUE,FALSE,low_3_mask_high,0.75,-1,3,FALSE,3,,,,,,,,,,,,,,,,,,,165,1,3.2.2021,164.9838316
175,"['high', 1, 'low']",1,white,0.055247349,135,right,up,high,low,white_low_45-black_low_135-white_low_135-black_low_45,white_high_135_up,black_high_45_up,15,1.112585721,1598.535649,1598.78594,0.2502916,right,0.4175291,1,15,9,1,1,1,1,TRUE,FALSE,high_1_mask_low,0.75,-1,3,FALSE,6,,,,,,,,,,,,,,,,,,,165,1,3.2.2021,164.9838316
176,"['high', 2, 'high']",2,black,0.651793667,135,left,down,high,high,black_high_135-black_high_45-white_high_135-white_high_135,black_high_135_down,white_high_45_down,25,1.141636495,1601.481613,1601.7304,0.2487865,left,0.2541966,1,25,11,0,1,1,1,TRUE,FALSE,high_2_mask_high,0.75,-1,3,TRUE,7,,,,,,,,,,,,,,,,,,,165,1,3.2.2021,164.9838316
177,"['med', 1, 'high']",1,black,0.224968044,45,right,up,med,high,black_high_45-white_high_135-black_high_135-white_high_135,black_med_45_up,white_med_135_up,18,1.74395195,1604.464469,1604.713014,0.2485448,left,0.4547325,0,18,6,0,0,1,1,TRUE,FALSE,med_1_mask_high,0.75,-1,3,FALSE,2,,,,,,,,,,,,,,,,,,,165,1,3.2.2021,164.9838316
178,"['low', 1, 'high']",1,white,0.753910122,45,left,up,low,high,black_high_45-black_high_135-white_high_135-white_high_135,white_low_45_up,black_low_135_up,7,1.491925952,1607.265201,1607.513742,0.2485408,right,0.2604622,0,7,13,1,0,1,1,TRUE,FALSE,low_1_mask_high,0.75,-1,3,TRUE,5,,,,,,,,,,,,,,,,,,,165,1,3.2.2021,164.9838316
179,"['low', 3, 'high']",3,white,0.088804021,45,left,up,low,high,white_high_135-white_high_135-black_high_135-black_high_45,white_low_45_up,black_low_135_up,4,1.093038369,1609.556716,1609.805256,0.2485397,left,0.2518045,1,4,11,1,0,1,1,TRUE,FALSE,low_3_mask_high,0.75,-1,3,FALSE,3,,,,,,,,,,,,,,,,,,,165,1,3.2.2021,164.9838316
180,"['med', 3, 'high']",3,black,0.620078905,45,right,up,med,high,white_high_135-white_high_135-black_high_45-black_high_135,black_med_45_up,white_med_135_up,16,1.395578847,1612.577493,1612.824223,0.2467301,right,0.249707,1,16,8,1,0,1,1,TRUE,FALSE,med_3_mask_high,0.75,-1,3,FALSE,3,,,,,,,,,,,,,,,,,,,165,1,3.2.2021,164.9838316
181,"['low', 2, 'low']",2,black,0.154120723,45,right,up,low,low,black_low_135-black_low_45-white_low_135-white_low_45,black_low_45_up,white_low_135_up,6,1.111754818,1614.861144,1615.111432,0.2502886,right,0.1975534,1,6,9,1,0,1,1,TRUE,FALSE,low_2_mask_low,0.75,-1,3,FALSE,3,,,,,,,,,,,,,,,,,,,165,1,3.2.2021,164.9838316
182,"['high', 1, 'high']",1,black,0.885780279,45,right,down,high,high,black_high_45-black_high_135-white_high_135-white_high_135,black_high_45_down,white_high_135_down,24,1.263476262,1617.376952,1617.625499,0.2485475,right,0.5588056,1,24,16,1,1,1,1,TRUE,FALSE,high_1_mask_high,0.75,-1,3,FALSE,8,,,,,,,,,,,,,,,,,,,165,1,3.2.2021,164.9838316
183,"['high', 3, 'low']",3,white,0.147581314,135,right,up,high,low,black_low_45-white_low_135-black_low_135-white_low_45,white_high_135_up,black_high_45_up,9,1.853321965,1620.90514,1621.153989,0.2488491,left,0.0918646,0,9,7,1,0,1,1,TRUE,FALSE,high_3_mask_low,0.75,-1,3,TRUE,5,,,,,,,,,,,,,,,,,,,165,1,3.2.2021,164.9838316
184,"['high', 2, 'high']",2,white,0.724630488,135,right,up,high,high,white_high_135-white_high_135-black_high_45-black_high_135,white_high_135_up,black_high_45_up,24,1.379415082,1623.736191,1623.984734,0.2485433,left,0.2139309,0,24,12,1,1,1,1,TRUE,FALSE,high_2_mask_high,0.75,-1,3,TRUE,8,,,,,,,,,,,,,,,,,,,165,1,3.2.2021,164.9838316
185,"['low', 1, 'low']",1,white,0.662204852,45,left,up,low,low,white_low_45-black_low_45-black_low_135-white_low_135,white_low_45_up,black_low_135_up,17,1.374804422,1626.294431,1626.544731,0.2502998,right,0.3470906,0,17,11,1,0,1,1,TRUE,FALSE,low_1_mask_low,0.75,-1,3,TRUE,5,,,,,,,,,,,,,,,,,,,165,1,3.2.2021,164.9838316
186,"['med', 1, 'high']",1,white,0.03752873,135,right,up,med,high,white_high_135-black_high_135-white_high_135-black_high_45,white_med_135_up,black_med_45_up,21,1.197623602,1628.858748,1629.107298,0.2485501,right,0.355584,1,21,7,0,0,1,1,TRUE,FALSE,med_1_mask_high,0.75,-1,3,TRUE,3,,,,,,,,,,,,,,,,,,,165,1,3.2.2021,164.9838316
187,"['low', 3, 'high']",3,white,0.655500341,135,right,down,low,high,black_high_135-white_high_135-black_high_45-white_high_135,white_low_135_down,black_low_45_down,3,1.04937918,1631.162383,1631.410956,0.2485731,left,0.2087781,0,3,12,1,0,1,1,TRUE,FALSE,low_3_mask_high,0.75,-1,3,TRUE,4,,,,,,,,,,,,,,,,,,,165,1,3.2.2021,164.9838316
188,"['low', 1, 'low']",1,black,0.771555309,135,left,up,low,low,white_low_45-black_low_135-black_low_45-white_low_135,black_low_135_up,white_low_45_up,20,1.032960164,1633.411445,1633.659991,0.248546,right,0.3744041,0,20,12,0,1,1,1,TRUE,FALSE,low_1_mask_low,0.75,-1,3,FALSE,5,,,,,,,,,,,,,,,,,,,165,1,3.2.2021,164.9838316
189,"['low', 2, 'high']",2,black,0.067248933,135,left,down,low,high,white_high_135-black_high_45-black_high_135-white_high_135,black_low_135_down,white_low_45_down,9,1.620669958,1636.400121,1636.650421,0.2503,left,0.4525831,1,9,10,0,1,1,1,TRUE,FALSE,low_2_mask_high,0.75,-1,3,TRUE,8,,,,,,,,,,,,,,,,,,,165,1,3.2.2021,164.9838316
190,"['med', 2, 'high']",2,white,0.215409011,135,right,down,med,high,black_high_45-white_high_135-black_high_135-white_high_135,white_med_135_down,black_med_45_down,21,1.698772636,1639.837371,1640.085915,0.2485444,left,0.215264,0,21,7,1,0,1,1,TRUE,FALSE,med_2_mask_high,0.75,-1,3,TRUE,3,,,,,,,,,,,,,,,,,,,165,1,3.2.2021,164.9838316
191,"['med', 2, 'high']",2,black,0.033477746,135,left,down,med,high,black_high_135-black_high_45-white_high_135-white_high_135,black_med_135_down,white_med_45_down,24,1.302997136,1642.710853,1642.959692,0.2488392,left,0.4829674,1,24,8,0,0,1,1,TRUE,FALSE,med_2_mask_high,0.75,-1,3,TRUE,4,,,,,,,,,,,,,,,,,,,165,1,3.2.2021,164.9838316
192,"['med', 3, 'high']",3,white,0.852956128,45,left,up,med,high,black_high_135-white_high_135-white_high_135-black_high_45,white_med_45_up,black_med_135_up,15,1.984017415,1646.512162,1646.760709,0.2485471,left,0.2177582,1,15,9,1,0,1,1,TRUE,FALSE,med_3_mask_high,0.75,-1,3,FALSE,3,,,,,,,,,,,,,,,,,,,165,1,3.2.2021,164.9838316
193,"['med', 1, 'high']",1,white,0.560785455,135,right,down,med,high,white_high_135-black_high_45-white_high_135-black_high_135,white_med_135_down,black_med_45_down,20,1.133961237,1648.878195,1649.123212,0.2450167,right,0.4970266,1,20,8,1,0,1,1,TRUE,FALSE,med_1_mask_high,0.75,-1,3,FALSE,3,,,,,,,,,,,,,,,,,,,165,1,3.2.2021,164.9838316
194,"['med', 3, 'low']",3,black,0.549640957,45,right,down,med,low,white_low_45-black_low_135-black_low_45-white_low_135,black_med_45_down,white_med_135_down,14,1.005659103,1651.671112,1651.919662,0.2485495,right,0.4176647,1,14,10,0,1,1,1,TRUE,FALSE,med_3_mask_low,0.75,-1,3,TRUE,6,,,,,,,,,,,,,,,,,,,165,1,3.2.2021,164.9838316
195,"['med', 2, 'high']",2,black,0.239479715,135,left,down,med,high,black_high_135-white_high_135-white_high_135-black_high_45,black_med_135_down,white_med_45_down,23,1.70723555,1655.132594,1655.381152,0.2485572,left,0.2675282,1,23,9,1,0,1,1,TRUE,FALSE,med_2_mask_high,0.75,-1,3,FALSE,4,,,,,,,,,,,,,,,,,,,165,1,3.2.2021,164.9838316
196,"['med', 1, 'low']",1,white,0.136091955,45,left,up,med,low,black_low_135-black_low_45-white_low_45-white_low_135,white_med_45_up,black_med_135_up,24,1.894376486,1658.351619,1658.600171,0.2485516,left,0.3173331,1,24,12,1,1,1,1,TRUE,FALSE,med_1_mask_low,0.75,-1,3,FALSE,7,,,,,,,,,,,,,,,,,,,165,1,3.2.2021,164.9838316
197,"['high', 1, 'high']",1,white,0.750104204,135,right,up,high,high,black_high_45-white_high_135-black_high_135-white_high_135,white_high_135_up,black_high_45_up,23,1.208637779,1660.921698,1661.170542,0.2488443,right,0.1849003,1,23,17,1,1,1,1,TRUE,FALSE,high_1_mask_high,0.75,-1,3,FALSE,8,,,,,,,,,,,,,,,,,,,165,1,3.2.2021,164.9838316
198,"['high', 1, 'high']",1,white,0.220456655,45,left,down,high,high,white_high_135-black_high_45-white_high_135-black_high_135,white_high_45_down,black_high_135_down,22,1.006933262,1663.146795,1663.395351,0.2485555,left,0.20069,1,22,18,1,1,1,1,TRUE,FALSE,high_1_mask_high,0.75,-1,3,FALSE,8,,,,,,,,,,,,,,,,,,,165,1,3.2.2021,164.9838316
199,"['med', 3, 'low']",3,black,0.803048971,135,left,up,med,low,black_low_45-black_low_135-white_low_135-white_low_45,black_med_135_up,white_med_45_up,13,1.85300363,1666.462542,1666.711088,0.2485452,left,0.2604803,1,13,11,1,1,1,1,TRUE,FALSE,med_3_mask_low,0.75,-1,3,FALSE,6,,,,,,,,,,,,,,,,,,,165,1,3.2.2021,164.9838316
200,"['high', 3, 'low']",3,white,0.737439415,45,left,up,high,low,black_low_45-white_low_45-white_low_135-black_low_135,white_high_45_up,black_high_135_up,12,1.153459673,1669.107431,1669.354195,0.2467638,left,0.1571988,1,12,8,0,1,1,1,TRUE,FALSE,high_3_mask_low,0.75,-1,3,TRUE,6,,,,,,,,,,,,,,,,,,,165,1,3.2.2021,164.9838316
201,"['low', 2, 'high']",2,white,0.80815439,135,right,up,low,high,black_high_45-white_high_135-black_high_135-white_high_135,white_low_135_up,black_low_45_up,8,1.10601606,1671.342618,1671.591161,0.2485435,left,0.2110671,0,8,11,1,1,1,1,TRUE,FALSE,low_2_mask_high,0.75,-1,3,TRUE,9,,,,,,,,,,,,,,,,,,,165,1,3.2.2021,164.9838316
202,"['low', 3, 'low']",3,white,0.410541703,45,left,up,low,low,white_low_45-white_low_135-black_low_135-black_low_45,white_low_45_up,black_low_135_up,4,1.82578393,1674.313092,1674.561641,0.2485491,left,0.161805,1,4,8,0,0,1,1,TRUE,FALSE,low_3_mask_low,0.75,-1,3,TRUE,3,,,,,,,,,,,,,,,,,,,165,1,3.2.2021,164.9838316
203,"['high', 1, 'low']",1,black,0.560828643,135,left,up,high,low,black_low_135-black_low_45-white_low_135-white_low_45,black_high_135_up,white_high_45_up,14,1.059366985,1676.465174,1676.713722,0.2485488,right,0.3191641,0,14,10,1,1,1,1,TRUE,FALSE,high_1_mask_low,0.75,-1,3,TRUE,7,,,,,,,,,,,,,,,,,,,165,1,3.2.2021,164.9838316
204,"['low', 2, 'high']",2,white,0.926710801,135,right,up,low,high,white_high_135-black_high_135-white_high_135-black_high_45,white_low_135_up,black_low_45_up,11,1.013171388,1678.847614,1679.096155,0.2485403,right,0.1809617,1,11,12,0,1,1,1,TRUE,FALSE,low_2_mask_high,0.75,-1,3,TRUE,10,,,,,,,,,,,,,,,,,,,165,1,3.2.2021,164.9838316
205,"['low', 3, 'high']",3,white,0.870249729,135,right,down,low,high,white_high_135-black_high_135-white_high_135-black_high_45,white_low_135_down,black_low_45_down,6,1.280491894,1681.314925,1681.563464,0.2485387,right,0.19323,1,6,13,0,0,1,1,TRUE,FALSE,low_3_mask_high,0.75,-1,3,TRUE,5,,,,,,,,,,,,,,,,,,,165,1,3.2.2021,164.9838316
206,"['high', 3, 'low']",3,black,0.586285501,135,left,down,high,low,white_low_45-black_low_45-black_low_135-white_low_135,black_high_135_down,white_high_45_down,11,1.717457544,1684.418765,1684.667314,0.2485496,left,0.1878848,1,11,9,1,1,1,1,TRUE,FALSE,high_3_mask_low,0.75,-1,3,FALSE,6,,,,,,,,,,,,,,,,,,,165,1,3.2.2021,164.9838316
207,"['med', 3, 'low']",3,white,0.290037095,45,left,down,med,low,black_low_45-white_low_135-white_low_45-black_low_135,white_med_45_down,black_med_135_down,12,1.8322625,1687.668115,1687.918447,0.2503317,left,0.1111892,1,12,12,1,1,1,1,TRUE,FALSE,med_3_mask_low,0.75,-1,3,FALSE,6,,,,,,,,,,,,,,,,,,,165,1,3.2.2021,164.9838316
208,"['high', 3, 'low']",3,black,0.204677467,45,right,up,high,low,white_low_135-black_low_135-white_low_45-black_low_45,black_high_45_up,white_high_135_up,10,1.4911248,1690.42035,1690.668892,0.2485423,left,0.1317534,0,10,10,1,1,1,1,TRUE,FALSE,high_3_mask_low,0.75,-1,3,TRUE,7,,,,,,,,,,,,,,,,,,,165,1,3.2.2021,164.9838316
209,"['high', 1, 'low']",1,black,0.721341645,135,left,up,high,low,white_low_135-black_low_135-black_low_45-white_low_45,black_high_135_up,white_high_45_up,17,1.273026934,1692.803078,1693.051629,0.2485513,right,0.8632109,0,17,11,0,1,1,1,TRUE,FALSE,high_1_mask_low,0.75,-1,3,FALSE,7,,,,,,,,,,,,,,,,,,,165,1,3.2.2021,164.9838316
210,"['med', 2, 'low']",2,white,0.492689659,135,right,up,med,low,white_low_135-white_low_45-black_low_135-black_low_45,white_med_135_up,black_med_45_up,4,1.277154628,1695.823893,1696.070577,0.2466838,right,0.1332579,1,4,4,1,0,1,1,TRUE,FALSE,med_2_mask_low,0.75,-1,3,FALSE,0,,,,,,,,,,,,,,,,,,,165,1,3.2.2021,164.9838316
211,"['low', 1, 'low']",1,white,0.85682414,135,right,down,low,low,white_low_45-black_low_135-black_low_45-white_low_135,white_low_135_down,black_low_45_down,23,1.084613169,1698.076904,1698.32545,0.2485459,right,0.2342335,1,23,13,0,1,1,1,TRUE,FALSE,low_1_mask_low,0.75,-1,3,TRUE,6,,,,,,,,,,,,,,,,,,,165,1,3.2.2021,164.9838316
212,"['high', 2, 'high']",2,black,0.210091557,45,right,up,high,high,white_high_135-white_high_135-black_high_135-black_high_45,black_high_45_up,white_high_135_up,27,1.678093953,1701.423218,1701.671767,0.2485495,left,0.3766219,0,27,13,0,1,1,1,TRUE,FALSE,high_2_mask_high,0.75,-1,3,FALSE,8,,,,,,,,,,,,,,,,,,,165,1,3.2.2021,164.9838316
213,"['low', 1, 'low']",1,white,0.565982801,45,left,up,low,low,white_low_135-black_low_45-black_low_135-white_low_45,white_low_45_up,black_low_135_up,22,1.743992303,1704.575567,1704.82411,0.2485425,left,0.2001666,1,22,14,1,1,1,1,TRUE,FALSE,low_1_mask_low,0.75,-1,3,FALSE,6,,,,,,,,,,,,,,,,,,,165,1,3.2.2021,164.9838316
214,"['med', 3, 'high']",3,black,0.201214107,135,left,down,med,high,black_high_135-white_high_135-black_high_45-white_high_135,black_med_135_down,white_med_45_down,14,1.160246484,1707.236877,1707.485718,0.2488412,left,0.2266198,1,14,10,1,0,1,1,TRUE,FALSE,med_3_mask_high,0.75,-1,3,FALSE,3,,,,,,,,,,,,,,,,,,,165,1,3.2.2021,164.9838316
215,"['low', 2, 'low']",2,white,0.302316649,45,left,up,low,low,white_low_45-white_low_135-black_low_45-black_low_135,white_low_45_up,black_low_135_up,5,1.505101474,1709.861818,1710.110651,0.2488333,left,0.2281298,1,5,10,1,0,1,1,TRUE,FALSE,low_2_mask_low,0.75,-1,3,FALSE,3,,,,,,,,,,,,,,,,,,,165,1,3.2.2021,164.9838316
216,"['low', 2, 'high']",2,white,0.777117893,135,right,down,low,high,black_high_45-white_high_135-black_high_135-white_high_135,white_low_135_down,black_low_45_down,10,1.561875853,1712.668619,1712.917148,0.2485292,right,0.135594,1,10,13,1,1,1,1,TRUE,FALSE,low_2_mask_high,0.75,-1,3,FALSE,10,,,,,,,,,,,,,,,,,,,165,1,3.2.2021,164.9838316
217,"['high', 3, 'low']",3,black,0.585078496,45,right,up,high,low,white_low_135-black_low_45-white_low_45-black_low_135,black_high_45_up,white_high_135_up,13,1.950934184,1716.014926,1716.26347,0.2485437,right,0.2008354,1,13,11,0,1,1,1,TRUE,FALSE,high_3_mask_low,0.75,-1,3,TRUE,8,,,,,,,,,,,,,,,,,,,165,1,3.2.2021,164.9838316
218,"['low', 3, 'low']",3,black,0.759924468,135,left,down,low,low,white_low_45-black_low_135-black_low_45-white_low_135,black_low_135_down,white_low_45_down,3,1.778679193,1718.894489,1719.143015,0.2485267,left,0.3674725,1,3,9,1,0,1,1,TRUE,FALSE,low_3_mask_low,0.75,-1,3,FALSE,3,,,,,,,,,,,,,,,,,,,165,1,3.2.2021,164.9838316
219,"['med', 1, 'high']",1,white,0.618669628,45,left,down,med,high,white_high_135-white_high_135-black_high_135-black_high_45,white_med_45_down,black_med_135_down,19,1.103893178,1721.361804,1721.610344,0.2485408,left,0.323793,1,19,9,1,0,1,1,TRUE,FALSE,med_1_mask_high,0.75,-1,3,FALSE,3,,,,,,,,,,,,,,,,,,,165,1,3.2.2021,164.9838316
220,"['high', 3, 'low']",3,black,0.385877223,135,left,down,high,low,white_low_135-black_low_45-black_low_135-white_low_45,black_high_135_down,white_high_45_down,12,1.020230633,1723.932161,1724.182469,0.2503083,left,0.1862657,1,12,12,1,1,1,1,TRUE,FALSE,high_3_mask_low,0.75,-1,3,FALSE,8,,,,,,,,,,,,,,,,,,,165,1,3.2.2021,164.9838316
221,"['high', 1, 'high']",1,black,0.377238797,135,left,up,high,high,black_high_135-white_high_135-white_high_135-black_high_45,black_high_135_up,white_high_45_up,21,1.291990902,1726.429799,1726.68009,0.2502912,left,0.2588912,1,21,19,1,1,1,1,TRUE,FALSE,high_1_mask_high,0.75,-1,3,FALSE,8,,,,,,,,,,,,,,,,,,,165,1,3.2.2021,164.9838316
222,"['low', 2, 'low']",2,white,0.120790758,45,left,up,low,low,black_low_45-white_low_135-black_low_135-white_low_45,white_low_45_up,black_low_135_up,4,1.383483723,1728.945609,1729.195895,0.2502858,left,0.3912564,1,4,11,1,0,1,1,TRUE,FALSE,low_2_mask_low,0.75,-1,3,FALSE,3,,,,,,,,,,,,,,,,,,,165,1,3.2.2021,164.9838316
223,"['med', 2, 'high']",2,white,0.677531462,135,right,up,med,high,white_high_135-black_high_135-white_high_135-black_high_45,white_med_135_up,black_med_45_up,22,1.049948952,1731.697842,1731.948158,0.2503162,right,0.1207463,1,22,10,1,0,1,1,TRUE,FALSE,med_2_mask_high,0.75,-1,3,FALSE,4,,,,,,,,,,,,,,,,,,,165,1,3.2.2021,164.9838316
224,"['high', 3, 'low']",3,black,0.517235516,45,right,up,high,low,black_low_135-white_low_45-black_low_45-white_low_135,black_high_45_up,white_high_135_up,11,1.916124338,1734.922917,1735.171758,0.2488411,left,0.1869058,0,11,13,1,1,1,1,TRUE,FALSE,high_3_mask_low,0.75,-1,3,TRUE,9,,,,,,,,,,,,,,,,,,,165,1,3.2.2021,164.9838316
225,"['high', 2, 'low']",2,black,0.364101847,135,left,down,high,low,black_low_45-black_low_135-white_low_135-white_low_45,black_high_135_down,white_high_45_down,7,1.190588071,1737.244751,1737.49331,0.2485586,left,0.2154718,1,7,9,1,0,1,1,TRUE,FALSE,high_2_mask_low,0.75,-1,3,FALSE,4,,,,,,,,,,,,,,,,,,,165,1,3.2.2021,164.9838316
226,"['low', 1, 'low']",1,white,0.138092152,45,left,down,low,low,black_low_45-white_low_135-white_low_45-black_low_135,white_low_45_down,black_low_135_down,21,1.108940969,1739.590825,1739.83938,0.2485553,left,0.1974496,1,21,15,1,1,1,1,TRUE,FALSE,low_1_mask_low,0.75,-1,3,FALSE,6,,,,,,,,,,,,,,,,,,,165,1,3.2.2021,164.9838316
227,"['med', 2, 'low']",2,white,0.138955542,45,left,down,med,low,white_low_45-white_low_135-black_low_45-black_low_135,white_med_45_down,black_med_135_down,3,1.319288085,1741.955067,1742.203619,0.2485515,left,0.1170006,1,3,5,1,0,1,1,TRUE,FALSE,med_2_mask_low,0.75,-1,3,FALSE,0,,,,,,,,,,,,,,,,,,,165,1,3.2.2021,164.9838316
228,"['high', 1, 'low']",1,white,0.982375014,135,right,down,high,low,white_low_135-black_low_135-black_low_45-white_low_45,white_high_135_down,black_high_45_down,20,1.393634507,1744.470881,1744.721209,0.2503284,right,0.2098801,1,20,12,0,1,1,1,TRUE,FALSE,high_1_mask_low,0.75,-1,3,TRUE,8,,,,,,,,,,,,,,,,,,,165,1,3.2.2021,164.9838316
229,"['low', 1, 'high']",1,black,0.12727738,45,right,down,low,high,black_high_135-white_high_135-black_high_45-white_high_135,black_low_45_down,white_low_135_down,10,1.791511408,1747.35649,1747.605037,0.2485471,left,0.3246635,0,10,14,0,1,1,1,TRUE,FALSE,low_1_mask_high,0.75,-1,3,FALSE,5,,,,,,,,,,,,,,,,,,,165,1,3.2.2021,164.9838316
230,"['low', 2, 'high']",2,black,0.384921594,135,left,down,low,high,black_high_45-white_high_135-black_high_135-white_high_135,black_low_135_down,white_low_45_down,9,1.127360471,1749.807717,1750.054426,0.2467087,left,0.1799697,1,9,14,1,1,1,1,TRUE,FALSE,low_2_mask_high,0.75,-1,3,FALSE,10,,,,,,,,,,,,,,,,,,,165,1,3.2.2021,164.9838316
231,"['low', 2, 'low']",2,black,0.76808448,45,right,up,low,low,white_low_45-black_low_45-black_low_135-white_low_135,black_low_45_up,white_low_135_up,3,1.296215029,1752.133498,1752.382047,0.2485488,left,0.1388813,0,3,12,1,0,1,1,TRUE,FALSE,low_2_mask_low,0.75,-1,3,TRUE,4,,,,,,,,,,,,,,,,,,,165,1,3.2.2021,164.9838316
232,"['med', 1, 'low']",1,black,0.405373606,45,right,up,med,low,white_low_135-white_low_45-black_low_135-black_low_45,black_med_45_up,white_med_135_up,23,1.619526714,1754.940299,1755.188843,0.2485439,right,0.3065231,1,23,13,1,1,1,1,TRUE,FALSE,med_1_mask_low,0.75,-1,3,FALSE,7,,,,,,,,,,,,,,,,,,,165,1,3.2.2021,164.9838316
233,"['high', 1, 'high']",1,white,0.015339292,45,left,down,high,high,white_high_135-white_high_135-black_high_135-black_high_45,white_high_45_down,black_high_135_down,20,1.080325823,1757.334859,1757.583408,0.248549,left,0.2599395,1,20,20,1,1,1,1,TRUE,FALSE,high_1_mask_high,0.75,-1,3,FALSE,8,,,,,,,,,,,,,,,,,,,165,1,3.2.2021,164.9838316
234,"['med', 3, 'low']",3,black,0.942986484,135,left,down,med,low,black_low_135-black_low_45-white_low_135-white_low_45,black_med_135_down,white_med_45_down,11,1.066858572,1759.856735,1760.107339,0.2506038,left,0.4104341,1,11,13,1,1,1,1,TRUE,FALSE,med_3_mask_low,0.75,-1,3,FALSE,6,,,,,,,,,,,,,,,,,,,165,1,3.2.2021,164.9838316
235,"['med', 1, 'low']",1,black,0.370448708,45,right,up,med,low,black_low_135-black_low_45-white_low_135-white_low_45,black_med_45_up,white_med_135_up,22,1.834958922,1763.130328,1763.378874,0.2485465,left,0.4440444,0,22,14,1,1,1,1,TRUE,FALSE,med_1_mask_low,0.75,-1,3,TRUE,8,,,,,,,,,,,,,,,,,,,165,1,3.2.2021,164.9838316
236,"['low', 3, 'high']",3,white,0.839652025,135,right,down,low,high,white_high_135-black_high_135-black_high_45-white_high_135,white_low_135_down,black_low_45_down,5,1.515954408,1766.064722,1766.313272,0.2485501,right,0.2045011,1,5,14,1,1,1,1,TRUE,FALSE,low_3_mask_high,0.75,-1,3,FALSE,5,,,,,,,,,,,,,,,,,,,165,1,3.2.2021,164.9838316
237,"['high', 3, 'low']",3,black,0.595521651,135,left,up,high,low,white_low_135-white_low_45-black_low_135-black_low_45,black_high_135_up,white_high_45_up,14,1.179618301,1768.74421,1768.992762,0.2485516,left,0.205079,1,14,14,0,1,1,1,TRUE,FALSE,high_3_mask_low,0.75,-1,3,TRUE,10,,,,,,,,,,,,,,,,,,,165,1,3.2.2021,164.9838316
238,"['med', 3, 'high']",3,white,0.171081045,135,right,down,med,high,white_high_135-white_high_135-black_high_45-black_high_135,white_med_135_down,black_med_45_down,13,1.427681186,1771.664442,1771.91298,0.2485375,right,0.2697897,1,13,11,1,0,1,1,TRUE,FALSE,med_3_mask_high,0.75,-1,3,FALSE,3,,,,,,,,,,,,,,,,,,,165,1,3.2.2021,164.9838316
239,"['med', 3, 'high']",3,black,0.459351155,45,right,down,med,high,black_high_45-white_high_135-white_high_135-black_high_135,black_med_45_down,white_med_135_down,12,1.543208033,1774.703071,1774.951615,0.2485434,right,0.2317818,1,12,12,1,0,1,1,TRUE,FALSE,med_3_mask_high,0.75,-1,3,FALSE,3,,,,,,,,,,,,,,,,,,,165,1,3.2.2021,164.9838316
240,"['med', 3, 'low']",3,white,0.19557371,135,right,down,med,low,white_low_45-black_low_45-black_low_135-white_low_135,white_med_135_down,black_med_45_down,10,1.509581183,1777.601086,1777.849632,0.2485469,right,0.207297,1,10,14,1,1,1,1,TRUE,FALSE,med_3_mask_low,0.75,-1,3,FALSE,6,,,,,,,,,,,,,,,,,,,165,1,3.2.2021,164.9838316
241,"['high', 3, 'low']",3,white,0.206637934,45,left,up,high,low,black_low_135-white_low_135-white_low_45-black_low_45,white_high_45_up,black_high_135_up,13,1.845176825,1780.91681,1781.165651,0.2488413,left,0.0527722,1,13,15,1,1,1,1,TRUE,FALSE,high_3_mask_low,0.75,-1,3,FALSE,10,,,,,,,,,,,,,,,,,,,165,1,3.2.2021,164.9838316
242,"['med', 2, 'high']",2,black,0.853297364,45,right,down,med,high,white_high_135-black_high_135-white_high_135-black_high_45,black_med_45_down,white_med_135_down,21,1.415000044,1783.675111,1783.923662,0.248551,right,0.3185933,1,21,11,1,0,1,1,TRUE,FALSE,med_2_mask_high,0.75,-1,3,FALSE,4,,,,,,,,,,,,,,,,,,,165,1,3.2.2021,164.9838316
243,"['low', 2, 'low']",2,black,0.43366439,135,left,down,low,low,black_low_45-white_low_45-black_low_135-white_low_135,black_low_135_down,white_low_45_down,6,1.853116479,1786.772898,1787.023185,0.250287,left,0.2378258,1,6,13,0,0,1,1,TRUE,FALSE,low_2_mask_low,0.75,-1,3,TRUE,5,,,,,,,,,,,,,,,,,,,165,1,3.2.2021,164.9838316
244,"['low', 2, 'low']",2,black,0.545596004,45,right,down,low,low,black_low_45-black_low_135-white_low_45-white_low_135,black_low_45_down,white_low_135_down,5,1.877626574,1789.785797,1790.034342,0.2485446,right,0.259674,1,5,14,1,1,1,1,TRUE,FALSE,low_2_mask_low,0.75,-1,3,FALSE,5,,,,,,,,,,,,,,,,,,,165,1,3.2.2021,164.9838316
245,"['low', 3, 'high']",3,white,0.615463397,45,left,up,low,high,white_high_135-black_high_135-white_high_135-black_high_45,white_low_45_up,black_low_135_up,4,1.675244234,1792.653215,1792.901761,0.2485465,left,0.1871316,1,4,15,1,1,1,1,TRUE,FALSE,low_3_mask_high,0.75,-1,3,FALSE,5,,,,,,,,,,,,,,,,,,,165,1,3.2.2021,164.9838316
246,"['med', 2, 'high']",2,black,0.288233107,135,left,up,med,high,black_high_45-black_high_135-white_high_135-white_high_135,black_med_135_up,white_med_45_up,20,1.994900057,1796.096552,1796.345401,0.2488491,left,0.1973052,1,20,12,1,0,1,1,TRUE,FALSE,med_2_mask_high,0.75,-1,3,FALSE,4,,,,,,,,,,,,,,,,,,,165,1,3.2.2021,164.9838316
247,"['low', 1, 'high']",1,white,0.596982964,45,left,down,low,high,white_high_135-black_high_45-white_high_135-black_high_135,white_low_45_down,black_low_135_down,13,1.614236615,1798.83271,1799.079422,0.2467124,left,0.1543773,1,13,15,0,1,1,1,TRUE,FALSE,low_1_mask_high,0.75,-1,3,TRUE,6,,,,,,,,,,,,,,,,,,,165,1,3.2.2021,164.9838316
248,"['med', 1, 'high']",1,white,0.771350744,45,left,up,med,high,white_high_135-white_high_135-black_high_135-black_high_45,white_med_45_up,black_med_135_up,18,1.131008181,1801.097865,1801.346405,0.2485399,left,0.2073891,1,18,10,1,0,1,1,TRUE,FALSE,med_1_mask_high,0.75,-1,3,FALSE,3,,,,,,,,,,,,,,,,,,,165,1,3.2.2021,164.9838316
249,"['med', 1, 'high']",1,white,0.001027829,45,left,down,med,high,white_high_135-white_high_135-black_high_45-black_high_135,white_med_45_down,black_med_135_down,17,1.297814195,1803.577283,1803.825826,0.2485434,left,0.2000196,1,17,11,1,0,1,1,TRUE,FALSE,med_1_mask_high,0.75,-1,3,FALSE,3,,,,,,,,,,,,,,,,,,,165,1,3.2.2021,164.9838316
250,"['high', 2, 'high']",2,white,0.281610198,135,right,up,high,high,white_high_135-black_high_135-black_high_45-white_high_135,white_high_135_up,black_high_45_up,30,1.750908212,1807.038816,1807.287356,0.2485404,right,0.1245359,1,30,14,0,1,1,1,TRUE,FALSE,high_2_mask_high,0.75,-1,3,TRUE,9,,,,,,,,,,,,,,,,,,,165,1,3.2.2021,164.9838316
251,"['low', 3, 'low']",3,white,0.502872786,135,right,up,low,low,white_low_135-black_low_45-black_low_135-white_low_45,white_low_135_up,black_low_45_up,2,1.116835512,1872.945544,1873.194098,0.2485534,right,0.1712114,1,2,10,1,0,1,1,TRUE,FALSE,low_3_mask_low,0.75,-1,3,FALSE,3,,,,,,,,,,,,,,,,,,,165,1,3.2.2021,164.9838316
252,"['med', 1, 'high']",1,black,0.092743012,45,right,down,med,high,black_high_135-black_high_45-white_high_135-white_high_135,black_med_45_down,white_med_135_down,16,1.318236437,1875.39614,1875.644687,0.2485471,left,0.2310884,0,16,12,1,0,1,1,TRUE,FALSE,med_1_mask_high,0.75,-1,3,TRUE,4,,,,,,,,,,,,,,,,,,,165,1,3.2.2021,164.9838316
253,"['low', 3, 'low']",3,white,0.642447092,45,left,down,low,low,black_low_45-black_low_135-white_low_45-white_low_135,white_low_45_down,black_low_135_down,1,1.364346062,1877.829183,1878.075895,0.246712,left,0.1802222,1,1,11,1,0,1,1,TRUE,FALSE,low_3_mask_low,0.75,-1,3,FALSE,3,,,,,,,,,,,,,,,,,,,165,1,3.2.2021,164.9838316
254,"['high', 3, 'high']",3,white,0.880378083,135,right,up,high,high,black_high_135-white_high_135-white_high_135-black_high_45,white_high_135_up,black_high_45_up,14,1.247162133,1880.549,1880.797551,0.2485513,right,0.0984138,1,14,14,1,0,1,1,TRUE,FALSE,high_3_mask_high,0.75,-1,3,FALSE,3,,,,,,,,,,,,,,,,,,,165,1,3.2.2021,164.9838316
255,"['low', 1, 'high']",1,white,0.219492623,135,right,up,low,high,black_high_45-white_high_135-white_high_135-black_high_135,white_low_135_up,black_low_45_up,12,1.744039621,1883.307291,1883.555842,0.248551,right,0.0687977,1,12,16,1,1,1,1,TRUE,FALSE,low_1_mask_high,0.75,-1,3,FALSE,6,,,,,,,,,,,,,,,,,,,165,1,3.2.2021,164.9838316
256,"['med', 2, 'high']",2,black,0.453044246,45,right,down,med,high,black_high_135-white_high_135-white_high_135-black_high_45,black_med_45_down,white_med_135_down,19,1.219413115,1885.83523,1886.085874,0.2506444,right,0.1991253,1,19,13,1,0,1,1,TRUE,FALSE,med_2_mask_high,0.75,-1,3,FALSE,4,,,,,,,,,,,,,,,,,,,165,1,3.2.2021,164.9838316
257,"['med', 3, 'high']",3,white,0.296957043,45,left,up,med,high,black_high_135-black_high_45-white_high_135-white_high_135,white_med_45_up,black_med_135_up,11,1.28809035,1888.508673,1888.757212,0.2485392,left,0.3282138,1,11,13,1,0,1,1,TRUE,FALSE,med_3_mask_high,0.75,-1,3,FALSE,3,,,,,,,,,,,,,,,,,,,165,1,3.2.2021,164.9838316
258,"['low', 3, 'low']",3,black,0.482077633,45,right,up,low,low,black_low_135-white_low_45-black_low_45-white_low_135,black_low_45_up,white_low_135_up,1,1.698729032,1891.363958,1891.614283,0.2503254,right,0.230611,1,1,12,1,0,1,1,TRUE,FALSE,low_3_mask_low,0.75,-1,3,FALSE,3,,,,,,,,,,,,,,,,,,,165,1,3.2.2021,164.9838316
259,"['med', 2, 'low']",2,white,0.001102569,45,left,up,med,low,white_low_45-black_low_45-white_low_135-black_low_135,white_med_45_up,black_med_135_up,2,1.941257262,1894.364748,1894.613297,0.2485498,left,0.2103366,1,2,6,1,0,1,1,TRUE,FALSE,med_2_mask_low,0.75,-1,3,FALSE,0,,,,,,,,,,,,,,,,,,,165,1,3.2.2021,164.9838316
260,"['low', 1, 'high']",1,white,0.820203158,135,right,up,low,high,black_high_45-white_high_135-black_high_135-white_high_135,white_low_135_up,black_low_45_up,11,1.245937866,1896.725045,1896.97177,0.2467243,right,0.1639433,1,11,17,1,1,1,1,TRUE,FALSE,low_1_mask_high,0.75,-1,3,FALSE,6,,,,,,,,,,,,,,,,,,,165,1,3.2.2021,164.9838316
261,"['low', 1, 'low']",1,white,0.444821503,135,right,down,low,low,white_low_45-black_low_45-white_low_135-black_low_135,white_low_135_down,black_low_45_down,20,1.403578949,1899.299356,1899.547902,0.2485466,right,0.2063049,1,20,16,1,1,1,1,TRUE,FALSE,low_1_mask_low,0.75,-1,3,FALSE,6,,,,,,,,,,,,,,,,,,,165,1,3.2.2021,164.9838316
262,"['med', 3, 'low']",3,white,0.023962366,45,left,up,med,low,white_low_45-black_low_45-black_low_135-white_low_135,white_med_45_up,black_med_135_up,9,1.562565793,1902.184975,1902.433518,0.2485428,left,0.0669258,1,9,15,1,1,1,1,TRUE,FALSE,med_3_mask_low,0.75,-1,3,FALSE,6,,,,,,,,,,,,,,,,,,,165,1,3.2.2021,164.9838316
263,"['high', 3, 'low']",3,black,0.157473817,45,right,down,high,low,white_low_45-white_low_135-black_low_45-black_low_135,black_high_45_down,white_high_135_down,12,1.778273171,1905.258508,1905.507053,0.2485445,right,0.2007886,1,12,16,1,1,1,1,TRUE,FALSE,high_3_mask_low,0.75,-1,3,FALSE,10,,,,,,,,,,,,,,,,,,,165,1,3.2.2021,164.9838316
264,"['med', 3, 'low']",3,black,0.264827872,45,right,up,med,low,black_low_135-white_low_45-black_low_45-white_low_135,black_med_45_up,white_med_135_up,8,1.901736678,1908.441156,1908.689699,0.2485426,left,0.420776,0,8,16,1,1,1,1,TRUE,FALSE,med_3_mask_low,0.75,-1,3,TRUE,7,,,,,,,,,,,,,,,,,,,165,1,3.2.2021,164.9838316
265,"['low', 2, 'high']",2,white,0.560286224,45,left,down,low,high,white_high_135-white_high_135-black_high_135-black_high_45,white_low_45_down,black_low_135_down,8,1.75177018,1911.581665,1911.830221,0.2485561,left,0.1397633,1,8,15,1,1,1,1,TRUE,FALSE,low_2_mask_high,0.75,-1,3,FALSE,10,,,,,,,,,,,,,,,,,,,165,1,3.2.2021,164.9838316
266,"['low', 3, 'high']",3,white,0.068519465,135,right,up,low,high,black_high_135-white_high_135-white_high_135-black_high_45,white_low_135_up,black_low_45_up,3,1.436759111,1914.060813,1914.309655,0.2488421,right,0.1431005,1,3,16,1,1,1,1,TRUE,FALSE,low_3_mask_high,0.75,-1,3,FALSE,5,,,,,,,,,,,,,,,,,,,165,1,3.2.2021,164.9838316
267,"['med', 2, 'high']",2,black,0.914137084,135,left,down,med,high,white_high_135-black_high_135-black_high_45-white_high_135,black_med_135_down,white_med_45_down,18,1.953319481,1917.372559,1917.619311,0.246752,left,0.2174752,1,18,14,1,0,1,1,TRUE,FALSE,med_2_mask_high,0.75,-1,3,FALSE,4,,,,,,,,,,,,,,,,,,,165,1,3.2.2021,164.9838316
268,"['low', 2, 'high']",2,black,0.679709147,135,left,down,low,high,black_high_135-black_high_45-white_high_135-white_high_135,black_low_135_down,white_low_45_down,7,1.213266011,1919.753211,1920.001753,0.248542,right,0.3448621,0,7,16,1,1,1,1,TRUE,FALSE,low_2_mask_high,0.75,-1,3,TRUE,11,,,,,,,,,,,,,,,,,,,165,1,3.2.2021,164.9838316
269,"['med', 2, 'low']",2,black,0.0149001,45,right,up,med,low,black_low_45-white_low_45-black_low_135-white_low_135,black_med_45_up,white_med_135_up,1,1.413118863,1922.317523,1922.566069,0.2485468,left,0.1835926,0,1,7,1,0,1,1,TRUE,FALSE,med_2_mask_low,0.75,-1,3,TRUE,1,,,,,,,,,,,,,,,,,,,165,1,3.2.2021,164.9838316
270,"['med', 1, 'high']",1,black,0.510965785,135,left,down,med,high,black_high_135-white_high_135-white_high_135-black_high_45,black_med_135_down,white_med_45_down,19,1.457627994,1924.962736,1925.209463,0.2467271,left,0.6794321,1,19,13,0,0,1,1,TRUE,FALSE,med_1_mask_high,0.75,-1,3,TRUE,5,,,,,,,,,,,,,,,,,,,165,1,3.2.2021,164.9838316
271,"['low', 3, 'high']",3,black,0.89548347,45,right,down,low,high,white_high_135-black_high_45-black_high_135-white_high_135,black_low_45_down,white_low_135_down,2,1.623473337,1928.12511,1928.373659,0.2485491,right,0.5512593,1,2,17,1,1,1,1,TRUE,FALSE,low_3_mask_high,0.75,-1,3,FALSE,5,,,,,,,,,,,,,,,,,,,165,1,3.2.2021,164.9838316
272,"['low', 3, 'low']",3,white,0.225630457,135,right,down,low,low,white_low_45-white_low_135-black_low_135-black_low_45,white_low_135_down,black_low_45_down,1,1.007113332,1930.507544,1930.756088,0.2485437,right,0.1018826,1,1,13,1,0,1,1,TRUE,FALSE,low_3_mask_low,0.75,-1,3,FALSE,3,,,,,,,,,,,,,,,,,,,165,1,3.2.2021,164.9838316
273,"['high', 2, 'low']",2,black,0.756894409,135,left,down,high,low,black_low_135-white_low_135-white_low_45-black_low_45,black_high_135_down,white_high_45_down,6,1.903357719,1933.443439,1933.690193,0.2467547,right,0.4216757,0,6,10,1,0,1,1,TRUE,FALSE,high_2_mask_low,0.75,-1,3,TRUE,5,,,,,,,,,,,,,,,,,,,165,1,3.2.2021,164.9838316
274,"['low', 1, 'low']",1,white,0.34672041,45,left,down,low,low,black_low_135-black_low_45-white_low_45-white_low_135,white_low_45_down,black_low_135_down,19,1.322953558,1936.181769,1936.430305,0.2485356,left,0.145642,1,19,17,1,1,1,1,TRUE,FALSE,low_1_mask_low,0.75,-1,3,FALSE,6,,,,,,,,,,,,,,,,,,,165,1,3.2.2021,164.9838316
275,"['high', 3, 'high']",3,white,0.616181755,45,left,down,high,high,white_high_135-white_high_135-black_high_135-black_high_45,white_high_45_down,black_high_135_down,13,1.145248127,1938.734259,1938.982798,0.2485388,left,0.1602889,1,13,15,1,0,1,1,TRUE,FALSE,high_3_mask_high,0.75,-1,3,FALSE,3,,,,,,,,,,,,,,,,,,,165,1,3.2.2021,164.9838316
276,"['med', 2, 'low']",2,white,0.222692542,135,right,up,med,low,white_low_45-white_low_135-black_low_135-black_low_45,white_med_135_up,black_med_45_up,4,1.846987067,1941.615581,1941.862314,0.2467336,left,0.0962019,0,4,8,0,0,1,1,TRUE,FALSE,med_2_mask_low,0.75,-1,3,FALSE,1,,,,,,,,,,,,,,,,,,,165,1,3.2.2021,164.9838316
277,"['low', 3, 'low']",3,black,0.658069768,135,left,up,low,low,white_low_135-white_low_45-black_low_45-black_low_135,black_low_135_up,white_low_45_up,1,1.890914491,1944.426355,1944.67666,0.250305,left,0.0952972,1,1,14,1,0,1,1,TRUE,FALSE,low_3_mask_low,0.75,-1,3,FALSE,3,,,,,,,,,,,,,,,,,,,165,1,3.2.2021,164.9838316
278,"['low', 1, 'low']",1,black,0.824209698,135,left,up,low,low,white_low_135-black_low_45-black_low_135-white_low_45,black_low_135_up,white_low_45_up,18,1.130742638,1946.639052,1946.887602,0.2485496,left,0.2961646,1,18,18,1,1,1,1,TRUE,FALSE,low_1_mask_low,0.75,-1,3,FALSE,6,,,,,,,,,,,,,,,,,,,165,1,3.2.2021,164.9838316
279,"['high', 3, 'high']",3,white,0.117148486,45,left,down,high,high,black_high_135-white_high_135-black_high_45-white_high_135,white_high_45_down,black_high_135_down,12,1.320553679,1949.477929,1949.724703,0.2467732,left,0.1418147,1,12,16,1,0,1,1,TRUE,FALSE,high_3_mask_high,0.75,-1,3,FALSE,3,,,,,,,,,,,,,,,,,,,165,1,3.2.2021,164.9838316
280,"['high', 3, 'high']",3,black,0.917447507,45,right,down,high,high,white_high_135-black_high_45-white_high_135-black_high_135,black_high_45_down,white_high_135_down,11,1.056689839,1951.864677,1952.114966,0.2502895,right,0.2094808,1,11,17,1,0,1,1,TRUE,FALSE,high_3_mask_high,0.75,-1,3,FALSE,3,,,,,,,,,,,,,,,,,,,165,1,3.2.2021,164.9838316
281,"['low', 3, 'high']",3,white,0.869242414,135,right,down,low,high,black_high_135-black_high_45-white_high_135-white_high_135,white_low_135_down,black_low_45_down,1,1.720676294,1954.616908,1954.86546,0.2485517,left,0.1621308,0,1,18,1,1,1,1,TRUE,FALSE,low_3_mask_high,0.75,-1,3,TRUE,6,,,,,,,,,,,,,,,,,,,165,1,3.2.2021,164.9838316
282,"['med', 3, 'low']",3,black,0.296617592,135,left,down,med,low,black_low_135-white_low_45-black_low_45-white_low_135,black_med_135_down,white_med_45_down,11,1.437673521,1957.413347,1957.66011,0.2467631,left,0.1408776,1,11,17,0,1,1,1,TRUE,FALSE,med_3_mask_low,0.75,-1,3,TRUE,8,,,,,,,,,,,,,,,,,,,165,1,3.2.2021,164.9838316
283,"['low', 3, 'low']",3,black,0.347862496,45,right,down,low,low,white_low_45-black_low_45-black_low_135-white_low_135,black_low_45_down,white_low_135_down,1,1.620581088,1960.00013,1960.248673,0.2485434,left,0.1940403,0,1,15,1,0,1,1,TRUE,FALSE,low_3_mask_low,0.75,-1,3,TRUE,4,,,,,,,,,,,,,,,,,,,165,1,3.2.2021,164.9838316
284,"['high', 2, 'low']",2,white,0.936258145,135,right,up,high,low,black_low_135-black_low_45-white_low_45-white_low_135,white_high_135_up,black_high_45_up,9,1.121842523,1962.309829,1962.558371,0.2485425,left,0.2555649,0,9,11,0,1,1,1,TRUE,FALSE,high_2_mask_low,0.75,-1,3,FALSE,5,,,,,,,,,,,,,,,,,,,165,1,3.2.2021,164.9838316
285,"['med', 3, 'high']",3,white,0.947534618,135,right,up,med,high,white_high_135-black_high_135-white_high_135-black_high_45,white_med_135_up,black_med_45_up,10,1.770260492,1965.492782,1965.741334,0.2485518,right,0.5321384,1,10,14,1,0,1,1,TRUE,FALSE,med_3_mask_high,0.75,-1,3,FALSE,3,,,,,,,,,,,,,,,,,,,165,1,3.2.2021,164.9838316
286,"['low', 3, 'low']",3,black,0.841059209,135,left,down,low,low,black_low_45-white_low_135-white_low_45-black_low_135,black_low_135_down,white_low_45_down,4,1.698298598,1968.658717,1968.905492,0.246775,left,0.035797,1,4,16,0,0,1,1,TRUE,FALSE,low_3_mask_low,0.75,-1,3,TRUE,5,,,,,,,,,,,,,,,,,,,165,1,3.2.2021,164.9838316
287,"['high', 3, 'high']",3,black,0.092373596,45,right,up,high,high,white_high_135-black_high_135-black_high_45-white_high_135,black_high_45_up,white_high_135_up,10,1.914770133,1971.760788,1972.009633,0.2488454,right,0.0370073,1,10,18,1,0,1,1,TRUE,FALSE,high_3_mask_high,0.75,-1,3,FALSE,3,,,,,,,,,,,,,,,,,,,165,1,3.2.2021,164.9838316
288,"['high', 1, 'low']",1,black,0.154302118,135,left,up,high,low,white_low_45-black_low_135-white_low_135-black_low_45,black_high_135_up,white_high_45_up,19,1.296652532,1974.088678,1974.337225,0.2485471,right,0.2150673,0,19,13,1,1,1,1,TRUE,FALSE,high_1_mask_low,0.75,-1,3,TRUE,9,,,,,,,,,,,,,,,,,,,165,1,3.2.2021,164.9838316
289,"['med', 3, 'high']",3,white,0.665445926,135,right,up,med,high,black_high_45-white_high_135-white_high_135-black_high_135,white_med_135_up,black_med_45_up,9,1.872399253,1977.295868,1977.544418,0.2485495,left,0.1724385,0,9,15,1,0,1,1,TRUE,FALSE,med_3_mask_high,0.75,-1,3,TRUE,4,,,,,,,,,,,,,,,,,,,165,1,3.2.2021,164.9838316
290,"['low', 2, 'low']",2,black,0.22904263,135,left,up,low,low,white_low_45-black_low_45-black_low_135-white_low_135,black_low_135_up,white_low_45_up,4,1.752340783,1980.096307,1980.344851,0.2485438,left,0.1286925,1,4,15,1,1,1,1,TRUE,FALSE,low_2_mask_low,0.75,-1,3,FALSE,5,,,,,,,,,,,,,,,,,,,165,1,3.2.2021,164.9838316
291,"['med', 3, 'high']",3,black,0.834263313,135,left,down,med,high,white_high_135-black_high_135-black_high_45-white_high_135,black_med_135_down,white_med_45_down,12,1.314254924,1982.768284,1983.016833,0.2485491,left,0.1218948,1,12,16,0,0,1,1,TRUE,FALSE,med_3_mask_high,0.75,-1,3,TRUE,5,,,,,,,,,,,,,,,,,,,165,1,3.2.2021,164.9838316
292,"['low', 3, 'high']",3,black,0.341115555,45,right,down,low,high,white_high_135-black_high_135-black_high_45-white_high_135,black_low_45_down,white_low_135_down,4,1.555818815,1985.376501,1985.62504,0.248539,left,0.2117731,0,4,19,0,1,1,1,TRUE,FALSE,low_3_mask_high,0.75,-1,3,FALSE,6,,,,,,,,,,,,,,,,,,,165,1,3.2.2021,164.9838316
293,"['low', 2, 'high']",2,white,0.027729508,135,right,down,low,high,black_high_135-white_high_135-white_high_135-black_high_45,white_low_135_down,black_low_45_down,10,1.822654702,1988.431833,1988.680684,0.2488504,right,0.0782044,1,10,17,0,1,1,1,TRUE,FALSE,low_2_mask_high,0.75,-1,3,TRUE,12,,,,,,,,,,,,,,,,,,,165,1,3.2.2021,164.9838316
294,"['med', 3, 'high']",3,white,0.409586675,135,right,down,med,high,white_high_135-black_high_45-black_high_135-white_high_135,white_med_135_down,black_med_45_down,11,1.029806227,1990.72333,1990.971876,0.2485462,right,0.127184,1,11,17,1,1,1,1,TRUE,FALSE,med_3_mask_high,0.75,-1,3,FALSE,5,,,,,,,,,,,,,,,,,,,165,1,3.2.2021,164.9838316
295,"['low', 2, 'low']",2,black,0.404826888,45,right,up,low,low,black_low_135-black_low_45-white_low_45-white_low_135,black_low_45_up,white_low_135_up,3,1.624762295,1993.330085,1993.578925,0.2488398,left,0.2263249,0,3,16,1,1,1,1,TRUE,FALSE,low_2_mask_low,0.75,-1,3,TRUE,6,,,,,,,,,,,,,,,,,,,165,1,3.2.2021,164.9838316
296,"['high', 2, 'low']",2,white,0.258506796,45,left,down,high,low,black_low_135-white_low_45-black_low_45-white_low_135,white_high_45_down,black_high_135_down,12,1.226822858,1995.851955,1996.100798,0.2488427,right,0.2832869,0,12,12,0,1,1,1,TRUE,FALSE,high_2_mask_low,0.75,-1,3,FALSE,5,,,,,,,,,,,,,,,,,,,165,1,3.2.2021,164.9838316
297,"['med', 1, 'high']",1,black,0.408386521,135,left,up,med,high,black_high_135-white_high_135-white_high_135-black_high_45,black_med_135_up,white_med_45_up,18,1.315593509,1998.428693,1998.677246,0.2485531,right,0.2954501,0,18,14,1,1,1,1,TRUE,FALSE,med_1_mask_high,0.75,-1,3,TRUE,6,,,,,,,,,,,,,,,,,,,165,1,3.2.2021,164.9838316
298,"['high', 2, 'high']",2,black,0.060544874,135,left,up,high,high,black_high_45-black_high_135-white_high_135-white_high_135,black_high_135_up,white_high_45_up,29,1.553243885,2001.762604,2002.011147,0.2485435,left,0.1892223,1,29,15,1,1,1,1,TRUE,FALSE,high_2_mask_high,0.75,-1,3,FALSE,9,,,,,,,,,,,,,,,,,,,165,1,3.2.2021,164.9838316
299,"['high', 1, 'high']",1,black,0.383566131,45,right,up,high,high,white_high_135-black_high_135-white_high_135-black_high_45,black_high_45_up,white_high_135_up,19,1.766089617,2004.716696,2004.963427,0.2467315,left,0.1757715,0,19,21,1,1,1,1,TRUE,FALSE,high_1_mask_high,0.75,-1,3,TRUE,9,,,,,,,,,,,,,,,,,,,165,1,3.2.2021,164.9838316
300,"['high', 3, 'high']",3,white,0.628208206,45,left,down,high,high,black_high_45-white_high_135-white_high_135-black_high_135,white_high_45_down,black_high_135_down,9,1.073554833,2007.086997,2007.333742,0.2467451,left,0.1297212,1,9,19,1,0,1,1,TRUE,FALSE,high_3_mask_high,0.75,-1,3,FALSE,3,,,,,,,,,,,,,,,,,,,165,1,3.2.2021,164.9838316
