trial_number,trial_type,cycle_number,first_color,phase,first_orientation,correct_response,visual_field,spatial_frequency,mask_type,mask_images,first_stim,second_stim,stimulus_frame_duration,fixation_duration,mask_duration,answer,rt,accuracy,staircase_dv,staircase_trial_num,staircase_previous_correct,staircase_phase,staircase_step_size,staircase_powers_law,staircase_siam,staircase_over,staircase_name,staircase_conv_p,staircase_step_hit,staircase_step_miss,staircase_reversal,staircase_reversal_num,threshold_low1_mask_low,threshold_low2_mask_low,threshold_low3_mask_low,threshold_high1_mask_low,threshold_high2_mask_low,threshold_high3_mask_low,threshold_low1_mask_high,threshold_low2_mask_high,threshold_low3_mask_high,threshold_high1_mask_high,threshold_high2_mask_high,threshold_high3_mask_high,threshold_med1_mask_low,threshold_med2_mask_low,threshold_med3_mask_low,threshold_med1_mask_high,threshold_med2_mask_high,threshold_med3_mask_high,frame_rate,participant,psychopyVersion,frame_rate_detected
0,"['med', 1, 'low']",1,white,0.733226751,45,left,up,med,low,black_low_135-white_low_45-white_low_135-black_low_45,white_med_45_up,black_med_135_up,12,1.505198307,0.250018,left,0.206062,1,12,0,None,0,1,1,TRUE,FALSE,med_1_mask_low,0.75,-1,3,FALSE,0,,,,,,,,,,,,,,,,,,,165,6,3.2.2021,164.9574327
1,"['high', 3, 'low']",3,white,0.296272118,45,left,down,high,low,black_low_135-black_low_45-white_low_45-white_low_135,white_high_45_down,black_high_135_down,8,1.028249973,0.2485222,left,0.6129791,1,8,0,None,0,1,1,TRUE,FALSE,high_3_mask_low,0.75,-1,3,FALSE,0,,,,,,,,,,,,,,,,,,,165,6,3.2.2021,164.9574327
2,"['med', 2, 'high']",2,black,0.319955726,135,left,down,med,high,black_high_135-white_high_135-black_high_45-white_high_135,black_med_135_down,white_med_45_down,8,1.38476571,0.2485428,right,0.1137304,0,8,0,None,0,1,1,TRUE,FALSE,med_2_mask_high,0.75,-1,3,FALSE,0,,,,,,,,,,,,,,,,,,,165,6,3.2.2021,164.9574327
3,"['high', 1, 'low']",1,black,0.071481088,135,left,up,high,low,white_low_135-black_low_45-white_low_45-black_low_135,black_high_135_up,white_high_45_up,12,1.350625041,0.2485486,right,0.1976763,0,12,0,None,0,1,1,TRUE,FALSE,high_1_mask_low,0.75,-1,3,FALSE,0,,,,,,,,,,,,,,,,,,,165,6,3.2.2021,164.9574327
4,"['high', 2, 'high']",2,white,0.163119598,45,left,down,high,high,white_high_135-black_high_135-black_high_45-white_high_135,white_high_45_down,black_high_135_down,8,1.571262169,0.2485522,left,0.4662636,1,8,0,None,0,1,1,TRUE,FALSE,high_2_mask_high,0.75,-1,3,FALSE,0,,,,,,,,,,,,,,,,,,,165,6,3.2.2021,164.9574327
5,"['low', 1, 'low']",1,black,0.175579607,45,right,down,low,low,black_low_45-white_low_135-black_low_135-white_low_45,black_low_45_down,white_low_135_down,8,1.834889755,0.2467361,right,1.3047758,1,8,0,None,0,1,1,TRUE,FALSE,low_1_mask_low,0.75,-1,3,FALSE,0,,,,,,,,,,,,,,,,,,,165,6,3.2.2021,164.9574327
6,"['low', 3, 'high']",3,white,0.297051181,45,left,up,low,high,black_high_45-white_high_135-black_high_135-white_high_135,white_low_45_up,black_low_135_up,3,1.286549245,0.2467655,right,0.2575228,0,3,0,None,0,1,1,TRUE,FALSE,low_3_mask_high,0.75,-1,3,FALSE,0,,,,,,,,,,,,,,,,,,,165,6,3.2.2021,164.9574327
7,"['low', 1, 'high']",1,white,0.091394223,45,left,up,low,high,black_high_45-white_high_135-black_high_135-white_high_135,white_low_45_up,black_low_135_up,8,1.196495443,0.248552,left,0.1329372,1,8,0,None,0,1,1,TRUE,FALSE,low_1_mask_high,0.75,-1,3,FALSE,0,,,,,,,,,,,,,,,,,,,165,6,3.2.2021,164.9574327
8,"['high', 3, 'high']",3,white,0.706649525,135,right,up,high,high,black_high_45-white_high_135-white_high_135-black_high_135,white_high_135_up,black_high_45_up,8,1.357507834,0.2503018,right,0.8828034,1,8,0,None,0,1,1,TRUE,FALSE,high_3_mask_high,0.75,-1,3,FALSE,0,,,,,,,,,,,,,,,,,,,165,6,3.2.2021,164.9574327
9,"['low', 1, 'low']",1,black,0.574540406,45,right,up,low,low,black_low_135-white_low_45-black_low_45-white_low_135,black_low_45_up,white_low_135_up,7,1.613425336,0.2485495,right,0.2700312,1,7,1,1,0,1,1,TRUE,FALSE,low_1_mask_low,0.75,-1,3,FALSE,0,,,,,,,,,,,,,,,,,,,165,6,3.2.2021,164.9574327
10,"['high', 2, 'high']",2,black,0.3763935,135,left,up,high,high,white_high_135-black_high_45-white_high_135-black_high_135,black_high_135_up,white_high_45_up,7,1.907507071,0.2485433,left,0.1252367,1,7,1,1,0,1,1,TRUE,FALSE,high_2_mask_high,0.75,-1,3,FALSE,0,,,,,,,,,,,,,,,,,,,165,6,3.2.2021,164.9574327
11,"['high', 1, 'low']",1,black,0.953905602,45,right,down,high,low,black_low_135-white_low_135-black_low_45-white_low_45,black_high_45_down,white_high_135_down,15,1.247614641,0.2485523,left,0.514213,0,15,1,0,0,1,1,TRUE,FALSE,high_1_mask_low,0.75,-1,3,FALSE,0,,,,,,,,,,,,,,,,,,,165,6,3.2.2021,164.9574327
12,"['low', 2, 'high']",2,white,0.81487045,135,right,up,low,high,black_high_135-black_high_45-white_high_135-white_high_135,white_low_135_up,black_low_45_up,3,1.892995857,0.2485642,right,0.2637782,1,3,0,None,0,1,1,TRUE,FALSE,low_2_mask_high,0.75,-1,3,FALSE,0,,,,,,,,,,,,,,,,,,,165,6,3.2.2021,164.9574327
13,"['high', 3, 'low']",3,white,0.797745611,135,right,up,high,low,black_low_45-black_low_135-white_low_45-white_low_135,white_high_135_up,black_high_45_up,7,1.574780861,0.2467427,left,0.1122229,0,7,1,1,0,1,1,TRUE,FALSE,high_3_mask_low,0.75,-1,3,TRUE,1,,,,,,,,,,,,,,,,,,,165,6,3.2.2021,164.9574327
14,"['low', 1, 'low']",1,white,0.911039948,135,right,up,low,low,black_low_135-white_low_135-black_low_45-white_low_45,white_low_135_up,black_low_45_up,6,1.217261044,0.2467701,left,0.6931067,0,6,2,1,0,1,1,TRUE,FALSE,low_1_mask_low,0.75,-1,3,TRUE,1,,,,,,,,,,,,,,,,,,,165,6,3.2.2021,164.9574327
15,"['med', 3, 'high']",3,white,0.847614337,135,right,up,med,high,white_high_135-black_high_135-white_high_135-black_high_45,white_med_135_up,black_med_45_up,8,1.521322392,0.2488486,right,0.1329126,1,8,0,None,0,1,1,TRUE,FALSE,med_3_mask_high,0.75,-1,3,FALSE,0,,,,,,,,,,,,,,,,,,,165,6,3.2.2021,164.9574327
16,"['high', 2, 'high']",2,white,0.937519165,45,left,up,high,high,white_high_135-black_high_45-white_high_135-black_high_135,white_high_45_up,black_high_135_up,6,1.512478818,0.2467042,right,0.7360312,0,6,2,1,0,1,1,TRUE,FALSE,high_2_mask_high,0.75,-1,3,TRUE,1,,,,,,,,,,,,,,,,,,,165,6,3.2.2021,164.9574327
17,"['med', 1, 'high']",1,white,0.132964218,135,right,down,med,high,black_high_45-white_high_135-white_high_135-black_high_135,white_med_135_down,black_med_45_down,12,1.05224433,0.2484942,left,0.1057334,0,12,0,None,0,1,1,TRUE,FALSE,med_1_mask_high,0.75,-1,3,FALSE,0,,,,,,,,,,,,,,,,,,,165,6,3.2.2021,164.9574327
18,"['med', 1, 'high']",1,black,0.900341777,135,left,up,med,high,white_high_135-white_high_135-black_high_135-black_high_45,black_med_135_up,white_med_45_up,15,1.111213816,0.2485385,right,0.1732448,0,15,1,0,0,1,1,TRUE,FALSE,med_1_mask_high,0.75,-1,3,FALSE,0,,,,,,,,,,,,,,,,,,,165,6,3.2.2021,164.9574327
19,"['med', 1, 'low']",1,black,0.026140007,45,right,down,med,low,black_low_135-black_low_45-white_low_135-white_low_45,black_med_45_down,white_med_135_down,11,1.623107349,0.2503264,left,1.3512836,0,11,1,1,0,1,1,TRUE,FALSE,med_1_mask_low,0.75,-1,3,TRUE,1,,,,,,,,,,,,,,,,,,,165,6,3.2.2021,164.9574327
20,"['low', 3, 'low']",3,black,0.433667128,45,right,down,low,low,black_low_135-white_low_135-black_low_45-white_low_45,black_low_45_down,white_low_135_down,3,1.603713286,0.2488488,right,0.7774842,1,3,0,None,0,1,1,TRUE,FALSE,low_3_mask_low,0.75,-1,3,FALSE,0,,,,,,,,,,,,,,,,,,,165,6,3.2.2021,164.9574327
21,"['high', 3, 'low']",3,white,0.311625991,135,right,down,high,low,black_low_45-white_low_45-white_low_135-black_low_135,white_high_135_down,black_high_45_down,10,1.342995324,0.2501095,left,0.1952617,0,10,2,0,0,1,1,TRUE,FALSE,high_3_mask_low,0.75,-1,3,FALSE,1,,,,,,,,,,,,,,,,,,,165,6,3.2.2021,164.9574327
22,"['med', 3, 'high']",3,black,0.821760706,135,left,up,med,high,black_high_45-white_high_135-black_high_135-white_high_135,black_med_135_up,white_med_45_up,7,1.266939516,0.2485439,right,1.5069342,0,7,1,1,0,1,1,TRUE,FALSE,med_3_mask_high,0.75,-1,3,TRUE,1,,,,,,,,,,,,,,,,,,,165,6,3.2.2021,164.9574327
23,"['med', 3, 'low']",3,white,0.150229235,45,left,up,med,low,black_low_45-white_low_135-white_low_45-black_low_135,white_med_45_up,black_med_135_up,8,1.656880483,0.2485523,right,0.2219571,0,8,0,None,0,1,1,TRUE,FALSE,med_3_mask_low,0.75,-1,3,FALSE,0,,,,,,,,,,,,,,,,,,,165,6,3.2.2021,164.9574327
24,"['med', 2, 'high']",2,white,0.773410034,45,left,up,med,high,black_high_135-black_high_45-white_high_135-white_high_135,white_med_45_up,black_med_135_up,11,1.182538857,0.2486438,left,0.6151004,1,11,1,0,0,1,1,TRUE,FALSE,med_2_mask_high,0.75,-1,3,TRUE,1,,,,,,,,,,,,,,,,,,,165,6,3.2.2021,164.9574327
25,"['high', 2, 'high']",2,black,0.224839855,45,right,down,high,high,black_high_45-white_high_135-white_high_135-black_high_135,black_high_45_down,white_high_135_down,9,1.686233991,0.2485476,right,0.2253084,1,9,3,0,0,1,1,TRUE,FALSE,high_2_mask_high,0.75,-1,3,TRUE,2,,,,,,,,,,,,,,,,,,,165,6,3.2.2021,164.9574327
26,"['med', 3, 'low']",3,black,0.181777918,135,left,down,med,low,black_low_135-white_low_135-white_low_45-black_low_45,black_med_135_down,white_med_45_down,11,1.566702233,0.2485528,left,1.6235955,1,11,1,0,0,1,1,TRUE,FALSE,med_3_mask_low,0.75,-1,3,TRUE,1,,,,,,,,,,,,,,,,,,,165,6,3.2.2021,164.9574327
27,"['high', 1, 'high']",1,white,0.017551216,135,right,down,high,high,black_high_45-black_high_135-white_high_135-white_high_135,white_high_135_down,black_high_45_down,12,1.575158451,0.2503168,right,0.4902343,1,12,0,None,0,1,1,TRUE,FALSE,high_1_mask_high,0.75,-1,3,FALSE,0,,,,,,,,,,,,,,,,,,,165,6,3.2.2021,164.9574327
28,"['low', 1, 'low']",1,white,0.771256745,135,right,up,low,low,white_low_135-white_low_45-black_low_135-black_low_45,white_low_135_up,black_low_45_up,9,1.557699704,0.2485366,left,0.2454356,0,9,3,0,0,1,1,TRUE,FALSE,low_1_mask_low,0.75,-1,3,FALSE,1,,,,,,,,,,,,,,,,,,,165,6,3.2.2021,164.9574327
29,"['high', 2, 'low']",2,black,0.781228987,45,right,down,high,low,black_low_45-white_low_135-white_low_45-black_low_135,black_high_45_down,white_high_135_down,8,1.762655254,0.248543,right,0.4411434,1,8,0,None,0,1,1,TRUE,FALSE,high_2_mask_low,0.75,-1,3,FALSE,0,,,,,,,,,,,,,,,,,,,165,6,3.2.2021,164.9574327
30,"['med', 3, 'low']",3,white,0.58882121,45,left,up,med,low,black_low_45-white_low_45-white_low_135-black_low_135,white_med_45_up,black_med_135_up,10,1.71158921,0.2485505,left,0.2300934,1,10,2,1,0,1,1,TRUE,FALSE,med_3_mask_low,0.75,-1,3,FALSE,1,,,,,,,,,,,,,,,,,,,165,6,3.2.2021,164.9574327
31,"['high', 1, 'high']",1,black,0.373698182,135,left,down,high,high,black_high_135-white_high_135-black_high_45-white_high_135,black_high_135_down,white_high_45_down,11,1.966872301,0.2485459,right,0.3260987,0,11,1,1,0,1,1,TRUE,FALSE,high_1_mask_high,0.75,-1,3,TRUE,1,,,,,,,,,,,,,,,,,,,165,6,3.2.2021,164.9574327
32,"['med', 3, 'low']",3,black,0.225899797,45,right,down,med,low,black_low_45-white_low_135-black_low_135-white_low_45,black_med_45_down,white_med_135_down,9,1.727947747,0.2485516,right,0.5563079,1,9,3,1,0,1,1,TRUE,FALSE,med_3_mask_low,0.75,-1,3,FALSE,1,,,,,,,,,,,,,,,,,,,165,6,3.2.2021,164.9574327
33,"['med', 2, 'low']",2,black,0.725585411,45,right,down,med,low,black_low_135-white_low_45-black_low_45-white_low_135,black_med_45_down,white_med_135_down,8,1.83336755,0.2485436,left,0.474849,0,8,0,None,0,1,1,TRUE,FALSE,med_2_mask_low,0.75,-1,3,FALSE,0,,,,,,,,,,,,,,,,,,,165,6,3.2.2021,164.9574327
34,"['low', 3, 'low']",3,white,0.766081087,45,left,down,low,low,black_low_135-white_low_135-white_low_45-black_low_45,white_low_45_down,black_low_135_down,2,1.738904421,0.2485492,right,0.2810389,0,2,1,1,0,1,1,TRUE,FALSE,low_3_mask_low,0.75,-1,3,TRUE,1,,,,,,,,,,,,,,,,,,,165,6,3.2.2021,164.9574327
35,"['med', 1, 'high']",1,black,0.255955916,135,left,down,med,high,white_high_135-black_high_45-black_high_135-white_high_135,black_med_135_down,white_med_45_down,18,1.935265994,0.2485465,right,0.3830161,0,18,2,0,0,1,1,TRUE,FALSE,med_1_mask_high,0.75,-1,3,FALSE,0,,,,,,,,,,,,,,,,,,,165,6,3.2.2021,164.9574327
36,"['low', 3, 'high']",3,white,0.926496979,135,right,down,low,high,black_high_45-white_high_135-white_high_135-black_high_135,white_low_135_down,black_low_45_down,6,1.132953789,0.2485479,right,0.6411106,1,6,1,0,0,1,1,TRUE,FALSE,low_3_mask_high,0.75,-1,3,TRUE,1,,,,,,,,,,,,,,,,,,,165,6,3.2.2021,164.9574327
37,"['high', 3, 'high']",3,white,0.63515544,135,right,up,high,high,black_high_45-white_high_135-black_high_135-white_high_135,white_high_135_up,black_high_45_up,7,1.078507742,0.2485585,left,0.4390578,0,7,1,1,0,1,1,TRUE,FALSE,high_3_mask_high,0.75,-1,3,TRUE,1,,,,,,,,,,,,,,,,,,,165,6,3.2.2021,164.9574327
38,"['high', 3, 'low']",3,black,0.752222343,45,right,down,high,low,black_low_45-white_low_135-white_low_45-black_low_135,black_high_45_down,white_high_135_down,13,1.397951034,0.2502893,right,1.8904282,1,13,3,0,0,1,1,TRUE,FALSE,high_3_mask_low,0.75,-1,3,TRUE,2,,,,,,,,,,,,,,,,,,,165,6,3.2.2021,164.9574327
39,"['med', 3, 'high']",3,black,0.290462114,45,right,up,med,high,white_high_135-black_high_135-white_high_135-black_high_45,black_med_45_up,white_med_135_up,10,1.885996278,0.2485639,right,1.2230796,1,10,2,0,0,1,1,TRUE,FALSE,med_3_mask_high,0.75,-1,3,TRUE,2,,,,,,,,,,,,,,,,,,,165,6,3.2.2021,164.9574327
40,"['high', 3, 'low']",3,black,0.926209781,135,left,up,high,low,white_low_45-white_low_135-black_low_135-black_low_45,black_high_135_up,white_high_45_up,12,1.068233961,0.2503144,left,0.1016405,1,12,4,1,0,1,1,TRUE,FALSE,high_3_mask_low,0.75,-1,3,FALSE,2,,,,,,,,,,,,,,,,,,,165,6,3.2.2021,164.9574327
41,"['med', 3, 'low']",3,black,0.976402803,135,left,down,med,low,black_low_135-white_low_45-white_low_135-black_low_45,black_med_135_down,white_med_45_down,8,1.178968537,0.2467603,left,1.428053,1,8,4,1,0,1,1,TRUE,FALSE,med_3_mask_low,0.75,-1,3,FALSE,1,,,,,,,,,,,,,,,,,,,165,6,3.2.2021,164.9574327
42,"['med', 3, 'high']",3,black,0.877545649,45,right,up,med,high,white_high_135-white_high_135-black_high_45-black_high_135,black_med_45_up,white_med_135_up,9,1.259847573,0.2485537,right,0.3725237,1,9,3,1,0,1,1,TRUE,FALSE,med_3_mask_high,0.75,-1,3,FALSE,2,,,,,,,,,,,,,,,,,,,165,6,3.2.2021,164.9574327
43,"['high', 2, 'low']",2,white,0.133186547,45,left,up,high,low,black_low_45-white_low_135-white_low_45-black_low_135,white_high_45_up,black_high_135_up,7,1.724523823,0.2485428,right,0.9933839,0,7,1,1,0,1,1,TRUE,FALSE,high_2_mask_low,0.75,-1,3,TRUE,1,,,,,,,,,,,,,,,,,,,165,6,3.2.2021,164.9574327
44,"['low', 3, 'low']",3,white,0.719257936,45,left,down,low,low,white_low_135-white_low_45-black_low_45-black_low_135,white_low_45_down,black_low_135_down,5,1.764081378,0.2469643,left,2.6801455,1,5,2,0,0,1,1,TRUE,FALSE,low_3_mask_low,0.75,-1,3,TRUE,2,,,,,,,,,,,,,,,,,,,165,6,3.2.2021,164.9574327
45,"['high', 1, 'high']",1,black,0.891182102,45,right,down,high,high,white_high_135-black_high_45-white_high_135-black_high_135,black_high_45_down,white_high_135_down,14,1.944225345,0.2485485,right,1.211339,1,14,2,0,0,1,1,TRUE,FALSE,high_1_mask_high,0.75,-1,3,TRUE,2,,,,,,,,,,,,,,,,,,,165,6,3.2.2021,164.9574327
46,"['low', 3, 'high']",3,white,0.436018896,135,right,up,low,high,white_high_135-black_high_135-black_high_45-white_high_135,white_low_135_up,black_low_45_up,5,1.185578981,0.2485572,right,0.6350695,1,5,2,1,0,1,1,TRUE,FALSE,low_3_mask_high,0.75,-1,3,FALSE,1,,,,,,,,,,,,,,,,,,,165,6,3.2.2021,164.9574327
47,"['low', 1, 'low']",1,black,0.994503713,135,left,up,low,low,white_low_135-black_low_135-white_low_45-black_low_45,black_low_135_up,white_low_45_up,12,1.144114641,0.2486366,right,0.7868871,0,12,4,0,0,1,1,TRUE,FALSE,low_1_mask_low,0.75,-1,3,FALSE,1,,,,,,,,,,,,,,,,,,,165,6,3.2.2021,164.9574327
48,"['high', 1, 'high']",1,black,0.450977234,45,right,down,high,high,white_high_135-black_high_45-black_high_135-white_high_135,black_high_45_down,white_high_135_down,13,1.234600607,0.2485486,left,1.7843403,0,13,3,1,0,1,1,TRUE,FALSE,high_1_mask_high,0.75,-1,3,TRUE,3,,,,,,,,,,,,,,,,,,,165,6,3.2.2021,164.9574327
49,"['med', 2, 'low']",2,white,0.169672707,135,right,up,med,low,black_low_45-black_low_135-white_low_135-white_low_45,white_med_135_up,black_med_45_up,11,1.815894687,0.2485049,left,1.6686975,0,11,1,0,0,1,1,TRUE,FALSE,med_2_mask_low,0.75,-1,3,FALSE,0,,,,,,,,,,,,,,,,,,,165,6,3.2.2021,164.9574327
50,"['med', 2, 'high']",2,white,0.638502595,135,right,down,med,high,white_high_135-black_high_45-white_high_135-black_high_135,white_med_135_down,black_med_45_down,10,1.216501505,0.2485467,left,0.5516867,0,10,2,1,0,1,1,TRUE,FALSE,med_2_mask_high,0.75,-1,3,TRUE,2,,,,,,,,,,,,,,,,,,,165,6,3.2.2021,164.9574327
51,"['high', 3, 'low']",3,white,0.541547998,45,left,up,high,low,black_low_45-white_low_45-black_low_135-white_low_135,white_high_45_up,black_high_135_up,11,1.67385493,0.2503383,left,0.8118956,1,11,5,1,0,1,1,TRUE,FALSE,high_3_mask_low,0.75,-1,3,FALSE,2,,,,,,,,,,,,,,,,,,,165,6,3.2.2021,164.9574327
52,"['low', 3, 'high']",3,black,0.797337433,135,left,up,low,high,white_high_135-black_high_45-white_high_135-black_high_135,black_low_135_up,white_low_45_up,4,1.503940048,0.2485445,left,0.7185197,1,4,3,1,0,1,1,TRUE,FALSE,low_3_mask_high,0.75,-1,3,FALSE,1,,,,,,,,,,,,,,,,,,,165,6,3.2.2021,164.9574327
53,"['high', 1, 'high']",1,black,0.279227813,135,left,down,high,high,white_high_135-white_high_135-black_high_135-black_high_45,black_high_135_down,white_high_45_down,16,1.784515062,0.2466661,left,0.3906814,1,16,4,0,0,1,1,TRUE,FALSE,high_1_mask_high,0.75,-1,3,TRUE,4,,,,,,,,,,,,,,,,,,,165,6,3.2.2021,164.9574327
54,"['high', 3, 'high']",3,white,0.575652178,135,right,up,high,high,black_high_135-white_high_135-white_high_135-black_high_45,white_high_135_up,black_high_45_up,10,1.07419146,0.2485446,right,0.8128255,1,10,2,0,0,1,1,TRUE,FALSE,high_3_mask_high,0.75,-1,3,TRUE,2,,,,,,,,,,,,,,,,,,,165,6,3.2.2021,164.9574327
55,"['high', 1, 'low']",1,black,0.93286167,135,left,up,high,low,black_low_45-white_low_135-black_low_135-white_low_45,black_high_135_up,white_high_45_up,18,1.542923106,0.2503186,left,1.082556,1,18,2,0,0,1,1,TRUE,FALSE,high_1_mask_low,0.75,-1,3,TRUE,1,,,,,,,,,,,,,,,,,,,165,6,3.2.2021,164.9574327
56,"['med', 2, 'low']",2,white,0.92998104,45,left,up,med,low,black_low_45-white_low_45-white_low_135-black_low_135,white_med_45_up,black_med_135_up,14,1.051985424,0.2485525,left,1.0803732,1,14,2,0,0,1,1,TRUE,FALSE,med_2_mask_low,0.75,-1,3,TRUE,1,,,,,,,,,,,,,,,,,,,165,6,3.2.2021,164.9574327
57,"['high', 1, 'low']",1,black,0.233297229,135,left,down,high,low,black_low_45-white_low_135-white_low_45-black_low_135,black_high_135_down,white_high_45_down,17,1.293048609,0.2485513,right,2.6198323,0,17,3,1,0,1,1,TRUE,FALSE,high_1_mask_low,0.75,-1,3,TRUE,2,,,,,,,,,,,,,,,,,,,165,6,3.2.2021,164.9574327
58,"['med', 1, 'low']",1,black,0.417829732,135,left,down,med,low,white_low_45-black_low_135-white_low_135-black_low_45,black_med_135_down,white_med_45_down,14,1.222804725,0.2485529,left,0.4216831,1,14,2,0,0,1,1,TRUE,FALSE,med_1_mask_low,0.75,-1,3,TRUE,2,,,,,,,,,,,,,,,,,,,165,6,3.2.2021,164.9574327
59,"['low', 1, 'low']",1,white,0.992780774,45,left,down,low,low,white_low_135-white_low_45-black_low_135-black_low_45,white_low_45_down,black_low_135_down,15,1.77718473,0.2503519,left,0.5085002,1,15,5,0,0,1,1,TRUE,FALSE,low_1_mask_low,0.75,-1,3,TRUE,2,,,,,,,,,,,,,,,,,,,165,6,3.2.2021,164.9574327
60,"['low', 2, 'high']",2,black,0.643922256,135,left,up,low,high,white_high_135-white_high_135-black_high_135-black_high_45,black_low_135_up,white_low_45_up,2,1.650544541,0.2485505,right,0.3319937,0,2,1,1,0,1,1,TRUE,FALSE,low_2_mask_high,0.75,-1,3,TRUE,1,,,,,,,,,,,,,,,,,,,165,6,3.2.2021,164.9574327
61,"['low', 2, 'high']",2,white,0.972023126,135,right,up,low,high,black_high_45-black_high_135-white_high_135-white_high_135,white_low_135_up,black_low_45_up,5,1.155969203,0.248544,left,1.2560674,0,5,2,0,0,1,1,TRUE,FALSE,low_2_mask_high,0.75,-1,3,FALSE,1,,,,,,,,,,,,,,,,,,,165,6,3.2.2021,164.9574327
62,"['high', 1, 'low']",1,black,0.869334424,45,right,up,high,low,black_low_45-white_low_135-black_low_135-white_low_45,black_high_45_up,white_high_135_up,20,1.591318062,0.2485519,right,1.1530286,1,20,4,0,0,1,1,TRUE,FALSE,high_1_mask_low,0.75,-1,3,TRUE,3,,,,,,,,,,,,,,,,,,,165,6,3.2.2021,164.9574327
63,"['high', 2, 'low']",2,black,0.610715466,135,left,up,high,low,black_low_45-white_low_135-white_low_45-black_low_135,black_high_135_up,white_high_45_up,10,1.171093027,0.2485469,right,0.1404814,0,10,2,0,0,1,1,TRUE,FALSE,high_2_mask_low,0.75,-1,3,FALSE,1,,,,,,,,,,,,,,,,,,,165,6,3.2.2021,164.9574327
64,"['med', 2, 'low']",2,white,0.85869593,45,left,down,med,low,white_low_45-black_low_45-black_low_135-white_low_135,white_med_45_down,black_med_135_down,13,1.268674266,0.2485409,right,1.5104414,0,13,3,1,0,1,1,TRUE,FALSE,med_2_mask_low,0.75,-1,3,TRUE,2,,,,,,,,,,,,,,,,,,,165,6,3.2.2021,164.9574327
65,"['low', 1, 'high']",1,white,0.276510276,45,left,down,low,high,black_high_135-black_high_45-white_high_135-white_high_135,white_low_45_down,black_low_135_down,7,1.475755157,0.2485474,right,0.2606294,0,7,1,1,0,1,1,TRUE,FALSE,low_1_mask_high,0.75,-1,3,TRUE,1,,,,,,,,,,,,,,,,,,,165,6,3.2.2021,164.9574327
66,"['med', 1, 'high']",1,black,0.450243563,45,right,down,med,high,black_high_45-white_high_135-white_high_135-black_high_135,black_med_45_down,white_med_135_down,21,1.245762024,0.2452784,right,0.4741617,1,21,3,0,0,1,1,TRUE,FALSE,med_1_mask_high,0.75,-1,3,TRUE,1,,,,,,,,,,,,,,,,,,,165,6,3.2.2021,164.9574327
67,"['low', 1, 'high']",1,black,0.808254523,135,left,up,low,high,white_high_135-white_high_135-black_high_135-black_high_45,black_low_135_up,white_low_45_up,10,1.12769674,0.2488683,left,0.9113842,1,10,2,0,0,1,1,TRUE,FALSE,low_1_mask_high,0.75,-1,3,TRUE,2,,,,,,,,,,,,,,,,,,,165,6,3.2.2021,164.9574327
68,"['high', 2, 'low']",2,black,0.769367618,45,right,up,high,low,black_low_135-white_low_45-white_low_135-black_low_45,black_high_45_up,white_high_135_up,13,1.209208219,0.2485497,right,1.0118083,1,13,3,0,0,1,1,TRUE,FALSE,high_2_mask_low,0.75,-1,3,TRUE,2,,,,,,,,,,,,,,,,,,,165,6,3.2.2021,164.9574327
69,"['low', 2, 'low']",2,black,0.132511599,45,right,up,low,low,white_low_135-black_low_135-black_low_45-white_low_45,black_low_45_up,white_low_135_up,3,1.125885733,0.2485473,right,1.0399372,1,3,0,None,0,1,1,TRUE,FALSE,low_2_mask_low,0.75,-1,3,FALSE,0,,,,,,,,,,,,,,,,,,,165,6,3.2.2021,164.9574327
70,"['low', 1, 'low']",1,white,0.467645852,45,left,down,low,low,black_low_45-white_low_135-black_low_135-white_low_45,white_low_45_down,black_low_135_down,14,1.289493142,0.2485457,right,2.2511182,0,14,6,1,0,1,1,TRUE,FALSE,low_1_mask_low,0.75,-1,3,TRUE,3,,,,,,,,,,,,,,,,,,,165,6,3.2.2021,164.9574327
71,"['med', 2, 'high']",2,black,0.510180501,45,right,up,med,high,white_high_135-black_high_45-black_high_135-white_high_135,black_med_45_up,white_med_135_up,13,1.020754622,0.2485514,right,0.2887123,1,13,3,0,0,1,1,TRUE,FALSE,med_2_mask_high,0.75,-1,3,TRUE,3,,,,,,,,,,,,,,,,,,,165,6,3.2.2021,164.9574327
72,"['low', 2, 'high']",2,black,0.254805646,135,left,up,low,high,black_high_45-white_high_135-white_high_135-black_high_135,black_low_135_up,white_low_45_up,8,1.067529223,0.2485465,right,0.1991991,0,8,3,0,0,1,1,TRUE,FALSE,low_2_mask_high,0.75,-1,3,FALSE,1,,,,,,,,,,,,,,,,,,,165,6,3.2.2021,164.9574327
73,"['low', 3, 'high']",3,white,0.73538774,135,right,up,low,high,white_high_135-black_high_45-white_high_135-black_high_135,white_low_135_up,black_low_45_up,3,1.854501007,0.246744,left,1.4571082,0,3,4,1,0,1,1,TRUE,FALSE,low_3_mask_high,0.75,-1,3,TRUE,2,,,,,,,,,,,,,,,,,,,165,6,3.2.2021,164.9574327
74,"['high', 1, 'low']",1,white,0.489231603,135,right,down,high,low,black_low_135-white_low_45-black_low_45-white_low_135,white_high_135_down,black_high_45_down,19,1.395798776,0.2503261,left,1.6480613,0,19,5,1,0,1,1,TRUE,FALSE,high_1_mask_low,0.75,-1,3,TRUE,4,,,,,,,,,,,,,,,,,,,165,6,3.2.2021,164.9574327
75,"['high', 3, 'low']",3,black,0.495850309,45,right,up,high,low,black_low_135-white_low_135-white_low_45-black_low_45,black_high_45_up,white_high_135_up,10,1.326403935,0.2485486,left,0.9266088,0,10,6,1,0,1,1,TRUE,FALSE,high_3_mask_low,0.75,-1,3,TRUE,3,,,,,,,,,,,,,,,,,,,165,6,3.2.2021,164.9574327
76,"['med', 1, 'high']",1,white,0.022301307,135,right,down,med,high,black_high_45-white_high_135-black_high_135-white_high_135,white_med_135_down,black_med_45_down,20,1.269525832,0.2485493,left,1.9308995,0,20,4,1,0,1,1,TRUE,FALSE,med_1_mask_high,0.75,-1,3,TRUE,2,,,,,,,,,,,,,,,,,,,165,6,3.2.2021,164.9574327
77,"['low', 1, 'high']",1,black,0.548083887,135,left,up,low,high,black_high_45-white_high_135-black_high_135-white_high_135,black_low_135_up,white_low_45_up,9,1.696280436,0.248545,right,0.9719889,0,9,3,1,0,1,1,TRUE,FALSE,low_1_mask_high,0.75,-1,3,TRUE,3,,,,,,,,,,,,,,,,,,,165,6,3.2.2021,164.9574327
78,"['high', 2, 'low']",2,white,0.492298455,135,right,down,high,low,black_low_45-white_low_45-white_low_135-black_low_135,white_high_135_down,black_high_45_down,12,1.355291101,0.2467538,left,0.7927345,0,12,4,1,0,1,1,TRUE,FALSE,high_2_mask_low,0.75,-1,3,TRUE,3,,,,,,,,,,,,,,,,,,,165,6,3.2.2021,164.9574327
79,"['med', 3, 'high']",3,white,0.502719304,45,left,up,med,high,black_high_45-black_high_135-white_high_135-white_high_135,white_med_45_up,black_med_135_up,8,1.854103586,0.2485594,left,0.9566389,1,8,4,1,0,1,1,TRUE,FALSE,med_3_mask_high,0.75,-1,3,FALSE,2,,,,,,,,,,,,,,,,,,,165,6,3.2.2021,164.9574327
80,"['high', 3, 'high']",3,black,0.486729086,135,left,down,high,high,white_high_135-black_high_135-white_high_135-black_high_45,black_high_135_down,white_high_45_down,9,1.050536478,0.2485392,left,1.1354102,1,9,3,1,0,1,1,TRUE,FALSE,high_3_mask_high,0.75,-1,3,FALSE,2,,,,,,,,,,,,,,,,,,,165,6,3.2.2021,164.9574327
81,"['high', 1, 'low']",1,black,0.931733259,45,right,down,high,low,black_low_45-white_low_135-black_low_135-white_low_45,black_high_45_down,white_high_135_down,22,1.954280856,0.2485505,left,1.5144871,0,22,6,0,0,1,1,TRUE,FALSE,high_1_mask_low,0.75,-1,3,FALSE,4,,,,,,,,,,,,,,,,,,,165,6,3.2.2021,164.9574327
82,"['med', 1, 'low']",1,white,0.132342928,45,left,up,med,low,black_low_45-white_low_45-white_low_135-black_low_135,white_med_45_up,black_med_135_up,13,1.688844642,0.2467531,right,1.9406399,0,13,3,1,0,1,1,TRUE,FALSE,med_1_mask_low,0.75,-1,3,TRUE,3,,,,,,,,,,,,,,,,,,,165,6,3.2.2021,164.9574327
83,"['low', 3, 'low']",3,black,0.15802852,45,right,down,low,low,white_low_45-black_low_45-white_low_135-black_low_135,black_low_45_down,white_low_135_down,4,1.304169051,0.2449727,left,1.2092068,0,4,3,1,0,1,1,TRUE,FALSE,low_3_mask_low,0.75,-1,3,TRUE,3,,,,,,,,,,,,,,,,,,,165,6,3.2.2021,164.9574327
84,"['low', 2, 'high']",2,white,0.103896591,45,left,down,low,high,white_high_135-white_high_135-black_high_45-black_high_135,white_low_45_down,black_low_135_down,11,1.250783999,0.2485459,left,0.054966,1,11,4,0,0,1,1,TRUE,FALSE,low_2_mask_high,0.75,-1,3,TRUE,2,,,,,,,,,,,,,,,,,,,165,6,3.2.2021,164.9574327
85,"['low', 2, 'low']",2,black,0.778849101,135,left,down,low,low,black_low_135-white_low_135-white_low_45-black_low_45,black_low_135_down,white_low_45_down,2,1.841248512,0.2485491,left,1.1745403,1,2,1,1,0,1,1,TRUE,FALSE,low_2_mask_low,0.75,-1,3,FALSE,0,,,,,,,,,,,,,,,,,,,165,6,3.2.2021,164.9574327
86,"['med', 3, 'low']",3,white,0.803133217,135,right,up,med,low,white_low_45-black_low_135-white_low_135-black_low_45,white_med_135_up,black_med_45_up,7,1.108845404,0.2502967,left,0.5500438,0,7,5,1,0,1,1,TRUE,FALSE,med_3_mask_low,0.75,-1,3,TRUE,2,,,,,,,,,,,,,,,,,,,165,6,3.2.2021,164.9574327
87,"['high', 1, 'low']",1,white,0.475215815,45,left,up,high,low,white_low_45-black_low_45-white_low_135-black_low_135,white_high_45_up,black_high_135_up,25,1.596884633,0.2485435,right,0.7350611,0,25,7,0,0,1,1,TRUE,FALSE,high_1_mask_low,0.75,-1,3,FALSE,4,,,,,,,,,,,,,,,,,,,165,6,3.2.2021,164.9574327
88,"['low', 1, 'low']",1,white,0.142520729,45,left,down,low,low,black_low_135-black_low_45-white_low_45-white_low_135,white_low_45_down,black_low_135_down,17,1.308258574,0.2467713,left,3.2862802,1,17,7,0,0,1,1,TRUE,FALSE,low_1_mask_low,0.75,-1,3,TRUE,4,,,,,,,,,,,,,,,,,,,165,6,3.2.2021,164.9574327
89,"['low', 3, 'high']",3,black,0.383213327,135,left,up,low,high,white_high_135-white_high_135-black_high_135-black_high_45,black_low_135_up,white_low_45_up,6,1.522982962,0.2485466,right,0.5480919,0,6,5,0,0,1,1,TRUE,FALSE,low_3_mask_high,0.75,-1,3,FALSE,2,,,,,,,,,,,,,,,,,,,165,6,3.2.2021,164.9574327
90,"['high', 3, 'high']",3,black,0.357158666,45,right,down,high,high,white_high_135-black_high_45-white_high_135-black_high_135,black_high_45_down,white_high_135_down,8,1.142823346,0.2503037,right,0.6180354,1,8,4,1,0,1,1,TRUE,FALSE,high_3_mask_high,0.75,-1,3,FALSE,2,,,,,,,,,,,,,,,,,,,165,6,3.2.2021,164.9574327
91,"['high', 1, 'high']",1,black,0.554102379,135,left,down,high,high,white_high_135-white_high_135-black_high_135-black_high_45,black_high_135_down,white_high_45_down,15,1.049889454,0.2485482,left,0.6436282,1,15,5,1,0,1,1,TRUE,FALSE,high_1_mask_high,0.75,-1,3,FALSE,4,,,,,,,,,,,,,,,,,,,165,6,3.2.2021,164.9574327
92,"['med', 1, 'high']",1,black,0.022227302,135,left,down,med,high,black_high_45-black_high_135-white_high_135-white_high_135,black_med_135_down,white_med_45_down,23,1.642604589,0.2467602,right,0.8441086,0,23,5,0,0,1,1,TRUE,FALSE,med_1_mask_high,0.75,-1,3,FALSE,2,,,,,,,,,,,,,,,,,,,165,6,3.2.2021,164.9574327
93,"['med', 2, 'low']",2,white,0.290525511,45,left,down,med,low,white_low_45-white_low_135-black_low_45-black_low_135,white_med_45_down,black_med_135_down,16,1.909293707,0.2485397,right,2.4877009,0,16,4,0,0,1,1,TRUE,FALSE,med_2_mask_low,0.75,-1,3,FALSE,2,,,,,,,,,,,,,,,,,,,165,6,3.2.2021,164.9574327
94,"['med', 3, 'low']",3,black,0.852838105,135,left,down,med,low,white_low_45-black_low_45-black_low_135-white_low_135,black_med_135_down,white_med_45_down,10,1.260699357,0.2500216,right,0.9619053,0,10,6,0,0,1,1,TRUE,FALSE,med_3_mask_low,0.75,-1,3,FALSE,2,,,,,,,,,,,,,,,,,,,165,6,3.2.2021,164.9574327
95,"['med', 1, 'low']",1,black,0.654995487,135,left,up,med,low,white_low_135-black_low_45-white_low_45-black_low_135,black_med_135_up,white_med_45_up,16,1.889780664,0.2485446,left,0.3458178,1,16,4,0,0,1,1,TRUE,FALSE,med_1_mask_low,0.75,-1,3,TRUE,4,,,,,,,,,,,,,,,,,,,165,6,3.2.2021,164.9574327
96,"['med', 3, 'low']",3,white,0.41654038,45,left,up,med,low,black_low_135-black_low_45-white_low_135-white_low_45,white_med_45_up,black_med_135_up,13,1.773991676,0.2485455,left,0.5225732,1,13,7,0,0,1,1,TRUE,FALSE,med_3_mask_low,0.75,-1,3,TRUE,3,,,,,,,,,,,,,,,,,,,165,6,3.2.2021,164.9574327
97,"['high', 1, 'high']",1,white,0.912280589,45,left,up,high,high,black_high_135-white_high_135-black_high_45-white_high_135,white_high_45_up,black_high_135_up,14,1.650413296,0.2485511,left,1.174833,1,14,6,1,0,1,1,TRUE,FALSE,high_1_mask_high,0.75,-1,3,FALSE,4,,,,,,,,,,,,,,,,,,,165,6,3.2.2021,164.9574327
98,"['high', 2, 'low']",2,white,0.699324484,135,right,down,high,low,black_low_45-white_low_135-black_low_135-white_low_45,white_high_135_down,black_high_45_down,15,1.203687508,0.248544,left,0.9549655,0,15,5,0,0,1,1,TRUE,FALSE,high_2_mask_low,0.75,-1,3,FALSE,3,,,,,,,,,,,,,,,,,,,165,6,3.2.2021,164.9574327
99,"['med', 3, 'high']",3,white,0.306544902,45,left,up,med,high,black_high_45-white_high_135-black_high_135-white_high_135,white_med_45_up,black_med_135_up,7,1.530655313,0.2485473,right,0.610056,0,7,5,1,0,1,1,TRUE,FALSE,med_3_mask_high,0.75,-1,3,TRUE,3,,,,,,,,,,,,,,,,,,,165,6,3.2.2021,164.9574327
100,"['low', 3, 'low']",3,black,0.344934271,45,right,down,low,low,white_low_135-white_low_45-black_low_45-black_low_135,black_low_45_down,white_low_135_down,7,1.119109826,0.2485518,right,1.339583,1,7,4,0,0,1,1,TRUE,FALSE,low_3_mask_low,0.75,-1,3,TRUE,4,,,,,,,,,,,,,,,,,,,165,6,3.2.2021,164.9574327
101,"['med', 2, 'low']",2,white,0.533758396,135,right,up,med,low,black_low_135-white_low_135-white_low_45-black_low_45,white_med_135_up,black_med_45_up,19,1.783140257,0.2485487,right,0.1146292,1,19,5,0,0,1,1,TRUE,FALSE,med_2_mask_low,0.75,-1,3,TRUE,3,,,,,,,,,,,,,,,,,,,165,6,3.2.2021,164.9574327
102,"['med', 3, 'low']",3,black,0.915936242,45,right,down,med,low,white_low_135-white_low_45-black_low_135-black_low_45,black_med_45_down,white_med_135_down,12,1.188215993,0.2502905,left,1.3186672,0,12,8,1,0,1,1,TRUE,FALSE,med_3_mask_low,0.75,-1,3,TRUE,4,,,,,,,,,,,,,,,,,,,165,6,3.2.2021,164.9574327
103,"['med', 2, 'low']",2,white,0.899281089,135,right,down,med,low,white_low_135-white_low_45-black_low_45-black_low_135,white_med_135_down,black_med_45_down,18,1.849566204,0.248553,right,3.4295874,1,18,6,1,0,1,1,TRUE,FALSE,med_2_mask_low,0.75,-1,3,FALSE,3,,,,,,,,,,,,,,,,,,,165,6,3.2.2021,164.9574327
104,"['med', 1, 'low']",1,black,0.089994317,135,left,up,med,low,black_low_45-white_low_135-white_low_45-black_low_135,black_med_135_up,white_med_45_up,15,1.193214576,0.2449491,left,0.2437495,1,15,5,1,0,1,1,TRUE,FALSE,med_1_mask_low,0.75,-1,3,FALSE,4,,,,,,,,,,,,,,,,,,,165,6,3.2.2021,164.9574327
105,"['low', 3, 'low']",3,black,0.896103017,135,left,down,low,low,black_low_45-white_low_135-black_low_135-white_low_45,black_low_135_down,white_low_45_down,6,1.577154526,0.2488656,left,0.8964908,1,6,5,1,0,1,1,TRUE,FALSE,low_3_mask_low,0.75,-1,3,FALSE,4,,,,,,,,,,,,,,,,,,,165,6,3.2.2021,164.9574327
106,"['low', 1, 'high']",1,black,0.136295011,45,right,down,low,high,white_high_135-black_high_135-white_high_135-black_high_45,black_low_45_down,white_low_135_down,12,1.19169368,0.2503054,left,0.2382495,0,12,4,0,0,1,1,TRUE,FALSE,low_1_mask_high,0.75,-1,3,FALSE,3,,,,,,,,,,,,,,,,,,,165,6,3.2.2021,164.9574327
107,"['high', 2, 'high']",2,black,0.644351914,135,left,up,high,high,black_high_45-black_high_135-white_high_135-white_high_135,black_high_135_up,white_high_45_up,8,1.295709906,0.2467681,right,0.2017347,0,8,4,1,0,1,1,TRUE,FALSE,high_2_mask_high,0.75,-1,3,TRUE,3,,,,,,,,,,,,,,,,,,,165,6,3.2.2021,164.9574327
108,"['high', 2, 'high']",2,black,0.142687423,45,right,up,high,high,white_high_135-white_high_135-black_high_135-black_high_45,black_high_45_up,white_high_135_up,11,1.838453095,0.2485413,right,0.3648679,1,11,5,0,0,1,1,TRUE,FALSE,high_2_mask_high,0.75,-1,3,TRUE,4,,,,,,,,,,,,,,,,,,,165,6,3.2.2021,164.9574327
109,"['med', 3, 'low']",3,black,0.926563233,45,right,down,med,low,white_low_45-black_low_45-white_low_135-black_low_135,black_med_45_down,white_med_135_down,15,1.861297766,0.2488489,left,2.1931442,0,15,9,0,0,1,1,TRUE,FALSE,med_3_mask_low,0.75,-1,3,FALSE,4,,,,,,,,,,,,,,,,,,,165,6,3.2.2021,164.9574327
110,"['high', 3, 'high']",3,white,0.579978213,135,right,up,high,high,black_high_45-white_high_135-white_high_135-black_high_135,white_high_135_up,black_high_45_up,7,1.592817315,0.2485514,right,0.2648099,1,7,5,1,0,1,1,TRUE,FALSE,high_3_mask_high,0.75,-1,3,FALSE,2,,,,,,,,,,,,,,,,,,,165,6,3.2.2021,164.9574327
111,"['low', 1, 'high']",1,black,0.495406125,45,right,up,low,high,black_high_135-black_high_45-white_high_135-white_high_135,black_low_45_up,white_low_135_up,15,1.957952018,0.2488463,left,0.3230846,0,15,5,0,0,1,1,TRUE,FALSE,low_1_mask_high,0.75,-1,3,FALSE,3,,,,,,,,,,,,,,,,,,,165,6,3.2.2021,164.9574327
112,"['low', 1, 'high']",1,white,0.395635986,135,right,up,low,high,white_high_135-black_high_135-black_high_45-white_high_135,white_low_135_up,black_low_45_up,18,1.790976856,0.2449728,right,0.3026077,1,18,6,0,0,1,1,TRUE,FALSE,low_1_mask_high,0.75,-1,3,TRUE,4,,,,,,,,,,,,,,,,,,,165,6,3.2.2021,164.9574327
113,"['med', 2, 'low']",2,black,0.592089149,135,left,up,med,low,white_low_45-black_low_45-black_low_135-white_low_135,black_med_135_up,white_med_45_up,17,1.519467476,0.2485482,right,0.2652146,0,17,7,1,0,1,1,TRUE,FALSE,med_2_mask_low,0.75,-1,3,TRUE,4,,,,,,,,,,,,,,,,,,,165,6,3.2.2021,164.9574327
114,"['med', 1, 'high']",1,black,0.086441481,135,left,up,med,high,black_high_135-black_high_45-white_high_135-white_high_135,black_med_135_up,white_med_45_up,26,1.347053581,0.2485478,left,0.1185772,1,26,6,0,0,1,1,TRUE,FALSE,med_1_mask_high,0.75,-1,3,TRUE,3,,,,,,,,,,,,,,,,,,,165,6,3.2.2021,164.9574327
115,"['med', 1, 'high']",1,black,0.043888761,135,left,down,med,high,white_high_135-white_high_135-black_high_45-black_high_135,black_med_135_down,white_med_45_down,25,1.491933178,0.2485435,right,1.3618814,0,25,7,1,0,1,1,TRUE,FALSE,med_1_mask_high,0.75,-1,3,TRUE,4,,,,,,,,,,,,,,,,,,,165,6,3.2.2021,164.9574327
116,"['med', 2, 'low']",2,black,0.893932295,45,right,up,med,low,black_low_135-white_low_135-white_low_45-black_low_45,black_med_45_up,white_med_135_up,20,1.133743094,0.2503115,right,1.1387834,1,20,8,0,0,1,1,TRUE,FALSE,med_2_mask_low,0.75,-1,3,TRUE,5,,,,,,,,,,,,,,,,,,,165,6,3.2.2021,164.9574327
117,"['low', 3, 'high']",3,black,0.013155181,45,right,up,low,high,black_high_45-white_high_135-black_high_135-white_high_135,black_low_45_up,white_low_135_up,9,1.505373657,0.2485572,right,0.1846807,1,9,6,0,0,1,1,TRUE,FALSE,low_3_mask_high,0.75,-1,3,TRUE,3,,,,,,,,,,,,,,,,,,,165,6,3.2.2021,164.9574327
118,"['low', 3, 'low']",3,white,0.254855316,135,right,up,low,low,white_low_135-black_low_135-white_low_45-black_low_45,white_low_135_up,black_low_45_up,5,1.674243572,0.248552,right,0.2697645,1,5,6,1,0,1,1,TRUE,FALSE,low_3_mask_low,0.75,-1,3,FALSE,4,,,,,,,,,,,,,,,,,,,165,6,3.2.2021,164.9574327
119,"['low', 2, 'low']",2,black,0.793284099,135,left,down,low,low,black_low_135-black_low_45-white_low_45-white_low_135,black_low_135_down,white_low_45_down,1,1.15956913,0.2470717,left,0.5922416,1,1,2,1,0,1,1,TRUE,FALSE,low_2_mask_low,0.75,-1,3,FALSE,0,,,,,,,,,,,,,,,,,,,165,6,3.2.2021,164.9574327
120,"['low', 2, 'high']",2,black,0.449376673,135,left,up,low,high,black_high_45-white_high_135-black_high_135-white_high_135,black_low_135_up,white_low_45_up,10,1.843800566,0.2485369,right,0.194101,0,10,5,1,0,1,1,TRUE,FALSE,low_2_mask_high,0.75,-1,3,TRUE,3,,,,,,,,,,,,,,,,,,,165,6,3.2.2021,164.9574327
121,"['med', 1, 'high']",1,black,0.845107093,135,left,up,med,high,black_high_45-white_high_135-black_high_135-white_high_135,black_med_135_up,white_med_45_up,28,1.70478498,0.2467238,right,1.9065278,0,28,8,0,0,1,1,TRUE,FALSE,med_1_mask_high,0.75,-1,3,FALSE,4,,,,,,,,,,,,,,,,,,,165,6,3.2.2021,164.9574327
122,"['high', 2, 'high']",2,white,0.288367514,45,left,up,high,high,white_high_135-black_high_135-black_high_45-white_high_135,white_high_45_up,black_high_135_up,10,1.495003286,0.2485375,right,0.0969496,0,10,6,1,0,1,1,TRUE,FALSE,high_2_mask_high,0.75,-1,3,TRUE,5,,,,,,,,,,,,,,,,,,,165,6,3.2.2021,164.9574327
123,"['med', 2, 'low']",2,black,0.054066354,135,left,down,med,low,white_low_135-white_low_45-black_low_45-black_low_135,black_med_135_down,white_med_45_down,19,1.049915823,0.2485487,left,1.3412751,1,19,9,1,1,1,1,TRUE,FALSE,med_2_mask_low,0.75,-1,3,FALSE,5,,,,,,,,,,,,,,,,,,,165,6,3.2.2021,164.9574327
124,"['med', 3, 'high']",3,black,0.325164194,45,right,down,med,high,white_high_135-black_high_45-white_high_135-black_high_135,black_med_45_down,white_med_135_down,10,1.918734832,0.2488471,left,0.7282149,0,10,6,0,0,1,1,TRUE,FALSE,med_3_mask_high,0.75,-1,3,FALSE,3,,,,,,,,,,,,,,,,,,,165,6,3.2.2021,164.9574327
125,"['med', 2, 'low']",2,white,0.559789098,45,left,up,med,low,white_low_45-black_low_135-black_low_45-white_low_135,white_med_45_up,black_med_135_up,18,1.100778736,0.2485522,left,0.3503543,1,18,10,1,1,1,1,TRUE,FALSE,med_2_mask_low,0.75,-1,3,FALSE,5,,,,,,,,,,,,,,,,,,,165,6,3.2.2021,164.9574327
126,"['med', 3, 'low']",3,black,0.013106213,45,right,down,med,low,white_low_45-black_low_135-black_low_45-white_low_135,black_med_45_down,white_med_135_down,18,1.062040396,0.2485424,left,0.8468514,0,18,10,0,0,1,1,TRUE,FALSE,med_3_mask_low,0.75,-1,3,FALSE,4,,,,,,,,,,,,,,,,,,,165,6,3.2.2021,164.9574327
127,"['low', 3, 'high']",3,white,0.52468741,135,right,down,low,high,black_high_135-white_high_135-black_high_45-white_high_135,white_low_135_down,black_low_45_down,8,1.87196797,0.2485532,left,2.6109996,0,8,7,1,0,1,1,TRUE,FALSE,low_3_mask_high,0.75,-1,3,TRUE,4,,,,,,,,,,,,,,,,,,,165,6,3.2.2021,164.9574327
128,"['med', 2, 'low']",2,white,0.029299002,45,left,up,med,low,white_low_135-black_low_45-black_low_135-white_low_45,white_med_45_up,black_med_135_up,17,1.801329258,0.2485496,right,0.3608165,0,17,11,1,1,1,1,TRUE,FALSE,med_2_mask_low,0.75,-1,3,TRUE,6,,,,,,,,,,,,,,,,,,,165,6,3.2.2021,164.9574327
129,"['high', 3, 'high']",3,white,0.921838358,135,right,up,high,high,white_high_135-white_high_135-black_high_45-black_high_135,white_high_135_up,black_high_45_up,6,1.157292583,0.248862,right,0.0874665,1,6,6,1,0,1,1,TRUE,FALSE,high_3_mask_high,0.75,-1,3,FALSE,2,,,,,,,,,,,,,,,,,,,165,6,3.2.2021,164.9574327
130,"['low', 2, 'high']",2,white,0.828402648,45,left,down,low,high,black_high_45-black_high_135-white_high_135-white_high_135,white_low_45_down,black_low_135_down,13,1.738391535,0.2467456,left,1.8891146,1,13,6,0,0,1,1,TRUE,FALSE,low_2_mask_high,0.75,-1,3,TRUE,4,,,,,,,,,,,,,,,,,,,165,6,3.2.2021,164.9574327
131,"['low', 3, 'high']",3,black,0.152712703,45,right,down,low,high,white_high_135-black_high_45-white_high_135-black_high_135,black_low_45_down,white_low_135_down,11,1.148668248,0.2485608,right,0.2930975,1,11,8,0,0,1,1,TRUE,FALSE,low_3_mask_high,0.75,-1,3,TRUE,5,,,,,,,,,,,,,,,,,,,165,6,3.2.2021,164.9574327
132,"['high', 2, 'high']",2,black,0.281411933,45,right,down,high,high,black_high_45-white_high_135-white_high_135-black_high_135,black_high_45_down,white_high_135_down,13,1.084766652,0.2467746,left,0.2269134,0,13,7,0,1,1,1,TRUE,FALSE,high_2_mask_high,0.75,-1,3,FALSE,5,,,,,,,,,,,,,,,,,,,165,6,3.2.2021,164.9574327
133,"['med', 2, 'high']",2,black,0.016783884,45,right,down,med,high,white_high_135-white_high_135-black_high_45-black_high_135,black_med_45_down,white_med_135_down,12,1.090380351,0.2485549,right,1.8247272,1,12,4,1,0,1,1,TRUE,FALSE,med_2_mask_high,0.75,-1,3,FALSE,3,,,,,,,,,,,,,,,,,,,165,6,3.2.2021,164.9574327
134,"['low', 2, 'low']",2,black,0.988263142,45,right,up,low,low,black_low_135-black_low_45-white_low_45-white_low_135,black_low_45_up,white_low_135_up,1,1.629887696,0.2467396,left,0.5322341,0,1,3,1,0,1,1,TRUE,FALSE,low_2_mask_low,0.75,-1,3,TRUE,1,,,,,,,,,,,,,,,,,,,165,6,3.2.2021,164.9574327
135,"['med', 2, 'high']",2,black,0.333779551,45,right,up,med,high,white_high_135-white_high_135-black_high_135-black_high_45,black_med_45_up,white_med_135_up,11,1.06716982,0.2503045,right,0.0834516,1,11,5,1,0,1,1,TRUE,FALSE,med_2_mask_high,0.75,-1,3,FALSE,3,,,,,,,,,,,,,,,,,,,165,6,3.2.2021,164.9574327
136,"['low', 3, 'low']",3,white,0.759160158,45,left,down,low,low,white_low_45-black_low_135-black_low_45-white_low_135,white_low_45_down,black_low_135_down,4,1.208941193,0.2484477,right,1.0448667,0,4,7,1,0,1,1,TRUE,FALSE,low_3_mask_low,0.75,-1,3,TRUE,5,,,,,,,,,,,,,,,,,,,165,6,3.2.2021,164.9574327
137,"['high', 2, 'high']",2,black,0.252877018,45,right,down,high,high,white_high_135-black_high_135-black_high_45-white_high_135,black_high_45_down,white_high_135_down,16,1.748699518,0.2488492,left,0.3329099,0,16,8,0,1,1,1,TRUE,FALSE,high_2_mask_high,0.75,-1,3,FALSE,5,,,,,,,,,,,,,,,,,,,165,6,3.2.2021,164.9574327
138,"['med', 1, 'high']",1,white,0.735293542,135,right,up,med,high,black_high_45-white_high_135-black_high_135-white_high_135,white_med_135_up,black_med_45_up,31,1.091905701,0.2488438,right,0.2176404,1,31,9,0,0,1,1,TRUE,FALSE,med_1_mask_high,0.75,-1,3,TRUE,5,,,,,,,,,,,,,,,,,,,165,6,3.2.2021,164.9574327
139,"['med', 1, 'low']",1,black,0.476205473,135,left,down,med,low,black_low_45-black_low_135-white_low_135-white_low_45,black_med_135_down,white_med_45_down,14,1.307972856,0.2488404,left,0.2317226,1,14,6,1,0,1,1,TRUE,FALSE,med_1_mask_low,0.75,-1,3,FALSE,4,,,,,,,,,,,,,,,,,,,165,6,3.2.2021,164.9574327
140,"['low', 2, 'low']",2,white,0.085149462,45,left,up,low,low,black_low_135-white_low_45-white_low_135-black_low_45,white_low_45_up,black_low_135_up,4,1.883989375,0.2470657,right,0.2155664,0,4,4,0,0,1,1,TRUE,FALSE,low_2_mask_low,0.75,-1,3,FALSE,1,,,,,,,,,,,,,,,,,,,165,6,3.2.2021,164.9574327
141,"['high', 3, 'low']",3,black,0.893307838,45,right,up,high,low,white_low_135-white_low_45-black_low_135-black_low_45,black_high_45_up,white_high_135_up,13,1.309691265,0.2485473,right,0.0541359,1,13,7,0,0,1,1,TRUE,FALSE,high_3_mask_low,0.75,-1,3,TRUE,4,,,,,,,,,,,,,,,,,,,165,6,3.2.2021,164.9574327
142,"['low', 1, 'high']",1,black,0.020016643,135,left,up,low,high,black_high_135-white_high_135-white_high_135-black_high_45,black_low_135_up,white_low_45_up,17,1.255938356,0.2485578,left,0.1540751,1,17,7,1,0,1,1,TRUE,FALSE,low_1_mask_high,0.75,-1,3,FALSE,4,,,,,,,,,,,,,,,,,,,165,6,3.2.2021,164.9574327
143,"['low', 2, 'high']",2,black,0.942714538,45,right,up,low,high,black_high_135-white_high_135-white_high_135-black_high_45,black_low_45_up,white_low_135_up,12,1.972017861,0.2485535,right,0.100525,1,12,7,1,0,1,1,TRUE,FALSE,low_2_mask_high,0.75,-1,3,FALSE,4,,,,,,,,,,,,,,,,,,,165,6,3.2.2021,164.9574327
144,"['low', 1, 'low']",1,white,0.711534327,45,left,down,low,low,white_low_135-black_low_45-black_low_135-white_low_45,white_low_45_down,black_low_135_down,16,1.762239662,0.2485495,right,1.568457,0,16,8,1,0,1,1,TRUE,FALSE,low_1_mask_low,0.75,-1,3,TRUE,5,,,,,,,,,,,,,,,,,,,165,6,3.2.2021,164.9574327
145,"['low', 1, 'high']",1,white,0.505512234,45,left,up,low,high,black_high_135-white_high_135-white_high_135-black_high_45,white_low_45_up,black_low_135_up,16,1.254768293,0.2467205,right,1.757753,0,16,8,1,0,1,1,TRUE,FALSE,low_1_mask_high,0.75,-1,3,TRUE,5,,,,,,,,,,,,,,,,,,,165,6,3.2.2021,164.9574327
146,"['high', 2, 'low']",2,black,0.065482998,135,left,up,high,low,white_low_45-black_low_135-white_low_135-black_low_45,black_high_135_up,white_high_45_up,18,1.402318601,0.2467446,left,0.1198232,1,18,6,0,0,1,1,TRUE,FALSE,high_2_mask_low,0.75,-1,3,TRUE,4,,,,,,,,,,,,,,,,,,,165,6,3.2.2021,164.9574327
147,"['med', 2, 'high']",2,black,0.034217997,135,left,up,med,high,white_high_135-white_high_135-black_high_45-black_high_135,black_med_135_up,white_med_45_up,10,1.410403085,0.2488433,left,0.2216254,1,10,6,1,0,1,1,TRUE,FALSE,med_2_mask_high,0.75,-1,3,FALSE,3,,,,,,,,,,,,,,,,,,,165,6,3.2.2021,164.9574327
148,"['high', 3, 'high']",3,black,0.685331259,45,right,down,high,high,white_high_135-white_high_135-black_high_45-black_high_135,black_high_45_down,white_high_135_down,5,1.899237101,0.2485585,right,1.7601829,1,5,7,1,0,1,1,TRUE,FALSE,high_3_mask_high,0.75,-1,3,FALSE,2,,,,,,,,,,,,,,,,,,,165,6,3.2.2021,164.9574327
149,"['low', 3, 'low']",3,black,0.170263222,45,right,down,low,low,black_low_135-white_low_45-black_low_45-white_low_135,black_low_45_down,white_low_135_down,7,1.96941,0.2485357,right,0.9207074,1,7,8,0,1,1,1,TRUE,FALSE,low_3_mask_low,0.75,-1,3,TRUE,6,,,,,,,,,,,,,,,,,,,165,6,3.2.2021,164.9574327
150,"['high', 2, 'low']",2,white,0.969773064,45,left,down,high,low,white_low_45-black_low_135-black_low_45-white_low_135,white_high_45_down,black_high_135_down,17,1.725826877,0.2485508,left,0.3310445,1,17,7,1,0,1,1,TRUE,FALSE,high_2_mask_low,0.75,-1,3,FALSE,4,,,,,,,,,,,,,,,,,,,165,6,3.2.2021,164.9574327
151,"['low', 3, 'high']",3,white,0.601647041,45,left,down,low,high,black_high_45-white_high_135-black_high_135-white_high_135,white_low_45_down,black_low_135_down,10,1.283998223,0.2485485,left,0.2894604,1,10,9,1,1,1,1,TRUE,FALSE,low_3_mask_high,0.75,-1,3,FALSE,5,,,,,,,,,,,,,,,,,,,165,6,3.2.2021,164.9574327
152,"['med', 1, 'low']",1,white,0.734838056,135,right,up,med,low,white_low_135-black_low_135-white_low_45-black_low_45,white_med_135_up,black_med_45_up,13,1.403805848,0.2488483,left,0.3911275,0,13,7,1,0,1,1,TRUE,FALSE,med_1_mask_low,0.75,-1,3,TRUE,5,,,,,,,,,,,,,,,,,,,165,6,3.2.2021,164.9574327
153,"['med', 1, 'low']",1,black,0.564566576,45,right,down,med,low,black_low_135-white_low_45-black_low_45-white_low_135,black_med_45_down,white_med_135_down,16,1.094208984,0.2488548,right,0.1728307,1,16,8,0,1,1,1,TRUE,FALSE,med_1_mask_low,0.75,-1,3,TRUE,6,,,,,,,,,,,,,,,,,,,165,6,3.2.2021,164.9574327
154,"['high', 3, 'high']",3,white,0.583108304,135,right,up,high,high,black_high_135-white_high_135-white_high_135-black_high_45,white_high_135_up,black_high_45_up,4,1.41636758,0.2503416,left,0.2124289,0,4,8,1,0,1,1,TRUE,FALSE,high_3_mask_high,0.75,-1,3,TRUE,3,,,,,,,,,,,,,,,,,,,165,6,3.2.2021,164.9574327
155,"['med', 1, 'high']",1,white,0.83398118,135,right,up,med,high,black_high_135-white_high_135-black_high_45-white_high_135,white_med_135_up,black_med_45_up,30,1.641590038,0.2485502,right,0.8017337,1,30,10,1,1,1,1,TRUE,FALSE,med_1_mask_high,0.75,-1,3,FALSE,5,,,,,,,,,,,,,,,,,,,165,6,3.2.2021,164.9574327
156,"['high', 1, 'low']",1,black,0.422691331,45,right,up,high,low,black_low_45-white_low_45-white_low_135-black_low_135,black_high_45_up,white_high_135_up,28,1.249177289,0.2503293,right,0.5246812,1,28,8,0,0,1,1,TRUE,FALSE,high_1_mask_low,0.75,-1,3,TRUE,5,,,,,,,,,,,,,,,,,,,165,6,3.2.2021,164.9574327
157,"['low', 2, 'low']",2,white,0.326467236,45,left,up,low,low,black_low_45-black_low_135-white_low_45-white_low_135,white_low_45_up,black_low_135_up,7,1.476897895,0.248857,left,0.1712689,1,7,5,0,0,1,1,TRUE,FALSE,low_2_mask_low,0.75,-1,3,TRUE,2,,,,,,,,,,,,,,,,,,,165,6,3.2.2021,164.9574327
158,"['high', 3, 'high']",3,black,0.594464645,135,left,up,high,high,white_high_135-white_high_135-black_high_45-black_high_135,black_high_135_up,white_high_45_up,7,1.992801299,0.2485515,right,0.0923113,0,7,9,0,0,1,1,TRUE,FALSE,high_3_mask_high,0.75,-1,3,FALSE,3,,,,,,,,,,,,,,,,,,,165,6,3.2.2021,164.9574327
159,"['high', 1, 'high']",1,black,0.311025609,135,left,down,high,high,black_high_45-black_high_135-white_high_135-white_high_135,black_high_135_down,white_high_45_down,13,1.289349427,0.2488619,right,0.3637756,0,13,7,1,0,1,1,TRUE,FALSE,high_1_mask_high,0.75,-1,3,TRUE,5,,,,,,,,,,,,,,,,,,,165,6,3.2.2021,164.9574327
160,"['high', 2, 'high']",2,black,0.315105794,45,right,down,high,high,black_high_135-white_high_135-white_high_135-black_high_45,black_high_45_down,white_high_135_down,19,1.351610833,0.2485431,right,1.404762,1,19,9,0,1,1,1,TRUE,FALSE,high_2_mask_high,0.75,-1,3,TRUE,6,,,,,,,,,,,,,,,,,,,165,6,3.2.2021,164.9574327
161,"['low', 2, 'low']",2,white,0.303952442,45,left,up,low,low,black_low_135-white_low_135-black_low_45-white_low_45,white_low_45_up,black_low_135_up,6,1.325402001,0.248535,left,0.1389744,1,6,6,1,0,1,1,TRUE,FALSE,low_2_mask_low,0.75,-1,3,FALSE,2,,,,,,,,,,,,,,,,,,,165,6,3.2.2021,164.9574327
162,"['low', 3, 'high']",3,white,0.801186642,135,right,down,low,high,white_high_135-black_high_135-black_high_45-white_high_135,white_low_135_down,black_low_45_down,9,1.696788012,0.2485396,right,3.1676391,1,9,10,1,1,1,1,TRUE,FALSE,low_3_mask_high,0.75,-1,3,FALSE,5,,,,,,,,,,,,,,,,,,,165,6,3.2.2021,164.9574327
163,"['med', 1, 'high']",1,black,0.86709314,45,right,up,med,high,white_high_135-white_high_135-black_high_45-black_high_135,black_med_45_up,white_med_135_up,29,1.200954956,0.2485465,right,0.2364615,1,29,11,1,1,1,1,TRUE,FALSE,med_1_mask_high,0.75,-1,3,FALSE,5,,,,,,,,,,,,,,,,,,,165,6,3.2.2021,164.9574327
164,"['med', 1, 'low']",1,black,0.47981559,45,right,up,med,low,black_low_45-white_low_45-black_low_135-white_low_135,black_med_45_up,white_med_135_up,15,1.309257638,0.2485362,left,0.2755538,0,15,9,1,1,1,1,TRUE,FALSE,med_1_mask_low,0.75,-1,3,TRUE,7,,,,,,,,,,,,,,,,,,,165,6,3.2.2021,164.9574327
165,"['high', 2, 'high']",2,white,0.119566066,45,left,down,high,high,black_high_45-white_high_135-black_high_135-white_high_135,white_high_45_down,black_high_135_down,18,1.90196691,0.2485499,left,2.0297398,1,18,10,1,1,1,1,TRUE,FALSE,high_2_mask_high,0.75,-1,3,FALSE,6,,,,,,,,,,,,,,,,,,,165,6,3.2.2021,164.9574327
166,"['high', 3, 'high']",3,white,0.129516327,45,left,up,high,high,black_high_45-white_high_135-white_high_135-black_high_135,white_high_45_up,black_high_135_up,10,1.692185871,0.248555,right,0.0122167,0,10,10,0,0,1,1,TRUE,FALSE,high_3_mask_high,0.75,-1,3,FALSE,3,,,,,,,,,,,,,,,,,,,165,6,3.2.2021,164.9574327
167,"['high', 1, 'low']",1,black,0.374844854,45,right,up,high,low,white_low_135-black_low_45-white_low_45-black_low_135,black_high_45_up,white_high_135_up,27,1.618608445,0.248551,left,0.179532,0,27,9,1,1,1,1,TRUE,FALSE,high_1_mask_low,0.75,-1,3,TRUE,6,,,,,,,,,,,,,,,,,,,165,6,3.2.2021,164.9574327
168,"['low', 3, 'high']",3,white,0.253669774,135,right,up,low,high,black_high_45-white_high_135-white_high_135-black_high_135,white_low_135_up,black_low_45_up,8,1.540216088,0.2485455,right,0.0200398,1,8,11,1,1,1,1,TRUE,FALSE,low_3_mask_high,0.75,-1,3,FALSE,5,,,,,,,,,,,,,,,,,,,165,6,3.2.2021,164.9574327
169,"['high', 2, 'low']",2,white,0.84206149,45,left,up,high,low,black_low_135-white_low_135-white_low_45-black_low_45,white_high_45_up,black_high_135_up,16,1.059612685,0.2485501,left,0.6910131,1,16,8,1,0,1,1,TRUE,FALSE,high_2_mask_low,0.75,-1,3,FALSE,4,,,,,,,,,,,,,,,,,,,165,6,3.2.2021,164.9574327
170,"['high', 1, 'low']",1,white,0.647829349,45,left,down,high,low,white_low_135-black_low_135-white_low_45-black_low_45,white_high_45_down,black_high_135_down,30,1.497026769,0.2485475,left,1.2851573,1,30,10,0,1,1,1,TRUE,FALSE,high_1_mask_low,0.75,-1,3,TRUE,7,,,,,,,,,,,,,,,,,,,165,6,3.2.2021,164.9574327
171,"['med', 2, 'high']",2,black,0.194978657,45,right,up,med,high,black_high_135-white_high_135-white_high_135-black_high_45,black_med_45_up,white_med_135_up,9,1.129427997,0.2485487,right,0.1038687,1,9,7,1,0,1,1,TRUE,FALSE,med_2_mask_high,0.75,-1,3,FALSE,3,,,,,,,,,,,,,,,,,,,165,6,3.2.2021,164.9574327
172,"['high', 3, 'low']",3,black,0.893959173,45,right,down,high,low,white_low_45-black_low_45-black_low_135-white_low_135,black_high_45_down,white_high_135_down,12,1.101799193,0.2485362,left,0.2787834,0,12,8,1,0,1,1,TRUE,FALSE,high_3_mask_low,0.75,-1,3,TRUE,5,,,,,,,,,,,,,,,,,,,165,6,3.2.2021,164.9574327
173,"['med', 1, 'low']",1,black,0.164120246,135,left,down,med,low,black_low_45-black_low_135-white_low_135-white_low_45,black_med_135_down,white_med_45_down,18,1.634886997,0.2467553,left,4.0352377,1,18,10,0,1,1,1,TRUE,FALSE,med_1_mask_low,0.75,-1,3,TRUE,8,,,,,,,,,,,,,,,,,,,165,6,3.2.2021,164.9574327
174,"['high', 1, 'low']",1,black,0.327360277,135,left,down,high,low,black_low_45-black_low_135-white_low_135-white_low_45,black_high_135_down,white_high_45_down,29,1.58636534,0.2485512,right,1.1088179,0,29,11,1,1,1,1,TRUE,FALSE,high_1_mask_low,0.75,-1,3,TRUE,8,,,,,,,,,,,,,,,,,,,165,6,3.2.2021,164.9574327
175,"['med', 2, 'high']",2,black,0.660683289,45,right,down,med,high,white_high_135-white_high_135-black_high_135-black_high_45,black_med_45_down,white_med_135_down,8,1.311441056,0.244974,left,0.6755905,0,8,8,1,0,1,1,TRUE,FALSE,med_2_mask_high,0.75,-1,3,TRUE,4,,,,,,,,,,,,,,,,,,,165,6,3.2.2021,164.9574327
176,"['med', 3, 'low']",3,white,0.842461347,135,right,down,med,low,white_low_135-black_low_135-white_low_45-black_low_45,white_med_135_down,black_med_45_down,21,1.746302223,0.2485557,right,2.1493594,1,21,11,0,0,1,1,TRUE,FALSE,med_3_mask_low,0.75,-1,3,TRUE,5,,,,,,,,,,,,,,,,,,,165,6,3.2.2021,164.9574327
177,"['low', 2, 'high']",2,black,0.417569941,45,right,down,low,high,white_high_135-black_high_135-white_high_135-black_high_45,black_low_45_down,white_low_135_down,11,1.937004574,0.2485432,right,1.5641497,1,11,8,1,0,1,1,TRUE,FALSE,low_2_mask_high,0.75,-1,3,FALSE,4,,,,,,,,,,,,,,,,,,,165,6,3.2.2021,164.9574327
178,"['low', 1, 'high']",1,black,0.783748854,135,left,down,low,high,white_high_135-white_high_135-black_high_45-black_high_135,black_low_135_down,white_low_45_down,19,1.869564692,0.2449098,left,4.2977612,1,19,9,0,1,1,1,TRUE,FALSE,low_1_mask_high,0.75,-1,3,TRUE,6,,,,,,,,,,,,,,,,,,,165,6,3.2.2021,164.9574327
179,"['high', 3, 'high']",3,black,0.317603884,45,right,down,high,high,black_high_45-white_high_135-white_high_135-black_high_135,black_high_45_down,white_high_135_down,13,1.004985423,0.2485509,left,0.2778625,0,13,11,0,0,1,1,TRUE,FALSE,high_3_mask_high,0.75,-1,3,FALSE,3,,,,,,,,,,,,,,,,,,,165,6,3.2.2021,164.9574327
180,"['low', 3, 'high']",3,black,0.440255667,45,right,down,low,high,white_high_135-black_high_135-black_high_45-white_high_135,black_low_45_down,white_low_135_down,7,1.459458485,0.2485447,right,0.1982797,1,7,12,1,1,1,1,TRUE,FALSE,low_3_mask_high,0.75,-1,3,FALSE,5,,,,,,,,,,,,,,,,,,,165,6,3.2.2021,164.9574327
181,"['low', 2, 'low']",2,white,0.485811926,45,left,down,low,low,white_low_135-black_low_45-black_low_135-white_low_45,white_low_45_down,black_low_135_down,5,1.055518804,0.2485294,left,0.2393447,1,5,7,1,0,1,1,TRUE,FALSE,low_2_mask_low,0.75,-1,3,FALSE,2,,,,,,,,,,,,,,,,,,,165,6,3.2.2021,164.9574327
182,"['high', 2, 'low']",2,white,0.06485019,45,left,up,high,low,white_low_135-black_low_135-black_low_45-white_low_45,white_high_45_up,black_high_135_up,15,1.533350538,0.2467587,right,0.3017699,0,15,9,1,0,1,1,TRUE,FALSE,high_2_mask_low,0.75,-1,3,TRUE,5,,,,,,,,,,,,,,,,,,,165,6,3.2.2021,164.9574327
183,"['high', 3, 'high']",3,black,0.84501619,135,left,up,high,high,white_high_135-black_high_135-black_high_45-white_high_135,black_high_135_up,white_high_45_up,16,1.320127607,0.2485201,right,0.6246399,0,16,12,0,0,1,1,TRUE,FALSE,high_3_mask_high,0.75,-1,3,FALSE,3,,,,,,,,,,,,,,,,,,,165,6,3.2.2021,164.9574327
184,"['low', 2, 'high']",2,white,0.044900544,135,right,up,low,high,white_high_135-black_high_45-white_high_135-black_high_135,white_low_135_up,black_low_45_up,10,1.1938735,0.2485498,right,0.3436003,1,10,9,1,0,1,1,TRUE,FALSE,low_2_mask_high,0.75,-1,3,FALSE,4,,,,,,,,,,,,,,,,,,,165,6,3.2.2021,164.9574327
185,"['med', 1, 'high']",1,white,0.202545766,45,left,up,med,high,black_high_135-white_high_135-black_high_45-white_high_135,white_med_45_up,black_med_135_up,28,1.109576264,0.2485508,left,0.277982,1,28,12,1,1,1,1,TRUE,FALSE,med_1_mask_high,0.75,-1,3,FALSE,5,,,,,,,,,,,,,,,,,,,165,6,3.2.2021,164.9574327
186,"['med', 1, 'low']",1,black,0.153164702,45,right,down,med,low,white_low_45-black_low_45-white_low_135-black_low_135,black_med_45_down,white_med_135_down,17,1.64036043,0.2467723,left,1.4887654,0,17,11,1,1,1,1,TRUE,FALSE,med_1_mask_low,0.75,-1,3,TRUE,9,,,,,,,,,,,,,,,,,,,165,6,3.2.2021,164.9574327
187,"['med', 2, 'low']",2,white,0.153323566,135,right,down,med,low,black_low_45-white_low_45-white_low_135-black_low_135,white_med_135_down,black_med_45_down,20,1.107506766,0.2483116,right,0.4001953,1,20,12,0,1,1,1,TRUE,FALSE,med_2_mask_low,0.75,-1,3,TRUE,7,,,,,,,,,,,,,,,,,,,165,6,3.2.2021,164.9574327
188,"['high', 2, 'low']",2,white,0.241338458,135,right,down,high,low,white_low_135-black_low_135-black_low_45-white_low_45,white_high_135_down,black_high_45_down,18,1.782433828,0.248844,left,0.0963235,0,18,10,0,1,1,1,TRUE,FALSE,high_2_mask_low,0.75,-1,3,FALSE,5,,,,,,,,,,,,,,,,,,,165,6,3.2.2021,164.9574327
189,"['low', 3, 'high']",3,white,0.991246868,45,left,up,low,high,black_high_135-white_high_135-white_high_135-black_high_45,white_low_45_up,black_low_135_up,6,1.605834997,0.2485256,left,0.4324002,1,6,13,1,1,1,1,TRUE,FALSE,low_3_mask_high,0.75,-1,3,FALSE,5,,,,,,,,,,,,,,,,,,,165,6,3.2.2021,164.9574327
190,"['high', 2, 'low']",2,white,0.384036411,135,right,up,high,low,black_low_135-white_low_45-black_low_45-white_low_135,white_high_135_up,black_high_45_up,21,1.946176304,0.2485491,right,0.3854011,1,21,11,0,1,1,1,TRUE,FALSE,high_2_mask_low,0.75,-1,3,TRUE,6,,,,,,,,,,,,,,,,,,,165,6,3.2.2021,164.9574327
191,"['high', 1, 'low']",1,white,0.963841463,45,left,up,high,low,black_low_45-white_low_45-white_low_135-black_low_135,white_high_45_up,black_high_135_up,32,1.350960933,0.2485549,left,0.0110781,1,32,12,0,1,1,1,TRUE,FALSE,high_1_mask_low,0.75,-1,3,TRUE,9,,,,,,,,,,,,,,,,,,,165,6,3.2.2021,164.9574327
192,"['high', 1, 'high']",1,white,0.830424619,135,right,up,high,high,black_high_135-white_high_135-black_high_45-white_high_135,white_high_135_up,black_high_45_up,16,1.401120823,0.2485432,left,0.5752453,0,16,8,0,1,1,1,TRUE,FALSE,high_1_mask_high,0.75,-1,3,FALSE,5,,,,,,,,,,,,,,,,,,,165,6,3.2.2021,164.9574327
193,"['low', 2, 'high']",2,black,0.103939321,45,right,down,low,high,black_high_45-white_high_135-white_high_135-black_high_135,black_low_45_down,white_low_135_down,9,1.049883448,0.2502972,right,0.9964531,1,9,10,1,0,1,1,TRUE,FALSE,low_2_mask_high,0.75,-1,3,FALSE,4,,,,,,,,,,,,,,,,,,,165,6,3.2.2021,164.9574327
194,"['high', 2, 'low']",2,black,0.442906011,135,left,down,high,low,white_low_135-black_low_135-black_low_45-white_low_45,black_high_135_down,white_high_45_down,20,1.455917983,0.248545,left,0.2793445,1,20,12,1,1,1,1,TRUE,FALSE,high_2_mask_low,0.75,-1,3,FALSE,6,,,,,,,,,,,,,,,,,,,165,6,3.2.2021,164.9574327
195,"['med', 1, 'high']",1,black,0.976809385,45,right,down,med,high,black_high_135-white_high_135-white_high_135-black_high_45,black_med_45_down,white_med_135_down,27,1.138093616,0.2485392,right,1.7622762,1,27,13,1,1,1,1,TRUE,FALSE,med_1_mask_high,0.75,-1,3,FALSE,5,,,,,,,,,,,,,,,,,,,165,6,3.2.2021,164.9574327
196,"['med', 1, 'high']",1,white,0.107252057,45,left,up,med,high,black_high_45-white_high_135-black_high_135-white_high_135,white_med_45_up,black_med_135_up,26,1.699895632,0.2485476,left,0.2208632,1,26,14,1,1,1,1,TRUE,FALSE,med_1_mask_high,0.75,-1,3,FALSE,5,,,,,,,,,,,,,,,,,,,165,6,3.2.2021,164.9574327
197,"['med', 3, 'low']",3,white,0.85374292,45,left,up,med,low,white_low_135-black_low_135-black_low_45-white_low_45,white_med_45_up,black_med_135_up,20,1.914421984,0.2485494,left,0.2581984,1,20,12,1,1,1,1,TRUE,FALSE,med_3_mask_low,0.75,-1,3,FALSE,5,,,,,,,,,,,,,,,,,,,165,6,3.2.2021,164.9574327
198,"['low', 3, 'low']",3,white,0.775247279,45,left,up,low,low,black_low_135-white_low_135-white_low_45-black_low_45,white_low_45_up,black_low_135_up,6,1.94737188,0.2467093,left,1.4395342,1,6,9,1,1,1,1,TRUE,FALSE,low_3_mask_low,0.75,-1,3,FALSE,6,,,,,,,,,,,,,,,,,,,165,6,3.2.2021,164.9574327
199,"['med', 2, 'high']",2,black,0.421412114,135,left,up,med,high,black_high_45-black_high_135-white_high_135-white_high_135,black_med_135_up,white_med_45_up,11,1.673516306,0.248549,left,0.3204718,1,11,9,0,0,1,1,TRUE,FALSE,med_2_mask_high,0.75,-1,3,TRUE,5,,,,,,,,,,,,,,,,,,,165,6,3.2.2021,164.9574327
200,"['low', 1, 'low']",1,white,0.815482871,135,right,down,low,low,black_low_135-white_low_135-black_low_45-white_low_45,white_low_135_down,black_low_45_down,19,1.273325816,0.2485414,right,1.8737808,1,19,9,0,1,1,1,TRUE,FALSE,low_1_mask_low,0.75,-1,3,TRUE,6,,,,,,,,,,,,,,,,,,,165,6,3.2.2021,164.9574327
201,"['high', 2, 'high']",2,white,0.283919923,45,left,down,high,high,white_high_135-black_high_45-black_high_135-white_high_135,white_high_45_down,black_high_135_down,17,1.85686777,0.2485486,left,0.0467555,1,17,11,1,1,1,1,TRUE,FALSE,high_2_mask_high,0.75,-1,3,FALSE,6,,,,,,,,,,,,,,,,,,,165,6,3.2.2021,164.9574327
202,"['med', 1, 'low']",1,black,0.772900482,45,right,down,med,low,black_low_135-white_low_45-white_low_135-black_low_45,black_med_45_down,white_med_135_down,20,1.466927529,0.2485435,left,1.5317149,0,20,12,0,1,1,1,TRUE,FALSE,med_1_mask_low,0.75,-1,3,FALSE,9,,,,,,,,,,,,,,,,,,,165,6,3.2.2021,164.9574327
203,"['high', 3, 'high']",3,black,0.323759368,135,left,up,high,high,black_high_45-black_high_135-white_high_135-white_high_135,black_high_135_up,white_high_45_up,19,1.55613499,0.2485452,left,0.7391113,1,19,13,0,0,1,1,TRUE,FALSE,high_3_mask_high,0.75,-1,3,TRUE,4,,,,,,,,,,,,,,,,,,,165,6,3.2.2021,164.9574327
204,"['med', 3, 'high']",3,white,0.445222165,45,left,up,med,high,black_high_45-white_high_135-white_high_135-black_high_135,white_med_45_up,black_med_135_up,13,1.027864358,0.2485601,right,0.0387363,0,13,7,0,0,1,1,TRUE,FALSE,med_3_mask_high,0.75,-1,3,FALSE,3,,,,,,,,,,,,,,,,,,,165,6,3.2.2021,164.9574327
205,"['low', 3, 'high']",3,black,0.135805482,135,left,down,low,high,black_high_135-white_high_135-black_high_45-white_high_135,black_low_135_down,white_low_45_down,5,1.862071625,0.2488464,left,0.2593258,1,5,14,1,1,1,1,TRUE,FALSE,low_3_mask_high,0.75,-1,3,FALSE,5,,,,,,,,,,,,,,,,,,,165,6,3.2.2021,164.9574327
206,"['med', 1, 'high']",1,white,0.312934791,135,right,up,med,high,black_high_135-black_high_45-white_high_135-white_high_135,white_med_135_up,black_med_45_up,25,1.299871113,0.2485557,right,0.6013895,1,25,15,1,1,1,1,TRUE,FALSE,med_1_mask_high,0.75,-1,3,FALSE,5,,,,,,,,,,,,,,,,,,,165,6,3.2.2021,164.9574327
207,"['med', 3, 'high']",3,black,0.96913305,45,right,up,med,high,black_high_135-white_high_135-white_high_135-black_high_45,black_med_45_up,white_med_135_up,16,1.560774621,0.2485492,right,0.4499069,1,16,8,0,0,1,1,TRUE,FALSE,med_3_mask_high,0.75,-1,3,TRUE,4,,,,,,,,,,,,,,,,,,,165,6,3.2.2021,164.9574327
208,"['low', 3, 'low']",3,white,0.274935025,135,right,up,low,low,black_low_135-black_low_45-white_low_135-white_low_45,white_low_135_up,black_low_45_up,5,1.0096457,0.245021,left,0.8327356,0,5,10,1,1,1,1,TRUE,FALSE,low_3_mask_low,0.75,-1,3,TRUE,7,,,,,,,,,,,,,,,,,,,165,6,3.2.2021,164.9574327
209,"['high', 1, 'low']",1,white,0.435390913,45,left,down,high,low,black_low_45-black_low_135-white_low_45-white_low_135,white_high_45_down,black_high_135_down,31,1.274337825,0.2485152,right,0.1596709,0,31,13,1,1,1,1,TRUE,FALSE,high_1_mask_low,0.75,-1,3,TRUE,10,,,,,,,,,,,,,,,,,,,165,6,3.2.2021,164.9574327
210,"['high', 3, 'high']",3,white,0.048515171,135,right,down,high,high,black_high_45-white_high_135-black_high_135-white_high_135,white_high_135_down,black_high_45_down,18,1.616614299,0.2485485,right,1.1188687,1,18,14,1,0,1,1,TRUE,FALSE,high_3_mask_high,0.75,-1,3,FALSE,4,,,,,,,,,,,,,,,,,,,165,6,3.2.2021,164.9574327
211,"['med', 1, 'low']",1,black,0.73426476,135,left,up,med,low,white_low_135-black_low_45-black_low_135-white_low_45,black_med_135_up,white_med_45_up,23,1.114144649,0.2485424,right,0.0934535,0,23,13,0,1,1,1,TRUE,FALSE,med_1_mask_low,0.75,-1,3,FALSE,9,,,,,,,,,,,,,,,,,,,165,6,3.2.2021,164.9574327
212,"['med', 3, 'high']",3,white,0.093975152,45,left,up,med,high,black_high_45-black_high_135-white_high_135-white_high_135,white_med_45_up,black_med_135_up,15,1.444388949,0.248546,right,0.4838675,0,15,9,1,0,1,1,TRUE,FALSE,med_3_mask_high,0.75,-1,3,TRUE,5,,,,,,,,,,,,,,,,,,,165,6,3.2.2021,164.9574327
213,"['low', 2, 'high']",2,white,0.010720453,135,right,up,low,high,black_high_45-white_high_135-white_high_135-black_high_135,white_low_135_up,black_low_45_up,8,1.937613703,0.2485418,right,0.0250865,1,8,11,1,0,1,1,TRUE,FALSE,low_2_mask_high,0.75,-1,3,FALSE,4,,,,,,,,,,,,,,,,,,,165,6,3.2.2021,164.9574327
214,"['low', 1, 'high']",1,white,0.070513281,45,left,down,low,high,white_high_135-black_high_135-white_high_135-black_high_45,white_low_45_down,black_low_135_down,18,1.459225078,0.2503152,left,0.6466597,1,18,10,1,1,1,1,TRUE,FALSE,low_1_mask_high,0.75,-1,3,FALSE,6,,,,,,,,,,,,,,,,,,,165,6,3.2.2021,164.9574327
215,"['high', 1, 'high']",1,white,0.517891917,135,right,down,high,high,black_high_135-white_high_135-black_high_45-white_high_135,white_high_135_down,black_high_45_down,19,1.986590268,0.2485438,left,2.1538281,0,19,9,0,1,1,1,TRUE,FALSE,high_1_mask_high,0.75,-1,3,FALSE,5,,,,,,,,,,,,,,,,,,,165,6,3.2.2021,164.9574327
216,"['high', 3, 'low']",3,black,0.747881688,45,right,up,high,low,black_low_45-black_low_135-white_low_135-white_low_45,black_high_45_up,white_high_135_up,15,1.933585558,0.2485517,right,0.9641586,1,15,9,0,1,1,1,TRUE,FALSE,high_3_mask_low,0.75,-1,3,TRUE,6,,,,,,,,,,,,,,,,,,,165,6,3.2.2021,164.9574327
217,"['high', 3, 'high']",3,black,0.791503193,45,right,down,high,high,white_high_135-black_high_135-white_high_135-black_high_45,black_high_45_down,white_high_135_down,17,1.498193972,0.2485466,left,2.103813,0,17,15,1,0,1,1,TRUE,FALSE,high_3_mask_high,0.75,-1,3,TRUE,5,,,,,,,,,,,,,,,,,,,165,6,3.2.2021,164.9574327
218,"['low', 2, 'high']",2,white,0.54864247,135,right,up,low,high,white_high_135-white_high_135-black_high_135-black_high_45,white_low_135_up,black_low_45_up,7,1.888405792,0.2449812,left,1.0554461,0,7,12,1,0,1,1,TRUE,FALSE,low_2_mask_high,0.75,-1,3,TRUE,5,,,,,,,,,,,,,,,,,,,165,6,3.2.2021,164.9574327
219,"['high', 3, 'low']",3,black,0.461423111,135,left,up,high,low,black_low_135-black_low_45-white_low_135-white_low_45,black_high_135_up,white_high_45_up,14,1.764061569,0.2503268,left,0.8163482,1,14,10,1,1,1,1,TRUE,FALSE,high_3_mask_low,0.75,-1,3,FALSE,6,,,,,,,,,,,,,,,,,,,165,6,3.2.2021,164.9574327
220,"['low', 2, 'low']",2,black,0.402322814,135,left,down,low,low,white_low_45-white_low_135-black_low_45-black_low_135,black_low_135_down,white_low_45_down,4,1.615323997,0.2485463,right,0.4670879,0,4,8,1,0,1,1,TRUE,FALSE,low_2_mask_low,0.75,-1,3,TRUE,3,,,,,,,,,,,,,,,,,,,165,6,3.2.2021,164.9574327
221,"['med', 3, 'high']",3,black,0.892255027,135,left,down,med,high,black_high_45-black_high_135-white_high_135-white_high_135,black_med_135_down,white_med_45_down,18,1.064666774,0.2485472,left,2.7695139,1,18,10,0,1,1,1,TRUE,FALSE,med_3_mask_high,0.75,-1,3,TRUE,6,,,,,,,,,,,,,,,,,,,165,6,3.2.2021,164.9574327
222,"['med', 3, 'high']",3,black,0.343447501,135,left,up,med,high,white_high_135-black_high_135-white_high_135-black_high_45,black_med_135_up,white_med_45_up,17,1.000032102,0.2506512,right,0.7826107,0,17,11,1,1,1,1,TRUE,FALSE,med_3_mask_high,0.75,-1,3,TRUE,7,,,,,,,,,,,,,,,,,,,165,6,3.2.2021,164.9574327
223,"['low', 3, 'high']",3,black,0.619137578,45,right,down,low,high,white_high_135-white_high_135-black_high_45-black_high_135,black_low_45_down,white_low_135_down,4,1.106907967,0.2467765,left,0.4631347,0,4,15,1,1,1,1,TRUE,FALSE,low_3_mask_high,0.75,-1,3,TRUE,6,,,,,,,,,,,,,,,,,,,165,6,3.2.2021,164.9574327
224,"['med', 1, 'low']",1,white,0.992078156,45,left,up,med,low,black_low_45-white_low_135-white_low_45-black_low_135,white_med_45_up,black_med_135_up,26,1.144446907,0.2485305,left,0.1886857,1,26,14,0,1,1,1,TRUE,FALSE,med_1_mask_low,0.75,-1,3,TRUE,10,,,,,,,,,,,,,,,,,,,165,6,3.2.2021,164.9574327
225,"['low', 1, 'high']",1,black,0.913172881,135,left,up,low,high,white_high_135-white_high_135-black_high_45-black_high_135,black_low_135_up,white_low_45_up,17,1.015210882,0.2485629,right,1.0393953,0,17,11,1,1,1,1,TRUE,FALSE,low_1_mask_high,0.75,-1,3,TRUE,7,,,,,,,,,,,,,,,,,,,165,6,3.2.2021,164.9574327
226,"['high', 3, 'high']",3,white,0.332454453,45,left,down,high,high,black_high_135-white_high_135-black_high_45-white_high_135,white_high_45_down,black_high_135_down,20,1.620267099,0.2485433,left,1.998314,1,20,16,0,1,1,1,TRUE,FALSE,high_3_mask_high,0.75,-1,3,TRUE,6,,,,,,,,,,,,,,,,,,,165,6,3.2.2021,164.9574327
227,"['med', 2, 'high']",2,black,0.886489686,45,right,down,med,high,white_high_135-black_high_45-white_high_135-black_high_135,black_med_45_down,white_med_135_down,10,1.544008583,0.248496,left,0.2374868,0,10,10,1,1,1,1,TRUE,FALSE,med_2_mask_high,0.75,-1,3,TRUE,6,,,,,,,,,,,,,,,,,,,165,6,3.2.2021,164.9574327
228,"['low', 2, 'high']",2,white,0.176764249,45,left,up,low,high,black_high_135-black_high_45-white_high_135-white_high_135,white_low_45_up,black_low_135_up,10,1.83840373,0.248843,right,0.1024338,0,10,13,0,1,1,1,TRUE,FALSE,low_2_mask_high,0.75,-1,3,FALSE,5,,,,,,,,,,,,,,,,,,,165,6,3.2.2021,164.9574327
229,"['low', 1, 'high']",1,white,0.628068581,45,left,down,low,high,black_high_135-black_high_45-white_high_135-white_high_135,white_low_45_down,black_low_135_down,20,1.52052861,0.2485386,left,3.1107413,1,20,12,0,1,1,1,TRUE,FALSE,low_1_mask_high,0.75,-1,3,TRUE,8,,,,,,,,,,,,,,,,,,,165,6,3.2.2021,164.9574327
230,"['med', 1, 'high']",1,black,0.867344497,45,right,up,med,high,white_high_135-white_high_135-black_high_135-black_high_45,black_med_45_up,white_med_135_up,24,1.516817958,0.2485498,right,1.0287721,1,24,16,1,1,1,1,TRUE,FALSE,med_1_mask_high,0.75,-1,3,FALSE,5,,,,,,,,,,,,,,,,,,,165,6,3.2.2021,164.9574327
231,"['high', 1, 'low']",1,white,0.54857107,45,left,up,high,low,black_low_135-white_low_45-black_low_45-white_low_135,white_high_45_up,black_high_135_up,34,1.057550578,0.2485416,left,0.3360447,1,34,14,0,1,1,1,TRUE,FALSE,high_1_mask_low,0.75,-1,3,TRUE,11,,,,,,,,,,,,,,,,,,,165,6,3.2.2021,164.9574327
232,"['med', 2, 'low']",2,white,0.55059291,135,right,down,med,low,white_low_135-black_low_45-white_low_45-black_low_135,white_med_135_down,black_med_45_down,19,1.641262588,0.2482514,right,1.1095466,1,19,13,1,1,1,1,TRUE,FALSE,med_2_mask_low,0.75,-1,3,FALSE,7,,,,,,,,,,,,,,,,,,,165,6,3.2.2021,164.9574327
233,"['med', 1, 'low']",1,white,0.798697934,135,right,down,med,low,black_low_135-white_low_135-white_low_45-black_low_45,white_med_135_down,black_med_45_down,25,1.478837817,0.2485538,right,0.5464692,1,25,15,1,1,1,1,TRUE,FALSE,med_1_mask_low,0.75,-1,3,FALSE,10,,,,,,,,,,,,,,,,,,,165,6,3.2.2021,164.9574327
234,"['med', 1, 'high']",1,black,0.704610511,135,left,up,med,high,black_high_135-black_high_45-white_high_135-white_high_135,black_med_135_up,white_med_45_up,23,1.331855765,0.2485493,left,0.1846334,1,23,17,1,1,1,1,TRUE,FALSE,med_1_mask_high,0.75,-1,3,FALSE,5,,,,,,,,,,,,,,,,,,,165,6,3.2.2021,164.9574327
235,"['low', 1, 'low']",1,black,0.874675477,45,right,down,low,low,black_low_135-white_low_135-white_low_45-black_low_45,black_low_45_down,white_low_135_down,18,1.051061405,0.2485344,left,0.3231206,0,18,10,1,1,1,1,TRUE,FALSE,low_1_mask_low,0.75,-1,3,TRUE,7,,,,,,,,,,,,,,,,,,,165,6,3.2.2021,164.9574327
236,"['med', 2, 'high']",2,white,0.564584119,45,left,down,med,high,white_high_135-white_high_135-black_high_45-black_high_135,white_med_45_down,black_med_135_down,13,1.059105015,0.2485433,left,1.6935963,1,13,11,0,1,1,1,TRUE,FALSE,med_2_mask_high,0.75,-1,3,TRUE,7,,,,,,,,,,,,,,,,,,,165,6,3.2.2021,164.9574327
237,"['low', 1, 'low']",1,white,0.549812242,45,left,down,low,low,black_low_45-white_low_45-black_low_135-white_low_135,white_low_45_down,black_low_135_down,21,1.196750226,0.2485577,left,0.2176511,1,21,11,0,1,1,1,TRUE,FALSE,low_1_mask_low,0.75,-1,3,TRUE,8,,,,,,,,,,,,,,,,,,,165,6,3.2.2021,164.9574327
238,"['low', 2, 'high']",2,black,0.979363267,45,right,up,low,high,white_high_135-black_high_45-white_high_135-black_high_135,black_low_45_up,white_low_135_up,13,1.015592955,0.2485519,right,0.4225263,1,13,14,0,1,1,1,TRUE,FALSE,low_2_mask_high,0.75,-1,3,TRUE,6,,,,,,,,,,,,,,,,,,,165,6,3.2.2021,164.9574327
239,"['high', 3, 'low']",3,white,0.012284233,135,right,down,high,low,black_low_45-white_low_135-white_low_45-black_low_135,white_high_135_down,black_high_45_down,13,1.523708776,0.2485492,left,0.4459175,0,13,11,1,1,1,1,TRUE,FALSE,high_3_mask_low,0.75,-1,3,TRUE,7,,,,,,,,,,,,,,,,,,,165,6,3.2.2021,164.9574327
240,"['high', 2, 'high']",2,white,0.903596871,135,right,up,high,high,white_high_135-black_high_45-black_high_135-white_high_135,white_high_135_up,black_high_45_up,16,1.796244381,0.2485481,right,0.1628723,1,16,12,1,1,1,1,TRUE,FALSE,high_2_mask_high,0.75,-1,3,FALSE,6,,,,,,,,,,,,,,,,,,,165,6,3.2.2021,164.9574327
241,"['med', 3, 'high']",3,white,0.007561745,135,right,up,med,high,black_high_45-black_high_135-white_high_135-white_high_135,white_med_135_up,black_med_45_up,20,1.559927766,0.2485494,right,0.6271914,1,20,12,0,1,1,1,TRUE,FALSE,med_3_mask_high,0.75,-1,3,TRUE,8,,,,,,,,,,,,,,,,,,,165,6,3.2.2021,164.9574327
242,"['high', 3, 'low']",3,white,0.021227299,45,left,up,high,low,white_low_135-white_low_45-black_low_45-black_low_135,white_high_45_up,black_high_135_up,16,1.614488164,0.2485482,left,0.0582117,1,16,12,0,1,1,1,TRUE,FALSE,high_3_mask_low,0.75,-1,3,TRUE,8,,,,,,,,,,,,,,,,,,,165,6,3.2.2021,164.9574327
243,"['high', 3, 'low']",3,white,0.779694375,45,left,up,high,low,black_low_135-white_low_45-white_low_135-black_low_45,white_high_45_up,black_high_135_up,15,1.756047204,0.2488557,left,0.2918071,1,15,13,1,1,1,1,TRUE,FALSE,high_3_mask_low,0.75,-1,3,FALSE,8,,,,,,,,,,,,,,,,,,,165,6,3.2.2021,164.9574327
244,"['low', 2, 'high']",2,black,0.130582803,135,left,down,low,high,black_high_135-white_high_135-black_high_45-white_high_135,black_low_135_down,white_low_45_down,12,1.936259375,0.2485424,left,1.4880512,1,12,15,1,1,1,1,TRUE,FALSE,low_2_mask_high,0.75,-1,3,FALSE,6,,,,,,,,,,,,,,,,,,,165,6,3.2.2021,164.9574327
245,"['high', 3, 'low']",3,black,0.13395129,45,right,down,high,low,black_low_135-black_low_45-white_low_135-white_low_45,black_high_45_down,white_high_135_down,14,1.129522959,0.2503155,right,0.3588183,1,14,14,1,1,1,1,TRUE,FALSE,high_3_mask_low,0.75,-1,3,FALSE,8,,,,,,,,,,,,,,,,,,,165,6,3.2.2021,164.9574327
246,"['low', 3, 'low']",3,black,0.749216568,135,left,up,low,low,black_low_45-black_low_135-white_low_135-white_low_45,black_low_135_up,white_low_45_up,8,1.499501417,0.248849,right,0.1536835,0,8,11,0,1,1,1,TRUE,FALSE,low_3_mask_low,0.75,-1,3,FALSE,7,,,,,,,,,,,,,,,,,,,165,6,3.2.2021,164.9574327
247,"['med', 3, 'low']",3,black,0.916313124,45,right,up,med,low,white_low_135-black_low_135-white_low_45-black_low_45,black_med_45_up,white_med_135_up,19,1.442730775,0.2485472,right,0.138523,1,19,13,1,1,1,1,TRUE,FALSE,med_3_mask_low,0.75,-1,3,FALSE,5,,,,,,,,,,,,,,,,,,,165,6,3.2.2021,164.9574327
248,"['low', 1, 'high']",1,white,0.966664383,45,left,down,low,high,white_high_135-white_high_135-black_high_135-black_high_45,white_low_45_down,black_low_135_down,19,1.275740928,0.2485442,left,1.0813783,1,19,13,1,1,1,1,TRUE,FALSE,low_1_mask_high,0.75,-1,3,FALSE,8,,,,,,,,,,,,,,,,,,,165,6,3.2.2021,164.9574327
249,"['med', 2, 'low']",2,white,0.362787863,135,right,down,med,low,black_low_135-white_low_135-white_low_45-black_low_45,white_med_135_down,black_med_45_down,18,1.953163947,0.2485511,right,0.7073841,1,18,14,1,1,1,1,TRUE,FALSE,med_2_mask_low,0.75,-1,3,FALSE,7,,,,,,,,,,,,,,,,,,,165,6,3.2.2021,164.9574327
250,"['med', 3, 'high']",3,white,0.410570847,45,left,up,med,high,black_high_135-white_high_135-white_high_135-black_high_45,white_med_45_up,black_med_135_up,19,1.875012635,0.2485405,left,0.2219804,1,19,13,1,1,1,1,TRUE,FALSE,med_3_mask_high,0.75,-1,3,FALSE,8,,,,,,,,,,,,,,,,,,,165,6,3.2.2021,164.9574327
251,"['low', 2, 'high']",2,black,0.656440056,135,left,up,low,high,black_high_45-black_high_135-white_high_135-white_high_135,black_low_135_up,white_low_45_up,11,1.558198893,0.2485595,left,0.0964782,1,11,16,1,1,1,1,TRUE,FALSE,low_2_mask_high,0.75,-1,3,FALSE,6,,,,,,,,,,,,,,,,,,,165,6,3.2.2021,164.9574327
252,"['high', 1, 'low']",1,black,0.941443665,135,left,up,high,low,white_low_45-white_low_135-black_low_135-black_low_45,black_high_135_up,white_high_45_up,33,1.380641963,0.2488457,left,0.8934825,1,33,15,1,1,1,1,TRUE,FALSE,high_1_mask_low,0.75,-1,3,FALSE,11,,,,,,,,,,,,,,,,,,,165,6,3.2.2021,164.9574327
253,"['high', 3, 'low']",3,black,0.673031367,135,left,down,high,low,black_low_135-white_low_135-black_low_45-white_low_45,black_high_135_down,white_high_45_down,13,1.090639231,0.2503197,left,1.0689021,1,13,15,1,1,1,1,TRUE,FALSE,high_3_mask_low,0.75,-1,3,FALSE,8,,,,,,,,,,,,,,,,,,,165,6,3.2.2021,164.9574327
254,"['med', 3, 'high']",3,white,0.270773708,45,left,down,med,high,white_high_135-black_high_135-white_high_135-black_high_45,white_med_45_down,black_med_135_down,18,1.535432979,0.2485421,left,0.470231,1,18,14,1,1,1,1,TRUE,FALSE,med_3_mask_high,0.75,-1,3,FALSE,8,,,,,,,,,,,,,,,,,,,165,6,3.2.2021,164.9574327
255,"['high', 1, 'high']",1,black,0.591960863,135,left,up,high,high,white_high_135-black_high_45-black_high_135-white_high_135,black_high_135_up,white_high_45_up,22,1.436922599,0.2503212,left,0.4825321,1,22,10,0,1,1,1,TRUE,FALSE,high_1_mask_high,0.75,-1,3,TRUE,6,,,,,,,,,,,,,,,,,,,165,6,3.2.2021,164.9574327
256,"['low', 1, 'low']",1,black,0.284686358,45,right,up,low,low,white_low_135-black_low_45-black_low_135-white_low_45,black_low_45_up,white_low_135_up,20,1.752787622,0.248541,right,0.4585992,1,20,12,1,1,1,1,TRUE,FALSE,low_1_mask_low,0.75,-1,3,FALSE,8,,,,,,,,,,,,,,,,,,,165,6,3.2.2021,164.9574327
257,"['med', 1, 'low']",1,white,0.537291462,135,right,down,med,low,white_low_135-white_low_45-black_low_45-black_low_135,white_med_135_down,black_med_45_down,24,1.497902454,0.2485455,left,0.8120066,0,24,16,1,1,1,1,TRUE,FALSE,med_1_mask_low,0.75,-1,3,TRUE,11,,,,,,,,,,,,,,,,,,,165,6,3.2.2021,164.9574327
258,"['high', 3, 'low']",3,white,0.147241759,135,right,down,high,low,white_low_45-white_low_135-black_low_45-black_low_135,white_high_135_down,black_high_45_down,12,1.796927083,0.2485484,left,0.7915827,0,12,16,1,1,1,1,TRUE,FALSE,high_3_mask_low,0.75,-1,3,TRUE,9,,,,,,,,,,,,,,,,,,,165,6,3.2.2021,164.9574327
259,"['low', 3, 'low']",3,black,0.10418176,45,right,up,low,low,white_low_45-white_low_135-black_low_45-black_low_135,black_low_45_up,white_low_135_up,11,1.941164289,0.2485446,left,1.4149149,0,11,12,0,1,1,1,TRUE,FALSE,low_3_mask_low,0.75,-1,3,FALSE,7,,,,,,,,,,,,,,,,,,,165,6,3.2.2021,164.9574327
260,"['high', 3, 'high']",3,white,0.614726328,135,right,up,high,high,white_high_135-white_high_135-black_high_135-black_high_45,white_high_135_up,black_high_45_up,19,1.394799899,0.2485501,right,0.3809126,1,19,17,1,1,1,1,TRUE,FALSE,high_3_mask_high,0.75,-1,3,FALSE,6,,,,,,,,,,,,,,,,,,,165,6,3.2.2021,164.9574327
261,"['med', 2, 'high']",2,white,0.945405995,135,right,down,med,high,black_high_45-white_high_135-black_high_135-white_high_135,white_med_135_down,black_med_45_down,12,1.514403815,0.2485358,left,0.1802971,0,12,12,1,1,1,1,TRUE,FALSE,med_2_mask_high,0.75,-1,3,TRUE,8,,,,,,,,,,,,,,,,,,,165,6,3.2.2021,164.9574327
262,"['low', 2, 'low']",2,black,0.756780201,45,right,down,low,low,white_low_135-black_low_45-white_low_45-black_low_135,black_low_45_down,white_low_135_down,7,1.70295971,0.2468055,left,0.3407918,0,7,9,0,0,1,1,TRUE,FALSE,low_2_mask_low,0.75,-1,3,FALSE,3,,,,,,,,,,,,,,,,,,,165,6,3.2.2021,164.9574327
263,"['high', 1, 'high']",1,white,0.099095209,45,left,up,high,high,white_high_135-black_high_45-black_high_135-white_high_135,white_high_45_up,black_high_135_up,21,1.620279637,0.2488459,right,0.4087993,0,21,11,1,1,1,1,TRUE,FALSE,high_1_mask_high,0.75,-1,3,TRUE,7,,,,,,,,,,,,,,,,,,,165,6,3.2.2021,164.9574327
264,"['med', 2, 'high']",2,black,0.519321835,135,left,up,med,high,white_high_135-black_high_135-white_high_135-black_high_45,black_med_135_up,white_med_45_up,15,1.669322045,0.2485548,right,0.0519085,0,15,13,0,1,1,1,TRUE,FALSE,med_2_mask_high,0.75,-1,3,FALSE,8,,,,,,,,,,,,,,,,,,,165,6,3.2.2021,164.9574327
265,"['low', 3, 'high']",3,black,0.481866931,135,left,down,low,high,white_high_135-black_high_45-black_high_135-white_high_135,black_low_135_down,white_low_45_down,7,1.375932875,0.2485542,left,0.1235417,1,7,16,0,1,1,1,TRUE,FALSE,low_3_mask_high,0.75,-1,3,TRUE,7,,,,,,,,,,,,,,,,,,,165,6,3.2.2021,164.9574327
266,"['low', 1, 'low']",1,white,0.452739974,45,left,down,low,low,white_low_45-black_low_45-white_low_135-black_low_135,white_low_45_down,black_low_135_down,19,1.501475815,0.2485465,left,0.3329189,1,19,13,1,1,1,1,TRUE,FALSE,low_1_mask_low,0.75,-1,3,FALSE,8,,,,,,,,,,,,,,,,,,,165,6,3.2.2021,164.9574327
267,"['low', 2, 'low']",2,white,0.727980934,135,right,up,low,low,white_low_45-black_low_45-white_low_135-black_low_135,white_low_135_up,black_low_45_up,10,1.277759322,0.2502929,right,0.3208253,1,10,10,0,0,1,1,TRUE,FALSE,low_2_mask_low,0.75,-1,3,TRUE,4,,,,,,,,,,,,,,,,,,,165,6,3.2.2021,164.9574327
268,"['low', 1, 'low']",1,white,0.4694771,135,right,up,low,low,black_low_45-white_low_45-white_low_135-black_low_135,white_low_135_up,black_low_45_up,18,1.112391012,0.2485502,left,0.2597761,0,18,14,1,1,1,1,TRUE,FALSE,low_1_mask_low,0.75,-1,3,TRUE,9,,,,,,,,,,,,,,,,,,,165,6,3.2.2021,164.9574327
269,"['low', 3, 'high']",3,white,0.466934456,45,left,up,low,high,white_high_135-black_high_135-black_high_45-white_high_135,white_low_45_up,black_low_135_up,6,1.468206643,0.2485554,right,0.1160991,0,6,17,1,1,1,1,TRUE,FALSE,low_3_mask_high,0.75,-1,3,TRUE,8,,,,,,,,,,,,,,,,,,,165,6,3.2.2021,164.9574327
270,"['low', 1, 'high']",1,white,0.964359888,135,right,down,low,high,black_high_135-white_high_135-black_high_45-white_high_135,white_low_135_down,black_low_45_down,18,1.11949156,0.2485631,right,0.8232723,1,18,14,1,1,1,1,TRUE,FALSE,low_1_mask_high,0.75,-1,3,FALSE,8,,,,,,,,,,,,,,,,,,,165,6,3.2.2021,164.9574327
271,"['med', 2, 'low']",2,white,0.243093024,135,right,up,med,low,black_low_135-white_low_45-black_low_45-white_low_135,white_med_135_up,black_med_45_up,17,1.696615041,0.2485466,right,0.5059979,1,17,15,1,1,1,1,TRUE,FALSE,med_2_mask_low,0.75,-1,3,FALSE,7,,,,,,,,,,,,,,,,,,,165,6,3.2.2021,164.9574327
272,"['med', 2, 'low']",2,black,0.906929958,135,left,down,med,low,black_low_135-white_low_45-black_low_45-white_low_135,black_med_135_down,white_med_45_down,16,1.43069362,0.2488507,left,0.5149256,1,16,16,1,1,1,1,TRUE,FALSE,med_2_mask_low,0.75,-1,3,FALSE,7,,,,,,,,,,,,,,,,,,,165,6,3.2.2021,164.9574327
273,"['high', 3, 'high']",3,black,0.289325799,45,right,up,high,high,black_high_135-black_high_45-white_high_135-white_high_135,black_high_45_up,white_high_135_up,18,1.965451943,0.2485467,right,0.4427821,1,18,18,1,1,1,1,TRUE,FALSE,high_3_mask_high,0.75,-1,3,FALSE,6,,,,,,,,,,,,,,,,,,,165,6,3.2.2021,164.9574327
274,"['med', 1, 'high']",1,white,0.279609241,45,left,up,med,high,white_high_135-black_high_45-black_high_135-white_high_135,white_med_45_up,black_med_135_up,22,1.367898753,0.2485534,left,0.5105583,1,22,18,1,1,1,1,TRUE,FALSE,med_1_mask_high,0.75,-1,3,FALSE,5,,,,,,,,,,,,,,,,,,,165,6,3.2.2021,164.9574327
275,"['low', 2, 'high']",2,white,0.184896744,45,left,down,low,high,white_high_135-black_high_135-white_high_135-black_high_45,white_low_45_down,black_low_135_down,10,1.158867105,0.2485445,left,0.3765179,1,10,17,1,1,1,1,TRUE,FALSE,low_2_mask_high,0.75,-1,3,FALSE,6,,,,,,,,,,,,,,,,,,,165,6,3.2.2021,164.9574327
276,"['med', 2, 'low']",2,white,0.122333603,135,right,down,med,low,white_low_135-black_low_45-white_low_45-black_low_135,white_med_135_down,black_med_45_down,15,1.375389178,0.2485498,right,0.2349354,1,15,17,1,1,1,1,TRUE,FALSE,med_2_mask_low,0.75,-1,3,FALSE,7,,,,,,,,,,,,,,,,,,,165,6,3.2.2021,164.9574327
277,"['med', 1, 'high']",1,white,0.330930035,135,right,down,med,high,black_high_45-black_high_135-white_high_135-white_high_135,white_med_135_down,black_med_45_down,21,1.727375642,0.2485445,right,0.1287582,1,21,19,1,1,1,1,TRUE,FALSE,med_1_mask_high,0.75,-1,3,FALSE,5,,,,,,,,,,,,,,,,,,,165,6,3.2.2021,164.9574327
278,"['high', 1, 'high']",1,white,0.561101814,135,right,down,high,high,black_high_135-white_high_135-black_high_45-white_high_135,white_high_135_down,black_high_45_down,24,1.061977024,0.2485451,right,0.0326603,1,24,12,0,1,1,1,TRUE,FALSE,high_1_mask_high,0.75,-1,3,TRUE,8,,,,,,,,,,,,,,,,,,,165,6,3.2.2021,164.9574327
279,"['high', 1, 'high']",1,black,0.535608486,45,right,up,high,high,black_high_45-white_high_135-black_high_135-white_high_135,black_high_45_up,white_high_135_up,23,1.185753616,0.2485467,right,0.2959447,1,23,13,1,1,1,1,TRUE,FALSE,high_1_mask_high,0.75,-1,3,FALSE,8,,,,,,,,,,,,,,,,,,,165,6,3.2.2021,164.9574327
280,"['med', 1, 'low']",1,black,0.035857903,45,right,up,med,low,white_low_135-white_low_45-black_low_45-black_low_135,black_med_45_up,white_med_135_up,27,1.553653235,0.2485473,left,0.6214003,0,27,17,0,1,1,1,TRUE,FALSE,med_1_mask_low,0.75,-1,3,FALSE,11,,,,,,,,,,,,,,,,,,,165,6,3.2.2021,164.9574327
281,"['med', 2, 'high']",2,white,0.197038898,45,left,down,med,high,black_high_135-black_high_45-white_high_135-white_high_135,white_med_45_down,black_med_135_down,18,1.691489502,0.248543,left,0.3097483,1,18,14,0,1,1,1,TRUE,FALSE,med_2_mask_high,0.75,-1,3,TRUE,9,,,,,,,,,,,,,,,,,,,165,6,3.2.2021,164.9574327
282,"['med', 1, 'low']",1,white,0.502372263,135,right,down,med,low,white_low_135-white_low_45-black_low_135-black_low_45,white_med_135_down,black_med_45_down,30,1.038428546,0.2488453,right,0.1665398,1,30,18,0,1,1,1,TRUE,FALSE,med_1_mask_low,0.75,-1,3,TRUE,12,,,,,,,,,,,,,,,,,,,165,6,3.2.2021,164.9574327
283,"['high', 2, 'low']",2,black,0.991237294,45,right,up,high,low,white_low_135-black_low_45-black_low_135-white_low_45,black_high_45_up,white_high_135_up,19,1.820454265,0.2485511,right,0.2131547,1,19,13,1,1,1,1,TRUE,FALSE,high_2_mask_low,0.75,-1,3,FALSE,6,,,,,,,,,,,,,,,,,,,165,6,3.2.2021,164.9574327
284,"['low', 2, 'high']",2,black,0.446731361,45,right,down,low,high,white_high_135-black_high_45-white_high_135-black_high_135,black_low_45_down,white_low_135_down,9,1.22061824,0.248864,right,0.6458332,1,9,18,1,1,1,1,TRUE,FALSE,low_2_mask_high,0.75,-1,3,FALSE,6,,,,,,,,,,,,,,,,,,,165,6,3.2.2021,164.9574327
285,"['high', 3, 'low']",3,black,0.505590511,135,left,down,high,low,black_low_45-white_low_135-black_low_135-white_low_45,black_high_135_down,white_high_45_down,15,1.776397682,0.2485525,left,0.0262272,1,15,17,0,1,1,1,TRUE,FALSE,high_3_mask_low,0.75,-1,3,TRUE,10,,,,,,,,,,,,,,,,,,,165,6,3.2.2021,164.9574327
286,"['high', 1, 'low']",1,black,0.481177699,135,left,up,high,low,white_low_45-black_low_45-white_low_135-black_low_135,black_high_135_up,white_high_45_up,32,1.296226715,0.2485524,left,0.9508921,1,32,16,1,1,1,1,TRUE,FALSE,high_1_mask_low,0.75,-1,3,FALSE,11,,,,,,,,,,,,,,,,,,,165,6,3.2.2021,164.9574327
287,"['med', 1, 'low']",1,white,0.350110854,135,right,down,med,low,black_low_135-black_low_45-white_low_135-white_low_45,white_med_135_down,black_med_45_down,29,1.647427836,0.2485443,right,0.248181,1,29,19,1,1,1,1,TRUE,FALSE,med_1_mask_low,0.75,-1,3,FALSE,12,,,,,,,,,,,,,,,,,,,165,6,3.2.2021,164.9574327
288,"['high', 2, 'low']",2,black,0.334344825,45,right,down,high,low,white_low_135-white_low_45-black_low_135-black_low_45,black_high_45_down,white_high_135_down,18,1.275642437,0.2485487,right,0.413192,1,18,14,1,1,1,1,TRUE,FALSE,high_2_mask_low,0.75,-1,3,FALSE,6,,,,,,,,,,,,,,,,,,,165,6,3.2.2021,164.9574327
289,"['med', 3, 'high']",3,black,0.177903356,45,right,up,med,high,black_high_135-white_high_135-white_high_135-black_high_45,black_med_45_up,white_med_135_up,17,1.873861076,0.2485562,right,0.5924328,1,17,15,1,1,1,1,TRUE,FALSE,med_3_mask_high,0.75,-1,3,FALSE,8,,,,,,,,,,,,,,,,,,,165,6,3.2.2021,164.9574327
290,"['high', 2, 'high']",2,black,0.103273006,135,left,down,high,high,white_high_135-white_high_135-black_high_45-black_high_135,black_high_135_down,white_high_45_down,15,1.254152814,0.2485305,left,0.9320574,1,15,13,1,1,1,1,TRUE,FALSE,high_2_mask_high,0.75,-1,3,FALSE,6,,,,,,,,,,,,,,,,,,,165,6,3.2.2021,164.9574327
291,"['med', 1, 'low']",1,white,0.928191242,135,right,down,med,low,white_low_135-black_low_45-black_low_135-white_low_45,white_med_135_down,black_med_45_down,28,1.659195361,0.2485499,left,0.0668573,0,28,20,1,1,1,1,TRUE,FALSE,med_1_mask_low,0.75,-1,3,TRUE,13,,,,,,,,,,,,,,,,,,,165,6,3.2.2021,164.9574327
292,"['low', 3, 'high']",3,black,0.560596234,135,left,down,low,high,white_high_135-white_high_135-black_high_135-black_high_45,black_low_135_down,white_low_45_down,9,1.622654531,0.2485371,right,0.617948,0,9,18,0,1,1,1,TRUE,FALSE,low_3_mask_high,0.75,-1,3,FALSE,8,,,,,,,,,,,,,,,,,,,165,6,3.2.2021,164.9574327
293,"['med', 1, 'low']",1,black,0.534193368,45,right,up,med,low,black_low_45-black_low_135-white_low_135-white_low_45,black_med_45_up,white_med_135_up,31,1.622990349,0.2485412,right,2.5890019,1,31,21,0,1,1,1,TRUE,FALSE,med_1_mask_low,0.75,-1,3,TRUE,14,,,,,,,,,,,,,,,,,,,165,6,3.2.2021,164.9574327
294,"['high', 1, 'low']",1,white,0.608367642,45,left,up,high,low,white_low_45-black_low_135-white_low_135-black_low_45,white_high_45_up,black_high_135_up,31,1.258728244,0.2500166,left,0.2098886,1,31,17,1,1,1,1,TRUE,FALSE,high_1_mask_low,0.75,-1,3,FALSE,11,,,,,,,,,,,,,,,,,,,165,6,3.2.2021,164.9574327
295,"['high', 2, 'low']",2,black,0.407043095,135,left,up,high,low,white_low_135-white_low_45-black_low_135-black_low_45,black_high_135_up,white_high_45_up,17,1.72929341,0.2503611,left,0.1983288,1,17,15,1,1,1,1,TRUE,FALSE,high_2_mask_low,0.75,-1,3,FALSE,6,,,,,,,,,,,,,,,,,,,165,6,3.2.2021,164.9574327
296,"['low', 3, 'low']",3,black,0.167559113,45,right,up,low,low,white_low_45-black_low_135-white_low_135-black_low_45,black_low_45_up,white_low_135_up,14,1.433670783,0.2485452,left,0.3252605,0,14,13,0,1,1,1,TRUE,FALSE,low_3_mask_low,0.75,-1,3,FALSE,7,,,,,,,,,,,,,,,,,,,165,6,3.2.2021,164.9574327
297,"['low', 1, 'low']",1,white,0.427820648,135,right,down,low,low,white_low_45-black_low_135-white_low_135-black_low_45,white_low_135_down,black_low_45_down,21,1.095574343,0.2488527,right,0.4431526,1,21,15,0,1,1,1,TRUE,FALSE,low_1_mask_low,0.75,-1,3,TRUE,10,,,,,,,,,,,,,,,,,,,165,6,3.2.2021,164.9574327
298,"['med', 3, 'low']",3,black,0.023663769,135,left,up,med,low,black_low_135-white_low_45-black_low_45-white_low_135,black_med_135_up,white_med_45_up,18,1.977208961,0.2485517,right,0.6984176,0,18,14,1,1,1,1,TRUE,FALSE,med_3_mask_low,0.75,-1,3,TRUE,6,,,,,,,,,,,,,,,,,,,165,6,3.2.2021,164.9574327
299,"['low', 1, 'high']",1,black,0.854640243,45,right,up,low,high,white_high_135-black_high_45-white_high_135-black_high_135,black_low_45_up,white_low_135_up,17,1.441773828,0.2503199,left,0.1521009,0,17,15,1,1,1,1,TRUE,FALSE,low_1_mask_high,0.75,-1,3,TRUE,9,,,,,,,,,,,,,,,,,,,165,6,3.2.2021,164.9574327
300,"['high', 1, 'low']",1,black,0.478683432,135,left,down,high,low,white_low_45-black_low_135-white_low_135-black_low_45,black_high_135_down,white_high_45_down,30,1.88334129,0.2485401,right,0.3257372,0,30,18,1,1,1,1,TRUE,FALSE,high_1_mask_low,0.75,-1,3,TRUE,12,,,,,,,,,,,,,,,,,,,165,6,3.2.2021,164.9574327
301,"['high', 2, 'low']",2,white,0.874493852,45,left,up,high,low,white_low_135-black_low_135-white_low_45-black_low_45,white_high_45_up,black_high_135_up,16,1.406536375,0.2467729,left,0.1445682,1,16,16,1,1,1,1,TRUE,FALSE,high_2_mask_low,0.75,-1,3,FALSE,6,,,,,,,,,,,,,,,,,,,165,6,3.2.2021,164.9574327
302,"['low', 3, 'low']",3,white,0.700462637,135,right,up,low,low,black_low_135-white_low_135-white_low_45-black_low_45,white_low_135_up,black_low_45_up,17,1.577501779,0.2470758,right,0.1183083,1,17,14,0,1,1,1,TRUE,FALSE,low_3_mask_low,0.75,-1,3,TRUE,8,,,,,,,,,,,,,,,,,,,165,6,3.2.2021,164.9574327
303,"['low', 3, 'low']",3,white,0.988102458,45,left,down,low,low,white_low_45-white_low_135-black_low_45-black_low_135,white_low_45_down,black_low_135_down,16,1.242432267,0.2502732,right,1.2436094,0,16,15,1,1,1,1,TRUE,FALSE,low_3_mask_low,0.75,-1,3,TRUE,9,,,,,,,,,,,,,,,,,,,165,6,3.2.2021,164.9574327
304,"['med', 2, 'low']",2,white,0.468618361,45,left,down,med,low,black_low_135-white_low_135-white_low_45-black_low_45,white_med_45_down,black_med_135_down,14,1.056685487,0.2485406,right,0.2229505,0,14,18,1,1,1,1,TRUE,FALSE,med_2_mask_low,0.75,-1,3,TRUE,8,,,,,,,,,,,,,,,,,,,165,6,3.2.2021,164.9574327
305,"['med', 2, 'low']",2,white,0.836258528,45,left,down,med,low,black_low_45-black_low_135-white_low_135-white_low_45,white_med_45_down,black_med_135_down,17,1.60481782,0.2465014,left,0.3282139,1,17,19,0,1,1,1,TRUE,FALSE,med_2_mask_low,0.75,-1,3,TRUE,9,,,,,,,,,,,,,,,,,,,165,6,3.2.2021,164.9574327
306,"['high', 2, 'low']",2,white,0.605165657,135,right,down,high,low,black_low_45-white_low_45-white_low_135-black_low_135,white_high_135_down,black_high_45_down,15,1.006499191,0.2502886,right,0.2077906,1,15,17,1,1,1,1,TRUE,FALSE,high_2_mask_low,0.75,-1,3,FALSE,6,,,,,,,,,,,,,,,,,,,165,6,3.2.2021,164.9574327
307,"['high', 3, 'low']",3,black,0.320842493,45,right,up,high,low,black_low_45-white_low_135-white_low_45-black_low_135,black_high_45_up,white_high_135_up,14,1.920410797,0.2488406,right,1.221318,1,14,18,1,1,1,1,TRUE,FALSE,high_3_mask_low,0.75,-1,3,FALSE,10,,,,,,,,,,,,,,,,,,,165,6,3.2.2021,164.9574327
308,"['high', 2, 'high']",2,white,0.519083373,45,left,up,high,high,white_high_135-white_high_135-black_high_135-black_high_45,white_high_45_up,black_high_135_up,14,1.644927396,0.2482969,left,0.2870676,1,14,14,1,1,1,1,TRUE,FALSE,high_2_mask_high,0.75,-1,3,FALSE,6,,,,,,,,,,,,,,,,,,,165,6,3.2.2021,164.9574327
309,"['low', 1, 'high']",1,black,0.601535656,135,left,down,low,high,black_high_135-white_high_135-black_high_45-white_high_135,black_low_135_down,white_low_45_down,20,1.330510028,0.2485445,right,0.2749929,0,20,16,0,1,1,1,TRUE,FALSE,low_1_mask_high,0.75,-1,3,FALSE,9,,,,,,,,,,,,,,,,,,,165,6,3.2.2021,164.9574327
310,"['low', 2, 'high']",2,white,0.930951103,135,right,up,low,high,white_high_135-black_high_135-white_high_135-black_high_45,white_low_135_up,black_low_45_up,8,1.726215516,0.2485424,right,0.1033188,1,8,19,1,1,1,1,TRUE,FALSE,low_2_mask_high,0.75,-1,3,FALSE,6,,,,,,,,,,,,,,,,,,,165,6,3.2.2021,164.9574327
311,"['high', 1, 'low']",1,black,0.89963438,135,left,up,high,low,white_low_135-black_low_45-black_low_135-white_low_45,black_high_135_up,white_high_45_up,33,1.731073073,0.2467763,left,0.1808616,1,33,19,0,1,1,1,TRUE,FALSE,high_1_mask_low,0.75,-1,3,TRUE,13,,,,,,,,,,,,,,,,,,,165,6,3.2.2021,164.9574327
312,"['med', 2, 'low']",2,white,0.037401124,45,left,up,med,low,black_low_45-black_low_135-white_low_45-white_low_135,white_med_45_up,black_med_135_up,16,1.116222975,0.2485462,left,0.3455773,1,16,20,1,1,1,1,TRUE,FALSE,med_2_mask_low,0.75,-1,3,FALSE,9,,,,,,,,,,,,,,,,,,,165,6,3.2.2021,164.9574327
313,"['high', 3, 'high']",3,white,0.466467893,135,right,up,high,high,white_high_135-white_high_135-black_high_135-black_high_45,white_high_135_up,black_high_45_up,17,1.432799721,0.2488442,right,1.2315699,1,17,19,1,1,1,1,TRUE,FALSE,high_3_mask_high,0.75,-1,3,FALSE,6,,,,,,,,,,,,,,,,,,,165,6,3.2.2021,164.9574327
314,"['low', 2, 'high']",2,black,0.371710379,135,left,down,low,high,white_high_135-black_high_135-black_high_45-white_high_135,black_low_135_down,white_low_45_down,7,1.870584196,0.2450168,left,1.4233322,1,7,20,1,1,1,1,TRUE,FALSE,low_2_mask_high,0.75,-1,3,FALSE,6,,,,,,,,,,,,,,,,,,,165,6,3.2.2021,164.9574327
315,"['high', 3, 'low']",3,white,0.870739227,135,right,up,high,low,white_low_135-white_low_45-black_low_45-black_low_135,white_high_135_up,black_high_45_up,13,1.983801785,0.2485515,left,0.0884517,0,13,19,1,1,1,1,TRUE,FALSE,high_3_mask_low,0.75,-1,3,TRUE,11,,,,,,,,,,,,,,,,,,,165,6,3.2.2021,164.9574327
316,"['low', 2, 'low']",2,black,0.704119249,45,right,down,low,low,black_low_45-white_low_135-black_low_135-white_low_45,black_low_45_down,white_low_135_down,9,1.867168723,0.2485443,left,0.3009598,0,9,11,1,0,1,1,TRUE,FALSE,low_2_mask_low,0.75,-1,3,TRUE,5,,,,,,,,,,,,,,,,,,,165,6,3.2.2021,164.9574327
317,"['high', 1, 'high']",1,white,0.34437463,45,left,down,high,high,black_high_135-black_high_45-white_high_135-white_high_135,white_high_45_down,black_high_135_down,22,1.705306294,0.246757,left,0.3030765,1,22,14,1,1,1,1,TRUE,FALSE,high_1_mask_high,0.75,-1,3,FALSE,8,,,,,,,,,,,,,,,,,,,165,6,3.2.2021,164.9574327
318,"['med', 1, 'low']",1,black,0.420246798,45,right,down,med,low,white_low_45-black_low_135-white_low_135-black_low_45,black_med_45_down,white_med_135_down,30,1.703991823,0.2485469,right,0.7168121,1,30,22,1,1,1,1,TRUE,FALSE,med_1_mask_low,0.75,-1,3,FALSE,14,,,,,,,,,,,,,,,,,,,165,6,3.2.2021,164.9574327
319,"['low', 2, 'high']",2,black,0.945006268,45,right,up,low,high,white_high_135-white_high_135-black_high_45-black_high_135,black_low_45_up,white_low_135_up,6,1.496589736,0.2450074,right,0.2457927,1,6,21,1,1,1,1,TRUE,FALSE,low_2_mask_high,0.75,-1,3,FALSE,6,,,,,,,,,,,,,,,,,,,165,6,3.2.2021,164.9574327
320,"['med', 3, 'low']",3,white,0.545534473,135,right,down,med,low,black_low_45-white_low_135-white_low_45-black_low_135,white_med_135_down,black_med_45_down,21,1.839301495,0.2488474,right,0.2777899,1,21,15,0,1,1,1,TRUE,FALSE,med_3_mask_low,0.75,-1,3,TRUE,7,,,,,,,,,,,,,,,,,,,165,6,3.2.2021,164.9574327
321,"['high', 1, 'high']",1,white,0.442746234,135,right,up,high,high,black_high_45-white_high_135-white_high_135-black_high_135,white_high_135_up,black_high_45_up,21,1.850566879,0.2485576,left,0.1333161,0,21,15,1,1,1,1,TRUE,FALSE,high_1_mask_high,0.75,-1,3,TRUE,9,,,,,,,,,,,,,,,,,,,165,6,3.2.2021,164.9574327
322,"['med', 3, 'low']",3,black,0.160059669,45,right,up,med,low,white_low_45-black_low_45-white_low_135-black_low_135,black_med_45_up,white_med_135_up,20,1.288283277,0.2506322,right,0.5098107,1,20,16,1,1,1,1,TRUE,FALSE,med_3_mask_low,0.75,-1,3,FALSE,7,,,,,,,,,,,,,,,,,,,165,6,3.2.2021,164.9574327
323,"['high', 2, 'high']",2,white,0.035392969,45,left,up,high,high,black_high_45-black_high_135-white_high_135-white_high_135,white_high_45_up,black_high_135_up,13,1.520314248,0.2502953,right,0.2010373,0,13,15,1,1,1,1,TRUE,FALSE,high_2_mask_high,0.75,-1,3,TRUE,7,,,,,,,,,,,,,,,,,,,165,6,3.2.2021,164.9574327
324,"['low', 2, 'low']",2,black,0.340946789,135,left,down,low,low,black_low_45-white_low_45-black_low_135-white_low_135,black_low_135_down,white_low_45_down,12,1.787463025,0.2485506,left,1.3970369,1,12,12,0,1,1,1,TRUE,FALSE,low_2_mask_low,0.75,-1,3,TRUE,6,,,,,,,,,,,,,,,,,,,165,6,3.2.2021,164.9574327
