trial_number,trial_type,cycle_number,first_color,phase,first_orientation,correct_response,visual_field,spatial_frequency,mask_type,mask_images,first_stim,second_stim,stimulus_frame_duration,fixation_duration,mask_duration,answer,rt,accuracy,staircase_dv,staircase_trial_num,staircase_previous_correct,staircase_phase,staircase_step_size,staircase_powers_law,staircase_siam,staircase_over,staircase_name,staircase_conv_p,staircase_step_hit,staircase_step_miss,staircase_reversal,staircase_reversal_num,threshold_low1_mask_low,threshold_low2_mask_low,threshold_low3_mask_low,threshold_high1_mask_low,threshold_high2_mask_low,threshold_high3_mask_low,threshold_low1_mask_high,threshold_low2_mask_high,threshold_low3_mask_high,threshold_high1_mask_high,threshold_high2_mask_high,threshold_high3_mask_high,threshold_med1_mask_low,threshold_med2_mask_low,threshold_med3_mask_low,threshold_med1_mask_high,threshold_med2_mask_high,threshold_med3_mask_high,frame_rate,participant,psychopyVersion,frame_rate_detected
0,"['low', 2, 'low']",2,white,0.628801384,45,left,down,low,low,black_low_45-white_low_135-black_low_135-white_low_45,white_low_45_down,black_low_135_down,3,1.46203282,0.2466924,right,0.5704988,0,3,0,None,0,1,1,TRUE,FALSE,low_2_mask_low,0.75,-1,3,FALSE,0,,,,,,,,,,,,,,,,,,,165,9,3.2.2021,164.8965027
1,"['low', 3, 'high']",3,black,0.624484089,45,right,down,low,high,white_high_135-white_high_135-black_high_135-black_high_45,black_low_45_down,white_low_135_down,3,1.014678833,0.248548,left,0.0724877,0,3,0,None,0,1,1,TRUE,FALSE,low_3_mask_high,0.75,-1,3,FALSE,0,,,,,,,,,,,,,,,,,,,165,9,3.2.2021,164.8965027
2,"['low', 1, 'low']",1,white,0.567021149,45,left,down,low,low,white_low_135-white_low_45-black_low_45-black_low_135,white_low_45_down,black_low_135_down,8,1.823016023,0.2469681,left,0.6353325,1,8,0,None,0,1,1,TRUE,FALSE,low_1_mask_low,0.75,-1,3,FALSE,0,,,,,,,,,,,,,,,,,,,165,9,3.2.2021,164.8965027
3,"['low', 2, 'high']",2,black,0.224589249,45,right,up,low,high,black_high_45-white_high_135-white_high_135-black_high_135,black_low_45_up,white_low_135_up,3,1.397091214,0.2488596,right,0.4086607,1,3,0,None,0,1,1,TRUE,FALSE,low_2_mask_high,0.75,-1,3,FALSE,0,,,,,,,,,,,,,,,,,,,165,9,3.2.2021,164.8965027
4,"['med', 1, 'high']",1,black,0.825555512,45,right,down,med,high,black_high_135-white_high_135-white_high_135-black_high_45,black_med_45_down,white_med_135_down,12,1.57410338,0.2449741,left,0.5396428,0,12,0,None,0,1,1,TRUE,FALSE,med_1_mask_high,0.75,-1,3,FALSE,0,,,,,,,,,,,,,,,,,,,165,9,3.2.2021,164.8965027
5,"['low', 2, 'high']",2,white,0.192217176,135,right,down,low,high,black_high_135-white_high_135-black_high_45-white_high_135,white_low_135_down,black_low_45_down,2,1.562846942,0.2485415,right,0.1049833,1,2,1,1,0,1,1,TRUE,FALSE,low_2_mask_high,0.75,-1,3,FALSE,0,,,,,,,,,,,,,,,,,,,165,9,3.2.2021,164.8965027
6,"['high', 1, 'high']",1,black,0.095045177,135,left,up,high,high,black_high_45-black_high_135-white_high_135-white_high_135,black_high_135_up,white_high_45_up,12,1.104129163,0.2485111,left,0.7057194,1,12,0,None,0,1,1,TRUE,FALSE,high_1_mask_high,0.75,-1,3,FALSE,0,,,,,,,,,,,,,,,,,,,165,9,3.2.2021,164.8965027
7,"['high', 1, 'high']",1,black,0.479393359,45,right,up,high,high,black_high_45-white_high_135-white_high_135-black_high_135,black_high_45_up,white_high_135_up,11,1.8899911,0.2485444,left,0.4196486,0,11,1,1,0,1,1,TRUE,FALSE,high_1_mask_high,0.75,-1,3,TRUE,1,,,,,,,,,,,,,,,,,,,165,9,3.2.2021,164.8965027
8,"['med', 1, 'high']",1,white,0.603531186,135,right,up,med,high,white_high_135-black_high_45-black_high_135-white_high_135,white_med_135_up,black_med_45_up,15,1.642959271,0.2485204,right,0.4069046,1,15,1,0,0,1,1,TRUE,FALSE,med_1_mask_high,0.75,-1,3,TRUE,1,,,,,,,,,,,,,,,,,,,165,9,3.2.2021,164.8965027
9,"['high', 3, 'high']",3,white,0.986190581,135,right,up,high,high,white_high_135-white_high_135-black_high_45-black_high_135,white_high_135_up,black_high_45_up,8,1.639973971,0.2485402,right,1.0502162,1,8,0,None,0,1,1,TRUE,FALSE,high_3_mask_high,0.75,-1,3,FALSE,0,,,,,,,,,,,,,,,,,,,165,9,3.2.2021,164.8965027
10,"['low', 1, 'low']",1,black,0.855703957,45,right,up,low,low,white_low_45-white_low_135-black_low_135-black_low_45,black_low_45_up,white_low_135_up,7,1.497864109,0.2467164,left,1.403423,0,7,1,1,0,1,1,TRUE,FALSE,low_1_mask_low,0.75,-1,3,TRUE,1,,,,,,,,,,,,,,,,,,,165,9,3.2.2021,164.8965027
11,"['med', 1, 'high']",1,white,0.112621113,135,right,up,med,high,black_high_45-white_high_135-black_high_135-white_high_135,white_med_135_up,black_med_45_up,14,1.551170553,0.2503271,right,0.6335908,1,14,2,1,0,1,1,TRUE,FALSE,med_1_mask_high,0.75,-1,3,FALSE,1,,,,,,,,,,,,,,,,,,,165,9,3.2.2021,164.8965027
12,"['low', 1, 'low']",1,white,0.926150751,45,left,up,low,low,white_low_135-black_low_135-black_low_45-white_low_45,white_low_45_up,black_low_135_up,10,1.576108679,0.2485403,left,0.9421505,1,10,2,0,0,1,1,TRUE,FALSE,low_1_mask_low,0.75,-1,3,TRUE,2,,,,,,,,,,,,,,,,,,,165,9,3.2.2021,164.8965027
13,"['low', 1, 'low']",1,black,0.726765547,135,left,down,low,low,white_low_135-black_low_135-white_low_45-black_low_45,black_low_135_down,white_low_45_down,9,1.581922089,0.2467517,right,0.55505,0,9,3,1,0,1,1,TRUE,FALSE,low_1_mask_low,0.75,-1,3,TRUE,3,,,,,,,,,,,,,,,,,,,165,9,3.2.2021,164.8965027
14,"['low', 1, 'low']",1,black,0.050623594,45,right,down,low,low,black_low_45-black_low_135-white_low_135-white_low_45,black_low_45_down,white_low_135_down,12,1.010380387,0.2502837,left,1.0435152,0,12,4,0,0,1,1,TRUE,FALSE,low_1_mask_low,0.75,-1,3,FALSE,3,,,,,,,,,,,,,,,,,,,165,9,3.2.2021,164.8965027
15,"['med', 2, 'high']",2,white,0.380563104,135,right,down,med,high,white_high_135-white_high_135-black_high_135-black_high_45,white_med_135_down,black_med_45_down,8,1.099643042,0.2502997,right,0.8293614,1,8,0,None,0,1,1,TRUE,FALSE,med_2_mask_high,0.75,-1,3,FALSE,0,,,,,,,,,,,,,,,,,,,165,9,3.2.2021,164.8965027
16,"['med', 1, 'low']",1,white,0.154404534,135,right,down,med,low,white_low_45-black_low_135-black_low_45-white_low_135,white_med_135_down,black_med_45_down,12,1.142001594,0.2502911,right,0.449825,1,12,0,None,0,1,1,TRUE,FALSE,med_1_mask_low,0.75,-1,3,FALSE,0,,,,,,,,,,,,,,,,,,,165,9,3.2.2021,164.8965027
17,"['high', 2, 'low']",2,white,0.72541276,45,left,up,high,low,black_low_45-white_low_135-white_low_45-black_low_135,white_high_45_up,black_high_135_up,8,1.693097238,0.2485489,left,0.6477793,1,8,0,None,0,1,1,TRUE,FALSE,high_2_mask_low,0.75,-1,3,FALSE,0,,,,,,,,,,,,,,,,,,,165,9,3.2.2021,164.8965027
18,"['high', 3, 'low']",3,black,0.137686069,45,right,up,high,low,black_low_45-white_low_135-white_low_45-black_low_135,black_high_45_up,white_high_135_up,8,1.728192896,0.2485464,right,1.6647271,1,8,0,None,0,1,1,TRUE,FALSE,high_3_mask_low,0.75,-1,3,FALSE,0,,,,,,,,,,,,,,,,,,,165,9,3.2.2021,164.8965027
19,"['high', 3, 'low']",3,black,0.680694758,135,left,down,high,low,black_low_45-white_low_45-white_low_135-black_low_135,black_high_135_down,white_high_45_down,7,1.935240794,0.2467688,right,0.6200256,0,7,1,1,0,1,1,TRUE,FALSE,high_3_mask_low,0.75,-1,3,TRUE,1,,,,,,,,,,,,,,,,,,,165,9,3.2.2021,164.8965027
20,"['low', 3, 'high']",3,white,0.90075072,45,left,down,low,high,black_high_45-black_high_135-white_high_135-white_high_135,white_low_45_down,black_low_135_down,6,1.508471772,0.2485411,left,0.4409351,1,6,1,0,0,1,1,TRUE,FALSE,low_3_mask_high,0.75,-1,3,TRUE,1,,,,,,,,,,,,,,,,,,,165,9,3.2.2021,164.8965027
21,"['low', 2, 'high']",2,black,0.096048141,45,right,up,low,high,white_high_135-black_high_135-white_high_135-black_high_45,black_low_45_up,white_low_135_up,1,1.866647866,0.2467342,left,1.3277257,0,1,2,1,0,1,1,TRUE,FALSE,low_2_mask_high,0.75,-1,3,TRUE,1,,,,,,,,,,,,,,,,,,,165,9,3.2.2021,164.8965027
22,"['low', 2, 'high']",2,black,0.769737961,135,left,down,low,high,black_high_135-white_high_135-white_high_135-black_high_45,black_low_135_down,white_low_45_down,4,1.138126646,0.2485384,right,0.6235978,0,4,3,0,0,1,1,TRUE,FALSE,low_2_mask_high,0.75,-1,3,FALSE,1,,,,,,,,,,,,,,,,,,,165,9,3.2.2021,164.8965027
23,"['low', 2, 'low']",2,white,0.506459438,135,right,down,low,low,white_low_45-black_low_135-white_low_135-black_low_45,white_low_135_down,black_low_45_down,6,1.913818552,0.2485585,right,0.4674157,1,6,1,0,0,1,1,TRUE,FALSE,low_2_mask_low,0.75,-1,3,TRUE,1,,,,,,,,,,,,,,,,,,,165,9,3.2.2021,164.8965027
24,"['low', 1, 'low']",1,white,0.363080541,135,right,up,low,low,white_low_135-black_low_135-black_low_45-white_low_45,white_low_135_up,black_low_45_up,15,1.478578455,0.2488445,right,0.9913219,1,15,5,0,0,1,1,TRUE,FALSE,low_1_mask_low,0.75,-1,3,TRUE,4,,,,,,,,,,,,,,,,,,,165,9,3.2.2021,164.8965027
25,"['low', 1, 'high']",1,white,0.39651039,135,right,down,low,high,black_high_135-white_high_135-white_high_135-black_high_45,white_low_135_down,black_low_45_down,8,1.425811922,0.250347,right,0.6154451,1,8,0,None,0,1,1,TRUE,FALSE,low_1_mask_high,0.75,-1,3,FALSE,0,,,,,,,,,,,,,,,,,,,165,9,3.2.2021,164.8965027
26,"['high', 1, 'high']",1,black,0.095644087,135,left,up,high,high,black_high_45-white_high_135-black_high_135-white_high_135,black_high_135_up,white_high_45_up,14,1.422910257,0.2485264,right,0.6740641,0,14,2,0,0,1,1,TRUE,FALSE,high_1_mask_high,0.75,-1,3,FALSE,1,,,,,,,,,,,,,,,,,,,165,9,3.2.2021,164.8965027
27,"['low', 2, 'low']",2,white,0.507933429,135,right,down,low,low,white_low_135-white_low_45-black_low_45-black_low_135,white_low_135_down,black_low_45_down,5,1.799090762,0.2485532,right,0.1397182,1,5,2,1,0,1,1,TRUE,FALSE,low_2_mask_low,0.75,-1,3,FALSE,1,,,,,,,,,,,,,,,,,,,165,9,3.2.2021,164.8965027
28,"['med', 2, 'low']",2,white,0.27885372,45,left,down,med,low,black_low_45-black_low_135-white_low_135-white_low_45,white_med_45_down,black_med_135_down,8,1.220416534,0.2485401,left,0.3213943,1,8,0,None,0,1,1,TRUE,FALSE,med_2_mask_low,0.75,-1,3,FALSE,0,,,,,,,,,,,,,,,,,,,165,9,3.2.2021,164.8965027
29,"['med', 2, 'low']",2,white,0.670327979,135,right,up,med,low,black_low_135-white_low_135-black_low_45-white_low_45,white_med_135_up,black_med_45_up,7,1.103522854,0.2485521,right,0.3420267,1,7,1,1,0,1,1,TRUE,FALSE,med_2_mask_low,0.75,-1,3,FALSE,0,,,,,,,,,,,,,,,,,,,165,9,3.2.2021,164.8965027
30,"['med', 2, 'low']",2,white,0.600566153,45,left,up,med,low,white_low_45-white_low_135-black_low_135-black_low_45,white_med_45_up,black_med_135_up,6,1.431162275,0.2485428,right,1.459952,0,6,2,1,0,1,1,TRUE,FALSE,med_2_mask_low,0.75,-1,3,TRUE,1,,,,,,,,,,,,,,,,,,,165,9,3.2.2021,164.8965027
31,"['high', 3, 'high']",3,white,0.210544601,45,left,up,high,high,black_high_45-white_high_135-white_high_135-black_high_135,white_high_45_up,black_high_135_up,7,1.394910525,0.2503223,right,1.5165996,0,7,1,1,0,1,1,TRUE,FALSE,high_3_mask_high,0.75,-1,3,TRUE,1,,,,,,,,,,,,,,,,,,,165,9,3.2.2021,164.8965027
32,"['high', 1, 'low']",1,black,0.578817504,45,right,up,high,low,black_low_45-white_low_45-black_low_135-white_low_135,black_high_45_up,white_high_135_up,12,1.687010593,0.2450084,left,0.6115526,0,12,0,None,0,1,1,TRUE,FALSE,high_1_mask_low,0.75,-1,3,FALSE,0,,,,,,,,,,,,,,,,,,,165,9,3.2.2021,164.8965027
33,"['med', 3, 'low']",3,white,0.814324074,135,right,up,med,low,black_low_45-white_low_45-black_low_135-white_low_135,white_med_135_up,black_med_45_up,8,1.140998289,0.2485384,right,1.0025822,1,8,0,None,0,1,1,TRUE,FALSE,med_3_mask_low,0.75,-1,3,FALSE,0,,,,,,,,,,,,,,,,,,,165,9,3.2.2021,164.8965027
34,"['med', 2, 'high']",2,black,0.739626036,45,right,down,med,high,white_high_135-black_high_135-white_high_135-black_high_45,black_med_45_down,white_med_135_down,7,1.100154984,0.2451213,left,0.4085016,0,7,1,1,0,1,1,TRUE,FALSE,med_2_mask_high,0.75,-1,3,TRUE,1,,,,,,,,,,,,,,,,,,,165,9,3.2.2021,164.8965027
35,"['med', 1, 'low']",1,black,0.024732716,135,left,up,med,low,black_low_135-white_low_135-white_low_45-black_low_45,black_med_135_up,white_med_45_up,11,1.32007747,0.2485423,left,1.1761784,1,11,1,1,0,1,1,TRUE,FALSE,med_1_mask_low,0.75,-1,3,FALSE,0,,,,,,,,,,,,,,,,,,,165,9,3.2.2021,164.8965027
36,"['high', 1, 'high']",1,black,0.036780578,45,right,down,high,high,white_high_135-white_high_135-black_high_135-black_high_45,black_high_45_down,white_high_135_down,17,1.143833,0.2485483,left,0.6070115,0,17,3,0,0,1,1,TRUE,FALSE,high_1_mask_high,0.75,-1,3,FALSE,1,,,,,,,,,,,,,,,,,,,165,9,3.2.2021,164.8965027
37,"['med', 3, 'low']",3,white,0.692252306,135,right,down,med,low,black_low_135-white_low_135-white_low_45-black_low_45,white_med_135_down,black_med_45_down,7,1.386471133,0.2485424,right,0.4086688,1,7,1,1,0,1,1,TRUE,FALSE,med_3_mask_low,0.75,-1,3,FALSE,0,,,,,,,,,,,,,,,,,,,165,9,3.2.2021,164.8965027
38,"['low', 2, 'high']",2,white,0.759955597,45,left,down,low,high,white_high_135-black_high_135-white_high_135-black_high_45,white_low_45_down,black_low_135_down,7,1.249974294,0.2485481,left,0.4044332,1,7,4,0,0,1,1,TRUE,FALSE,low_2_mask_high,0.75,-1,3,TRUE,2,,,,,,,,,,,,,,,,,,,165,9,3.2.2021,164.8965027
39,"['high', 3, 'high']",3,black,0.52220666,45,right,up,high,high,white_high_135-white_high_135-black_high_45-black_high_135,black_high_45_up,white_high_135_up,10,1.135550661,0.2485514,right,0.1763624,1,10,2,0,0,1,1,TRUE,FALSE,high_3_mask_high,0.75,-1,3,TRUE,2,,,,,,,,,,,,,,,,,,,165,9,3.2.2021,164.8965027
40,"['high', 3, 'low']",3,white,0.252319652,135,right,down,high,low,black_low_135-white_low_135-white_low_45-black_low_45,white_high_135_down,black_high_45_down,10,1.349253185,0.2485441,right,2.5435614,1,10,2,0,0,1,1,TRUE,FALSE,high_3_mask_low,0.75,-1,3,TRUE,2,,,,,,,,,,,,,,,,,,,165,9,3.2.2021,164.8965027
41,"['low', 2, 'low']",2,white,0.716305843,45,left,down,low,low,black_low_45-white_low_135-black_low_135-white_low_45,white_low_45_down,black_low_135_down,4,1.995011305,0.2467148,right,1.1383096,0,4,3,1,0,1,1,TRUE,FALSE,low_2_mask_low,0.75,-1,3,TRUE,2,,,,,,,,,,,,,,,,,,,165,9,3.2.2021,164.8965027
42,"['med', 3, 'high']",3,white,0.515131018,135,right,up,med,high,white_high_135-black_high_135-white_high_135-black_high_45,white_med_135_up,black_med_45_up,8,1.266886445,0.2485486,left,0.5116697,0,8,0,None,0,1,1,TRUE,FALSE,med_3_mask_high,0.75,-1,3,FALSE,0,,,,,,,,,,,,,,,,,,,165,9,3.2.2021,164.8965027
43,"['high', 2, 'high']",2,white,0.55048305,135,right,up,high,high,black_high_45-black_high_135-white_high_135-white_high_135,white_high_135_up,black_high_45_up,8,1.904850816,0.2485439,right,0.5057136,1,8,0,None,0,1,1,TRUE,FALSE,high_2_mask_high,0.75,-1,3,FALSE,0,,,,,,,,,,,,,,,,,,,165,9,3.2.2021,164.8965027
44,"['low', 3, 'low']",3,white,0.553602786,45,left,down,low,low,black_low_45-black_low_135-white_low_135-white_low_45,white_low_45_down,black_low_135_down,3,1.632043859,0.2485412,left,0.3578948,1,3,0,None,0,1,1,TRUE,FALSE,low_3_mask_low,0.75,-1,3,FALSE,0,,,,,,,,,,,,,,,,,,,165,9,3.2.2021,164.8965027
45,"['high', 1, 'high']",1,black,0.764519286,135,left,down,high,high,black_high_45-black_high_135-white_high_135-white_high_135,black_high_135_down,white_high_45_down,20,1.603807244,0.2485324,right,0.3235722,0,20,4,0,0,1,1,TRUE,FALSE,high_1_mask_high,0.75,-1,3,FALSE,1,,,,,,,,,,,,,,,,,,,165,9,3.2.2021,164.8965027
46,"['high', 2, 'high']",2,black,0.373659127,135,left,down,high,high,white_high_135-black_high_45-black_high_135-white_high_135,black_high_135_down,white_high_45_down,7,1.493076328,0.2485442,right,0.3784283,0,7,1,1,0,1,1,TRUE,FALSE,high_2_mask_high,0.75,-1,3,TRUE,1,,,,,,,,,,,,,,,,,,,165,9,3.2.2021,164.8965027
47,"['high', 3, 'high']",3,white,0.779519488,45,left,up,high,high,black_high_135-black_high_45-white_high_135-white_high_135,white_high_45_up,black_high_135_up,9,1.43231773,0.2485507,right,2.2731848,0,9,3,1,0,1,1,TRUE,FALSE,high_3_mask_high,0.75,-1,3,TRUE,3,,,,,,,,,,,,,,,,,,,165,9,3.2.2021,164.8965027
48,"['low', 3, 'low']",3,black,0.919239617,135,left,up,low,low,black_low_45-white_low_135-black_low_135-white_low_45,black_low_135_up,white_low_45_up,2,1.058098409,0.2485383,right,1.6486695,0,2,1,1,0,1,1,TRUE,FALSE,low_3_mask_low,0.75,-1,3,TRUE,1,,,,,,,,,,,,,,,,,,,165,9,3.2.2021,164.8965027
49,"['med', 3, 'low']",3,black,0.669867755,135,left,down,med,low,black_low_45-white_low_45-black_low_135-white_low_135,black_med_135_down,white_med_45_down,6,1.491957828,0.2485634,left,0.368221,1,6,2,1,0,1,1,TRUE,FALSE,med_3_mask_low,0.75,-1,3,FALSE,0,,,,,,,,,,,,,,,,,,,165,9,3.2.2021,164.8965027
50,"['med', 1, 'low']",1,black,0.95450391,135,left,up,med,low,white_low_135-black_low_135-white_low_45-black_low_45,black_med_135_up,white_med_45_up,10,1.116184088,0.2485469,right,2.5246006,0,10,2,1,0,1,1,TRUE,FALSE,med_1_mask_low,0.75,-1,3,TRUE,1,,,,,,,,,,,,,,,,,,,165,9,3.2.2021,164.8965027
51,"['low', 1, 'low']",1,white,0.265508444,45,left,down,low,low,white_low_45-black_low_45-white_low_135-black_low_135,white_low_45_down,black_low_135_down,14,1.800378525,0.2485516,left,0.4213454,1,14,6,1,0,1,1,TRUE,FALSE,low_1_mask_low,0.75,-1,3,FALSE,4,,,,,,,,,,,,,,,,,,,165,9,3.2.2021,164.8965027
52,"['high', 2, 'high']",2,white,0.571685947,45,left,down,high,high,black_high_45-white_high_135-black_high_135-white_high_135,white_high_45_down,black_high_135_down,10,1.232004127,0.2485414,right,1.1893764,0,10,2,0,0,1,1,TRUE,FALSE,high_2_mask_high,0.75,-1,3,FALSE,1,,,,,,,,,,,,,,,,,,,165,9,3.2.2021,164.8965027
53,"['high', 3, 'high']",3,black,0.144953604,45,right,down,high,high,black_high_45-white_high_135-white_high_135-black_high_135,black_high_45_down,white_high_135_down,12,1.067657274,0.2503209,right,0.7450204,1,12,4,0,0,1,1,TRUE,FALSE,high_3_mask_high,0.75,-1,3,TRUE,4,,,,,,,,,,,,,,,,,,,165,9,3.2.2021,164.8965027
54,"['low', 1, 'high']",1,black,0.398593457,135,left,up,low,high,black_high_45-white_high_135-black_high_135-white_high_135,black_low_135_up,white_low_45_up,7,1.187792148,0.2485459,right,0.4815605,0,7,1,1,0,1,1,TRUE,FALSE,low_1_mask_high,0.75,-1,3,TRUE,1,,,,,,,,,,,,,,,,,,,165,9,3.2.2021,164.8965027
55,"['med', 1, 'high']",1,white,0.434229385,45,left,down,med,high,white_high_135-black_high_135-black_high_45-white_high_135,white_med_45_down,black_med_135_down,13,1.086361142,0.2488446,left,0.2566733,1,13,3,1,0,1,1,TRUE,FALSE,med_1_mask_high,0.75,-1,3,FALSE,1,,,,,,,,,,,,,,,,,,,165,9,3.2.2021,164.8965027
56,"['low', 3, 'high']",3,black,0.117371445,135,left,down,low,high,white_high_135-black_high_135-white_high_135-black_high_45,black_low_135_down,white_low_45_down,5,1.9741057,0.2449809,right,1.3764666,0,5,2,1,0,1,1,TRUE,FALSE,low_3_mask_high,0.75,-1,3,TRUE,2,,,,,,,,,,,,,,,,,,,165,9,3.2.2021,164.8965027
57,"['high', 2, 'low']",2,white,0.209682156,45,left,up,high,low,black_low_45-black_low_135-white_low_135-white_low_45,white_high_45_up,black_high_135_up,7,1.074237912,0.2485432,right,0.3190562,0,7,1,1,0,1,1,TRUE,FALSE,high_2_mask_low,0.75,-1,3,TRUE,1,,,,,,,,,,,,,,,,,,,165,9,3.2.2021,164.8965027
58,"['low', 2, 'high']",2,black,0.826296378,45,right,up,low,high,white_high_135-white_high_135-black_high_45-black_high_135,black_low_45_up,white_low_135_up,6,1.031840885,0.2485435,left,0.4649825,0,6,5,1,0,1,1,TRUE,FALSE,low_2_mask_high,0.75,-1,3,TRUE,3,,,,,,,,,,,,,,,,,,,165,9,3.2.2021,164.8965027
59,"['med', 1, 'high']",1,white,0.369347013,135,right,down,med,high,black_high_135-white_high_135-white_high_135-black_high_45,white_med_135_down,black_med_45_down,12,1.273434434,0.2485241,left,0.225575,0,12,4,1,0,1,1,TRUE,FALSE,med_1_mask_high,0.75,-1,3,TRUE,2,,,,,,,,,,,,,,,,,,,165,9,3.2.2021,164.8965027
60,"['med', 2, 'high']",2,white,0.951236238,45,left,up,med,high,white_high_135-black_high_45-white_high_135-black_high_135,white_med_45_up,black_med_135_up,10,1.747848073,0.2467297,right,1.933183,0,10,2,0,0,1,1,TRUE,FALSE,med_2_mask_high,0.75,-1,3,FALSE,1,,,,,,,,,,,,,,,,,,,165,9,3.2.2021,164.8965027
61,"['med', 2, 'low']",2,black,0.782030421,45,right,down,med,low,black_low_135-white_low_45-black_low_45-white_low_135,black_med_45_down,white_med_135_down,9,1.352593603,0.2485366,left,0.4306832,0,9,3,0,0,1,1,TRUE,FALSE,med_2_mask_low,0.75,-1,3,FALSE,1,,,,,,,,,,,,,,,,,,,165,9,3.2.2021,164.8965027
62,"['high', 3, 'high']",3,black,0.015588002,45,right,down,high,high,black_high_135-white_high_135-white_high_135-black_high_45,black_high_45_down,white_high_135_down,11,1.074394161,0.2485389,right,0.4376873,1,11,5,1,0,1,1,TRUE,FALSE,high_3_mask_high,0.75,-1,3,FALSE,4,,,,,,,,,,,,,,,,,,,165,9,3.2.2021,164.8965027
63,"['high', 2, 'high']",2,white,0.141662359,135,right,up,high,high,black_high_135-white_high_135-white_high_135-black_high_45,white_high_135_up,black_high_45_up,13,1.06299876,0.2485508,right,0.8361722,1,13,3,0,0,1,1,TRUE,FALSE,high_2_mask_high,0.75,-1,3,TRUE,2,,,,,,,,,,,,,,,,,,,165,9,3.2.2021,164.8965027
64,"['low', 1, 'low']",1,white,0.358588385,45,left,up,low,low,white_low_45-black_low_135-white_low_135-black_low_45,white_low_45_up,black_low_135_up,13,1.868376562,0.245031,left,0.3135619,1,13,7,1,0,1,1,TRUE,FALSE,low_1_mask_low,0.75,-1,3,FALSE,4,,,,,,,,,,,,,,,,,,,165,9,3.2.2021,164.8965027
65,"['low', 1, 'high']",1,white,0.764599171,45,left,up,low,high,white_high_135-white_high_135-black_high_45-black_high_135,white_low_45_up,black_low_135_up,10,1.644136494,0.2485479,left,0.253145,1,10,2,0,0,1,1,TRUE,FALSE,low_1_mask_high,0.75,-1,3,TRUE,2,,,,,,,,,,,,,,,,,,,165,9,3.2.2021,164.8965027
66,"['high', 3, 'low']",3,white,0.055301429,135,right,down,high,low,black_low_135-black_low_45-white_low_135-white_low_45,white_high_135_down,black_high_45_down,9,1.509572145,0.2485454,right,0.4300387,1,9,3,1,0,1,1,TRUE,FALSE,high_3_mask_low,0.75,-1,3,FALSE,2,,,,,,,,,,,,,,,,,,,165,9,3.2.2021,164.8965027
67,"['high', 2, 'low']",2,white,0.897007893,45,left,down,high,low,white_low_135-black_low_135-white_low_45-black_low_45,white_high_45_down,black_high_135_down,10,1.81291343,0.2451088,left,0.3240819,1,10,2,0,0,1,1,TRUE,FALSE,high_2_mask_low,0.75,-1,3,TRUE,2,,,,,,,,,,,,,,,,,,,165,9,3.2.2021,164.8965027
68,"['med', 2, 'low']",2,black,0.698962748,135,left,up,med,low,black_low_135-white_low_135-white_low_45-black_low_45,black_med_135_up,white_med_45_up,12,1.658316639,0.2485438,right,2.4022561,0,12,4,0,0,1,1,TRUE,FALSE,med_2_mask_low,0.75,-1,3,FALSE,1,,,,,,,,,,,,,,,,,,,165,9,3.2.2021,164.8965027
69,"['high', 3, 'low']",3,black,0.700859233,135,left,down,high,low,black_low_135-black_low_45-white_low_45-white_low_135,black_high_135_down,white_high_45_down,8,1.752158862,0.2485441,left,0.2009779,1,8,4,1,0,1,1,TRUE,FALSE,high_3_mask_low,0.75,-1,3,FALSE,2,,,,,,,,,,,,,,,,,,,165,9,3.2.2021,164.8965027
70,"['low', 2, 'high']",2,white,0.528274431,135,right,up,low,high,black_high_135-white_high_135-white_high_135-black_high_45,white_low_135_up,black_low_45_up,9,1.753526969,0.2467406,right,0.3279453,1,9,6,0,0,1,1,TRUE,FALSE,low_2_mask_high,0.75,-1,3,TRUE,4,,,,,,,,,,,,,,,,,,,165,9,3.2.2021,164.8965027
71,"['high', 3, 'high']",3,black,0.400042959,135,left,down,high,high,black_high_135-white_high_135-black_high_45-white_high_135,black_high_135_down,white_high_45_down,10,1.149055767,0.2485391,left,0.0933315,1,10,6,1,0,1,1,TRUE,FALSE,high_3_mask_high,0.75,-1,3,FALSE,4,,,,,,,,,,,,,,,,,,,165,9,3.2.2021,164.8965027
72,"['med', 2, 'high']",2,white,0.961363589,135,right,down,med,high,black_high_45-white_high_135-black_high_135-white_high_135,white_med_135_down,black_med_45_down,13,1.686922115,0.2485445,right,0.0791452,1,13,3,0,0,1,1,TRUE,FALSE,med_2_mask_high,0.75,-1,3,TRUE,2,,,,,,,,,,,,,,,,,,,165,9,3.2.2021,164.8965027
73,"['high', 2, 'low']",2,white,0.416210115,45,left,up,high,low,black_low_45-white_low_135-black_low_135-white_low_45,white_high_45_up,black_high_135_up,9,1.655248464,0.2467069,left,1.0266512,1,9,3,1,0,1,1,TRUE,FALSE,high_2_mask_low,0.75,-1,3,FALSE,2,,,,,,,,,,,,,,,,,,,165,9,3.2.2021,164.8965027
74,"['low', 2, 'high']",2,black,0.867579107,135,left,down,low,high,black_high_135-white_high_135-black_high_45-white_high_135,black_low_135_down,white_low_45_down,8,1.563434087,0.2485448,left,0.58102,1,8,7,1,0,1,1,TRUE,FALSE,low_2_mask_high,0.75,-1,3,FALSE,4,,,,,,,,,,,,,,,,,,,165,9,3.2.2021,164.8965027
75,"['med', 1, 'high']",1,black,0.372868461,135,left,up,med,high,black_high_45-white_high_135-black_high_135-white_high_135,black_med_135_up,white_med_45_up,15,1.224662836,0.246778,right,0.9499774,0,15,5,0,0,1,1,TRUE,FALSE,med_1_mask_high,0.75,-1,3,FALSE,2,,,,,,,,,,,,,,,,,,,165,9,3.2.2021,164.8965027
76,"['med', 3, 'low']",3,white,0.011581484,135,right,up,med,low,black_low_135-white_low_135-white_low_45-black_low_45,white_med_135_up,black_med_45_up,5,1.101506701,0.2467767,left,0.5948786,0,5,3,1,0,1,1,TRUE,FALSE,med_3_mask_low,0.75,-1,3,TRUE,1,,,,,,,,,,,,,,,,,,,165,9,3.2.2021,164.8965027
77,"['med', 1, 'low']",1,white,0.533758405,45,left,up,med,low,black_low_45-white_low_135-black_low_135-white_low_45,white_med_45_up,black_med_135_up,13,1.959987878,0.2485422,left,0.2103358,1,13,3,0,0,1,1,TRUE,FALSE,med_1_mask_low,0.75,-1,3,TRUE,2,,,,,,,,,,,,,,,,,,,165,9,3.2.2021,164.8965027
78,"['low', 1, 'low']",1,black,0.032673114,45,right,down,low,low,white_low_135-white_low_45-black_low_45-black_low_135,black_low_45_down,white_low_135_down,12,1.443751965,0.2485399,left,0.2852808,0,12,8,1,0,1,1,TRUE,FALSE,low_1_mask_low,0.75,-1,3,TRUE,5,,,,,,,,,,,,,,,,,,,165,9,3.2.2021,164.8965027
79,"['med', 3, 'low']",3,white,0.148028129,135,right,down,med,low,black_low_135-white_low_45-black_low_45-white_low_135,white_med_135_down,black_med_45_down,8,1.57585412,0.2485458,right,0.3135389,1,8,4,0,0,1,1,TRUE,FALSE,med_3_mask_low,0.75,-1,3,TRUE,2,,,,,,,,,,,,,,,,,,,165,9,3.2.2021,164.8965027
80,"['high', 2, 'high']",2,white,0.676119694,45,left,up,high,high,white_high_135-white_high_135-black_high_135-black_high_45,white_high_45_up,black_high_135_up,12,1.717212497,0.2485462,right,0.3865412,0,12,4,1,0,1,1,TRUE,FALSE,high_2_mask_high,0.75,-1,3,TRUE,3,,,,,,,,,,,,,,,,,,,165,9,3.2.2021,164.8965027
81,"['low', 1, 'high']",1,white,0.076572739,45,left,down,low,high,white_high_135-black_high_45-black_high_135-white_high_135,white_low_45_down,black_low_135_down,9,1.77195253,0.2488526,left,0.1952792,1,9,3,1,0,1,1,TRUE,FALSE,low_1_mask_high,0.75,-1,3,FALSE,2,,,,,,,,,,,,,,,,,,,165,9,3.2.2021,164.8965027
82,"['low', 3, 'low']",3,black,0.11074668,135,left,down,low,low,black_low_135-white_low_45-black_low_45-white_low_135,black_low_135_down,white_low_45_down,5,1.142245396,0.2485528,left,0.7658067,1,5,2,0,0,1,1,TRUE,FALSE,low_3_mask_low,0.75,-1,3,TRUE,2,,,,,,,,,,,,,,,,,,,165,9,3.2.2021,164.8965027
83,"['low', 1, 'low']",1,white,0.298845055,45,left,down,low,low,white_low_135-white_low_45-black_low_45-black_low_135,white_low_45_down,black_low_135_down,15,1.800523195,0.2467107,left,0.2307263,1,15,9,0,1,1,1,TRUE,FALSE,low_1_mask_low,0.75,-1,3,TRUE,6,,,,,,,,,,,,,,,,,,,165,9,3.2.2021,164.8965027
84,"['high', 1, 'high']",1,white,0.887373042,45,left,up,high,high,white_high_135-black_high_135-black_high_45-white_high_135,white_high_45_up,black_high_135_up,23,1.892822515,0.2467808,right,0.5585503,0,23,5,0,0,1,1,TRUE,FALSE,high_1_mask_high,0.75,-1,3,FALSE,1,,,,,,,,,,,,,,,,,,,165,9,3.2.2021,164.8965027
85,"['med', 2, 'low']",2,white,0.911016673,135,right,down,med,low,white_low_135-white_low_45-black_low_45-black_low_135,white_med_135_down,black_med_45_down,15,1.636056278,0.2485449,left,0.5872637,0,15,5,0,0,1,1,TRUE,FALSE,med_2_mask_low,0.75,-1,3,FALSE,1,,,,,,,,,,,,,,,,,,,165,9,3.2.2021,164.8965027
86,"['med', 3, 'low']",3,white,0.213459468,135,right,down,med,low,white_low_135-white_low_45-black_low_135-black_low_45,white_med_135_down,black_med_45_down,7,1.286565105,0.2467704,right,1.0914832,1,7,5,1,0,1,1,TRUE,FALSE,med_3_mask_low,0.75,-1,3,FALSE,2,,,,,,,,,,,,,,,,,,,165,9,3.2.2021,164.8965027
87,"['low', 1, 'high']",1,white,0.055888193,135,right,up,low,high,white_high_135-white_high_135-black_high_135-black_high_45,white_low_135_up,black_low_45_up,8,1.545756973,0.2467391,right,0.6237197,1,8,4,1,0,1,1,TRUE,FALSE,low_1_mask_high,0.75,-1,3,FALSE,2,,,,,,,,,,,,,,,,,,,165,9,3.2.2021,164.8965027
88,"['low', 3, 'low']",3,black,0.889474613,135,left,down,low,low,white_low_45-black_low_135-white_low_135-black_low_45,black_low_135_down,white_low_45_down,4,1.658187022,0.2485436,left,0.5038443,1,4,3,1,0,1,1,TRUE,FALSE,low_3_mask_low,0.75,-1,3,FALSE,2,,,,,,,,,,,,,,,,,,,165,9,3.2.2021,164.8965027
89,"['high', 3, 'high']",3,black,0.837471249,135,left,up,high,high,white_high_135-black_high_135-white_high_135-black_high_45,black_high_135_up,white_high_45_up,9,1.68777635,0.2485402,right,0.4679549,0,9,7,1,0,1,1,TRUE,FALSE,high_3_mask_high,0.75,-1,3,TRUE,5,,,,,,,,,,,,,,,,,,,165,9,3.2.2021,164.8965027
90,"['med', 1, 'high']",1,white,0.967762457,45,left,up,med,high,white_high_135-white_high_135-black_high_45-black_high_135,white_med_45_up,black_med_135_up,18,1.259636985,0.2485426,left,1.3701129,1,18,6,0,0,1,1,TRUE,FALSE,med_1_mask_high,0.75,-1,3,TRUE,3,,,,,,,,,,,,,,,,,,,165,9,3.2.2021,164.8965027
91,"['low', 2, 'low']",2,black,0.731099571,45,right,up,low,low,black_low_45-white_low_45-white_low_135-black_low_135,black_low_45_up,white_low_135_up,7,1.979049773,0.2485493,right,1.3778263,1,7,4,0,0,1,1,TRUE,FALSE,low_2_mask_low,0.75,-1,3,TRUE,3,,,,,,,,,,,,,,,,,,,165,9,3.2.2021,164.8965027
92,"['low', 3, 'low']",3,black,0.902809708,135,left,down,low,low,black_low_45-white_low_135-white_low_45-black_low_135,black_low_135_down,white_low_45_down,3,1.858280282,0.2449784,right,3.6509111,0,3,4,1,0,1,1,TRUE,FALSE,low_3_mask_low,0.75,-1,3,TRUE,3,,,,,,,,,,,,,,,,,,,165,9,3.2.2021,164.8965027
93,"['high', 2, 'high']",2,black,0.431592906,45,right,up,high,high,white_high_135-black_high_135-white_high_135-black_high_45,black_high_45_up,white_high_135_up,15,1.350694197,0.2485502,right,0.6826723,1,15,5,0,0,1,1,TRUE,FALSE,high_2_mask_high,0.75,-1,3,TRUE,4,,,,,,,,,,,,,,,,,,,165,9,3.2.2021,164.8965027
94,"['med', 2, 'low']",2,black,0.353845402,45,right,up,med,low,black_low_45-white_low_135-white_low_45-black_low_135,black_med_45_up,white_med_135_up,18,1.564877134,0.2485379,left,0.70581,0,18,6,0,0,1,1,TRUE,FALSE,med_2_mask_low,0.75,-1,3,FALSE,1,,,,,,,,,,,,,,,,,,,165,9,3.2.2021,164.8965027
95,"['med', 1, 'high']",1,white,0.893462166,135,right,up,med,high,white_high_135-black_high_135-black_high_45-white_high_135,white_med_135_up,black_med_45_up,17,1.097413281,0.2485508,right,0.917448,1,17,7,1,0,1,1,TRUE,FALSE,med_1_mask_high,0.75,-1,3,FALSE,3,,,,,,,,,,,,,,,,,,,165,9,3.2.2021,164.8965027
96,"['med', 3, 'high']",3,white,0.554240702,45,left,up,med,high,white_high_135-black_high_135-black_high_45-white_high_135,white_med_45_up,black_med_135_up,11,1.020477534,0.2467738,left,0.3006058,1,11,1,0,0,1,1,TRUE,FALSE,med_3_mask_high,0.75,-1,3,TRUE,1,,,,,,,,,,,,,,,,,,,165,9,3.2.2021,164.8965027
97,"['low', 3, 'low']",3,white,0.450522299,135,right,up,low,low,white_low_45-white_low_135-black_low_45-black_low_135,white_low_135_up,black_low_45_up,6,1.442617712,0.2467784,left,0.1422728,0,6,5,0,0,1,1,TRUE,FALSE,low_3_mask_low,0.75,-1,3,FALSE,3,,,,,,,,,,,,,,,,,,,165,9,3.2.2021,164.8965027
98,"['high', 1, 'low']",1,white,0.563310716,45,left,down,high,low,white_low_135-white_low_45-black_low_135-black_low_45,white_high_45_down,black_high_135_down,15,1.945053271,0.2485444,left,0.1230851,1,15,1,0,0,1,1,TRUE,FALSE,high_1_mask_low,0.75,-1,3,TRUE,1,,,,,,,,,,,,,,,,,,,165,9,3.2.2021,164.8965027
99,"['med', 3, 'low']",3,black,0.060531705,135,left,down,med,low,black_low_135-white_low_135-black_low_45-white_low_45,black_med_135_down,white_med_45_down,6,1.025644334,0.2488432,right,0.5473683,0,6,6,1,0,1,1,TRUE,FALSE,med_3_mask_low,0.75,-1,3,TRUE,3,,,,,,,,,,,,,,,,,,,165,9,3.2.2021,164.8965027
100,"['high', 1, 'low']",1,white,0.606554629,135,right,up,high,low,white_low_45-white_low_135-black_low_45-black_low_135,white_high_135_up,black_high_45_up,14,1.21334229,0.248548,right,2.469791,1,14,2,1,0,1,1,TRUE,FALSE,high_1_mask_low,0.75,-1,3,FALSE,1,,,,,,,,,,,,,,,,,,,165,9,3.2.2021,164.8965027
101,"['med', 3, 'high']",3,black,0.940785093,45,right,down,med,high,black_high_45-white_high_135-black_high_135-white_high_135,black_med_45_down,white_med_135_down,10,1.269286977,0.2485457,left,0.440875,0,10,2,1,0,1,1,TRUE,FALSE,med_3_mask_high,0.75,-1,3,TRUE,2,,,,,,,,,,,,,,,,,,,165,9,3.2.2021,164.8965027
102,"['high', 1, 'low']",1,white,0.798165256,45,left,up,high,low,white_low_45-black_low_135-black_low_45-white_low_135,white_high_45_up,black_high_135_up,13,1.88427842,0.2485392,left,0.267223,1,13,3,1,0,1,1,TRUE,FALSE,high_1_mask_low,0.75,-1,3,FALSE,1,,,,,,,,,,,,,,,,,,,165,9,3.2.2021,164.8965027
103,"['high', 3, 'high']",3,black,0.77647243,135,left,down,high,high,black_high_45-white_high_135-white_high_135-black_high_135,black_high_135_down,white_high_45_down,12,1.337310022,0.2488419,left,0.5552691,1,12,8,0,1,1,1,TRUE,FALSE,high_3_mask_high,0.75,-1,3,TRUE,6,,,,,,,,,,,,,,,,,,,165,9,3.2.2021,164.8965027
104,"['med', 2, 'low']",2,black,0.759809646,45,right,up,med,low,black_low_45-white_low_135-black_low_135-white_low_45,black_med_45_up,white_med_135_up,21,1.120257725,0.2485496,left,0.6948972,0,21,7,0,0,1,1,TRUE,FALSE,med_2_mask_low,0.75,-1,3,FALSE,1,,,,,,,,,,,,,,,,,,,165,9,3.2.2021,164.8965027
105,"['high', 2, 'low']",2,white,0.815189668,135,right,down,high,low,white_low_135-black_low_135-black_low_45-white_low_45,white_high_135_down,black_high_45_down,8,1.702959614,0.2485609,right,0.3566658,1,8,4,1,0,1,1,TRUE,FALSE,high_2_mask_low,0.75,-1,3,FALSE,2,,,,,,,,,,,,,,,,,,,165,9,3.2.2021,164.8965027
106,"['med', 3, 'high']",3,white,0.348164191,135,right,down,med,high,black_high_45-black_high_135-white_high_135-white_high_135,white_med_135_down,black_med_45_down,13,1.000206842,0.2485478,right,0.4135579,1,13,3,0,0,1,1,TRUE,FALSE,med_3_mask_high,0.75,-1,3,TRUE,3,,,,,,,,,,,,,,,,,,,165,9,3.2.2021,164.8965027
107,"['med', 3, 'high']",3,black,0.064124599,135,left,down,med,high,white_high_135-white_high_135-black_high_135-black_high_45,black_med_135_down,white_med_45_down,12,1.921948287,0.2485418,right,0.348215,0,12,4,1,0,1,1,TRUE,FALSE,med_3_mask_high,0.75,-1,3,TRUE,4,,,,,,,,,,,,,,,,,,,165,9,3.2.2021,164.8965027
108,"['med', 1, 'low']",1,black,0.044787918,135,left,up,med,low,white_low_135-white_low_45-black_low_135-black_low_45,black_med_135_up,white_med_45_up,12,1.573699624,0.2466982,right,0.2380768,0,12,4,1,0,1,1,TRUE,FALSE,med_1_mask_low,0.75,-1,3,TRUE,3,,,,,,,,,,,,,,,,,,,165,9,3.2.2021,164.8965027
109,"['high', 2, 'high']",2,black,0.151266275,45,right,down,high,high,black_high_135-white_high_135-white_high_135-black_high_45,black_high_45_down,white_high_135_down,14,1.383389028,0.2502888,right,0.6153349,1,14,6,1,0,1,1,TRUE,FALSE,high_2_mask_high,0.75,-1,3,FALSE,4,,,,,,,,,,,,,,,,,,,165,9,3.2.2021,164.8965027
110,"['med', 3, 'low']",3,white,0.907172987,45,left,down,med,low,black_low_45-white_low_45-black_low_135-white_low_135,white_med_45_down,black_med_135_down,9,1.630695199,0.2485419,left,0.476749,1,9,7,0,0,1,1,TRUE,FALSE,med_3_mask_low,0.75,-1,3,TRUE,4,,,,,,,,,,,,,,,,,,,165,9,3.2.2021,164.8965027
111,"['low', 3, 'high']",3,black,0.627157132,45,right,down,low,high,white_high_135-black_high_45-black_high_135-white_high_135,black_low_45_down,white_low_135_down,8,1.382922775,0.2485439,right,0.2490641,1,8,3,0,0,1,1,TRUE,FALSE,low_3_mask_high,0.75,-1,3,TRUE,3,,,,,,,,,,,,,,,,,,,165,9,3.2.2021,164.8965027
112,"['low', 3, 'high']",3,black,0.653534856,45,right,up,low,high,white_high_135-black_high_45-white_high_135-black_high_135,black_low_45_up,white_low_135_up,7,1.251819353,0.2485437,right,0.1067743,1,7,4,1,0,1,1,TRUE,FALSE,low_3_mask_high,0.75,-1,3,FALSE,3,,,,,,,,,,,,,,,,,,,165,9,3.2.2021,164.8965027
113,"['low', 3, 'low']",3,black,0.260952257,45,right,down,low,low,white_low_45-white_low_135-black_low_45-black_low_135,black_low_45_down,white_low_135_down,9,1.337746688,0.2485492,right,0.2212798,1,9,6,0,0,1,1,TRUE,FALSE,low_3_mask_low,0.75,-1,3,TRUE,4,,,,,,,,,,,,,,,,,,,165,9,3.2.2021,164.8965027
114,"['med', 1, 'high']",1,black,0.772679396,45,right,up,med,high,black_high_45-white_high_135-white_high_135-black_high_135,black_med_45_up,white_med_135_up,16,1.086689467,0.2485416,left,0.1089392,0,16,8,1,0,1,1,TRUE,FALSE,med_1_mask_high,0.75,-1,3,TRUE,4,,,,,,,,,,,,,,,,,,,165,9,3.2.2021,164.8965027
115,"['med', 1, 'low']",1,black,0.839743221,45,right,down,med,low,black_low_45-white_low_135-black_low_135-white_low_45,black_med_45_down,white_med_135_down,15,1.705563775,0.2485452,right,1.617588,1,15,5,0,0,1,1,TRUE,FALSE,med_1_mask_low,0.75,-1,3,TRUE,4,,,,,,,,,,,,,,,,,,,165,9,3.2.2021,164.8965027
116,"['low', 3, 'high']",3,black,0.853236426,135,left,down,low,high,white_high_135-black_high_45-black_high_135-white_high_135,black_low_135_down,white_low_45_down,6,1.882731219,0.248562,left,0.2158224,1,6,5,1,0,1,1,TRUE,FALSE,low_3_mask_high,0.75,-1,3,FALSE,3,,,,,,,,,,,,,,,,,,,165,9,3.2.2021,164.8965027
117,"['high', 2, 'low']",2,white,0.348839473,135,right,up,high,low,black_low_135-white_low_135-black_low_45-white_low_45,white_high_135_up,black_high_45_up,7,1.191207755,0.2467718,right,1.0093231,1,7,5,1,0,1,1,TRUE,FALSE,high_2_mask_low,0.75,-1,3,FALSE,2,,,,,,,,,,,,,,,,,,,165,9,3.2.2021,164.8965027
118,"['med', 2, 'high']",2,black,0.780585294,45,right,down,med,high,black_high_45-white_high_135-white_high_135-black_high_135,black_med_45_down,white_med_135_down,12,1.894866338,0.2485418,right,2.3669125,1,12,4,1,0,1,1,TRUE,FALSE,med_2_mask_high,0.75,-1,3,FALSE,2,,,,,,,,,,,,,,,,,,,165,9,3.2.2021,164.8965027
119,"['low', 1, 'high']",1,black,0.196191418,135,left,down,low,high,black_high_45-white_high_135-white_high_135-black_high_135,black_low_135_down,white_low_45_down,7,1.495897637,0.2500173,right,0.4452361,0,7,5,1,0,1,1,TRUE,FALSE,low_1_mask_high,0.75,-1,3,TRUE,3,,,,,,,,,,,,,,,,,,,165,9,3.2.2021,164.8965027
120,"['high', 1, 'high']",1,black,0.893359715,45,right,down,high,high,black_high_135-black_high_45-white_high_135-white_high_135,black_high_45_down,white_high_135_down,26,1.609294487,0.2503043,left,0.4822323,0,26,6,0,0,1,1,TRUE,FALSE,high_1_mask_high,0.75,-1,3,FALSE,1,,,,,,,,,,,,,,,,,,,165,9,3.2.2021,164.8965027
121,"['low', 3, 'high']",3,black,0.585230726,135,left,up,low,high,black_high_135-black_high_45-white_high_135-white_high_135,black_low_135_up,white_low_45_up,5,1.816527146,0.2488505,right,0.4517412,0,5,6,1,0,1,1,TRUE,FALSE,low_3_mask_high,0.75,-1,3,TRUE,4,,,,,,,,,,,,,,,,,,,165,9,3.2.2021,164.8965027
122,"['high', 3, 'high']",3,black,0.575851735,135,left,down,high,high,black_high_135-white_high_135-white_high_135-black_high_45,black_high_135_down,white_high_45_down,11,1.884753377,0.2485549,left,0.4204699,1,11,9,1,1,1,1,TRUE,FALSE,high_3_mask_high,0.75,-1,3,FALSE,6,,,,,,,,,,,,,,,,,,,165,9,3.2.2021,164.8965027
123,"['low', 3, 'low']",3,black,0.943033175,135,left,up,low,low,white_low_45-black_low_135-white_low_135-black_low_45,black_low_135_up,white_low_45_up,8,1.373631709,0.2485405,left,0.2588262,1,8,7,1,0,1,1,TRUE,FALSE,low_3_mask_low,0.75,-1,3,FALSE,4,,,,,,,,,,,,,,,,,,,165,9,3.2.2021,164.8965027
124,"['low', 2, 'low']",2,black,0.833037162,135,left,down,low,low,white_low_45-black_low_135-black_low_45-white_low_135,black_low_135_down,white_low_45_down,6,1.163849443,0.248557,left,0.126537,1,6,5,1,0,1,1,TRUE,FALSE,low_2_mask_low,0.75,-1,3,FALSE,3,,,,,,,,,,,,,,,,,,,165,9,3.2.2021,164.8965027
125,"['med', 2, 'low']",2,white,0.393600698,135,right,up,med,low,black_low_135-white_low_45-black_low_45-white_low_135,white_med_135_up,black_med_45_up,24,1.22675167,0.2485511,right,0.5019765,1,24,8,0,0,1,1,TRUE,FALSE,med_2_mask_low,0.75,-1,3,TRUE,2,,,,,,,,,,,,,,,,,,,165,9,3.2.2021,164.8965027
126,"['high', 1, 'high']",1,black,0.843999535,135,left,up,high,high,white_high_135-black_high_45-white_high_135-black_high_135,black_high_135_up,white_high_45_up,29,1.018031238,0.2485507,left,2.1720241,1,29,7,0,0,1,1,TRUE,FALSE,high_1_mask_high,0.75,-1,3,TRUE,2,,,,,,,,,,,,,,,,,,,165,9,3.2.2021,164.8965027
127,"['high', 2, 'high']",2,white,0.921353752,135,right,up,high,high,white_high_135-white_high_135-black_high_135-black_high_45,white_high_135_up,black_high_45_up,13,1.971258222,0.2485422,right,0.7809779,1,13,7,1,0,1,1,TRUE,FALSE,high_2_mask_high,0.75,-1,3,FALSE,4,,,,,,,,,,,,,,,,,,,165,9,3.2.2021,164.8965027
128,"['med', 2, 'low']",2,white,0.80046693,45,left,up,med,low,black_low_45-white_low_45-black_low_135-white_low_135,white_med_45_up,black_med_135_up,23,1.899722344,0.2485505,left,0.2098371,1,23,9,1,0,1,1,TRUE,FALSE,med_2_mask_low,0.75,-1,3,FALSE,2,,,,,,,,,,,,,,,,,,,165,9,3.2.2021,164.8965027
129,"['low', 1, 'low']",1,black,0.433019286,45,right,up,low,low,white_low_135-white_low_45-black_low_135-black_low_45,black_low_45_up,white_low_135_up,14,1.037429378,0.2485481,left,0.7349748,0,14,10,1,1,1,1,TRUE,FALSE,low_1_mask_low,0.75,-1,3,TRUE,7,,,,,,,,,,,,,,,,,,,165,9,3.2.2021,164.8965027
130,"['med', 2, 'low']",2,white,0.176996642,135,right,up,med,low,white_low_45-white_low_135-black_low_135-black_low_45,white_med_135_up,black_med_45_up,22,1.985827789,0.2485234,right,0.3886852,1,22,10,1,0,1,1,TRUE,FALSE,med_2_mask_low,0.75,-1,3,FALSE,2,,,,,,,,,,,,,,,,,,,165,9,3.2.2021,164.8965027
131,"['low', 1, 'low']",1,black,0.886704599,135,left,down,low,low,white_low_135-white_low_45-black_low_135-black_low_45,black_low_135_down,white_low_45_down,17,1.120958969,0.2467743,left,0.6155284,1,17,11,0,1,1,1,TRUE,FALSE,low_1_mask_low,0.75,-1,3,TRUE,8,,,,,,,,,,,,,,,,,,,165,9,3.2.2021,164.8965027
132,"['low', 1, 'low']",1,white,0.677583465,45,left,up,low,low,black_low_45-white_low_45-white_low_135-black_low_135,white_low_45_up,black_low_135_up,16,1.394492194,0.2467725,right,1.4197763,0,16,12,1,1,1,1,TRUE,FALSE,low_1_mask_low,0.75,-1,3,TRUE,9,,,,,,,,,,,,,,,,,,,165,9,3.2.2021,164.8965027
133,"['low', 2, 'low']",2,white,0.145092389,45,left,down,low,low,white_low_45-white_low_135-black_low_135-black_low_45,white_low_45_down,black_low_135_down,5,1.523197473,0.2485466,right,1.3889981,0,5,6,1,0,1,1,TRUE,FALSE,low_2_mask_low,0.75,-1,3,TRUE,4,,,,,,,,,,,,,,,,,,,165,9,3.2.2021,164.8965027
134,"['med', 2, 'low']",2,white,0.539998424,45,left,down,med,low,white_low_45-white_low_135-black_low_135-black_low_45,white_med_45_down,black_med_135_down,21,1.914179297,0.2485509,left,1.6260732,1,21,11,1,0,1,1,TRUE,FALSE,med_2_mask_low,0.75,-1,3,FALSE,2,,,,,,,,,,,,,,,,,,,165,9,3.2.2021,164.8965027
135,"['high', 2, 'high']",2,black,0.903962378,45,right,up,high,high,white_high_135-white_high_135-black_high_135-black_high_45,black_high_45_up,white_high_135_up,12,1.467995017,0.2485397,right,0.6953243,1,12,8,1,0,1,1,TRUE,FALSE,high_2_mask_high,0.75,-1,3,FALSE,4,,,,,,,,,,,,,,,,,,,165,9,3.2.2021,164.8965027
136,"['low', 1, 'high']",1,white,0.406737746,45,left,up,low,high,white_high_135-black_high_45-white_high_135-black_high_135,white_low_45_up,black_low_135_up,10,1.609762993,0.2467749,left,0.5176651,1,10,6,0,0,1,1,TRUE,FALSE,low_1_mask_high,0.75,-1,3,TRUE,4,,,,,,,,,,,,,,,,,,,165,9,3.2.2021,164.8965027
137,"['med', 2, 'low']",2,black,0.759643173,45,right,down,med,low,white_low_135-black_low_45-black_low_135-white_low_45,black_med_45_down,white_med_135_down,20,1.656431573,0.2485795,left,0.6288046,0,20,12,1,0,1,1,TRUE,FALSE,med_2_mask_low,0.75,-1,3,TRUE,3,,,,,,,,,,,,,,,,,,,165,9,3.2.2021,164.8965027
138,"['low', 1, 'low']",1,white,0.917139052,135,right,up,low,low,white_low_45-white_low_135-black_low_45-black_low_135,white_low_135_up,black_low_45_up,19,1.891463368,0.2485399,right,0.4309176,1,19,13,0,1,1,1,TRUE,FALSE,low_1_mask_low,0.75,-1,3,TRUE,10,,,,,,,,,,,,,,,,,,,165,9,3.2.2021,164.8965027
139,"['med', 3, 'high']",3,white,0.20004525,45,left,up,med,high,white_high_135-black_high_45-white_high_135-black_high_135,white_med_45_up,black_med_135_up,15,1.633672046,0.2485527,left,1.0684051,1,15,5,0,0,1,1,TRUE,FALSE,med_3_mask_high,0.75,-1,3,TRUE,5,,,,,,,,,,,,,,,,,,,165,9,3.2.2021,164.8965027
140,"['med', 1, 'high']",1,white,0.965312852,135,right,up,med,high,black_high_135-black_high_45-white_high_135-white_high_135,white_med_135_up,black_med_45_up,19,1.807615934,0.2485598,right,0.5746958,1,19,9,0,0,1,1,TRUE,FALSE,med_1_mask_high,0.75,-1,3,TRUE,5,,,,,,,,,,,,,,,,,,,165,9,3.2.2021,164.8965027
141,"['med', 2, 'high']",2,black,0.467127489,135,left,up,med,high,black_high_135-white_high_135-white_high_135-black_high_45,black_med_135_up,white_med_45_up,11,1.114970272,0.2502862,right,2.2585364,0,11,5,1,0,1,1,TRUE,FALSE,med_2_mask_high,0.75,-1,3,TRUE,3,,,,,,,,,,,,,,,,,,,165,9,3.2.2021,164.8965027
142,"['low', 1, 'high']",1,black,0.792137151,45,right,up,low,high,white_high_135-white_high_135-black_high_45-black_high_135,black_low_45_up,white_low_135_up,9,1.488266179,0.250011,left,0.3480648,0,9,7,1,0,1,1,TRUE,FALSE,low_1_mask_high,0.75,-1,3,TRUE,5,,,,,,,,,,,,,,,,,,,165,9,3.2.2021,164.8965027
143,"['low', 2, 'low']",2,white,0.522402625,45,left,down,low,low,black_low_135-black_low_45-white_low_45-white_low_135,white_low_45_down,black_low_135_down,8,1.747444062,0.2485493,left,0.3186428,1,8,7,0,0,1,1,TRUE,FALSE,low_2_mask_low,0.75,-1,3,TRUE,5,,,,,,,,,,,,,,,,,,,165,9,3.2.2021,164.8965027
144,"['med', 2, 'high']",2,black,0.656626437,135,left,up,med,high,black_high_45-white_high_135-black_high_135-white_high_135,black_med_135_up,white_med_45_up,14,1.406120821,0.2485441,right,0.4907379,0,14,6,0,0,1,1,TRUE,FALSE,med_2_mask_high,0.75,-1,3,FALSE,3,,,,,,,,,,,,,,,,,,,165,9,3.2.2021,164.8965027
145,"['med', 1, 'high']",1,white,0.973265579,135,right,up,med,high,white_high_135-black_high_45-black_high_135-white_high_135,white_med_135_up,black_med_45_up,18,1.936762606,0.2485447,right,0.2887746,1,18,10,1,1,1,1,TRUE,FALSE,med_1_mask_high,0.75,-1,3,FALSE,5,,,,,,,,,,,,,,,,,,,165,9,3.2.2021,164.8965027
146,"['high', 2, 'low']",2,black,0.486231098,135,left,down,high,low,white_low_135-white_low_45-black_low_135-black_low_45,black_high_135_down,white_high_45_down,6,1.926195096,0.2467711,right,0.4456723,0,6,6,1,0,1,1,TRUE,FALSE,high_2_mask_low,0.75,-1,3,TRUE,3,,,,,,,,,,,,,,,,,,,165,9,3.2.2021,164.8965027
147,"['low', 3, 'low']",3,white,0.020819735,45,left,up,low,low,black_low_45-white_low_45-black_low_135-white_low_135,white_low_45_up,black_low_135_up,7,1.253068538,0.2467758,left,0.199047,1,7,8,1,0,1,1,TRUE,FALSE,low_3_mask_low,0.75,-1,3,FALSE,4,,,,,,,,,,,,,,,,,,,165,9,3.2.2021,164.8965027
148,"['med', 3, 'high']",3,black,0.044612622,45,right,up,med,high,white_high_135-white_high_135-black_high_135-black_high_45,black_med_45_up,white_med_135_up,14,1.129391451,0.2488572,right,0.0538049,1,14,6,1,1,1,1,TRUE,FALSE,med_3_mask_high,0.75,-1,3,FALSE,5,,,,,,,,,,,,,,,,,,,165,9,3.2.2021,164.8965027
149,"['low', 2, 'low']",2,white,0.602072319,45,left,down,low,low,black_low_45-black_low_135-white_low_135-white_low_45,white_low_45_down,black_low_135_down,7,1.44547868,0.2467333,left,0.0545828,1,7,8,1,1,1,1,TRUE,FALSE,low_2_mask_low,0.75,-1,3,FALSE,5,,,,,,,,,,,,,,,,,,,165,9,3.2.2021,164.8965027
150,"['med', 2, 'high']",2,white,0.789888183,135,right,up,med,high,white_high_135-black_high_45-white_high_135-black_high_135,white_med_135_up,black_med_45_up,17,1.927813694,0.2485411,right,0.6011146,1,17,7,0,0,1,1,TRUE,FALSE,med_2_mask_high,0.75,-1,3,TRUE,4,,,,,,,,,,,,,,,,,,,165,9,3.2.2021,164.8965027
151,"['high', 3, 'low']",3,white,0.362296979,45,left,up,high,low,white_low_135-black_low_45-white_low_45-black_low_135,white_high_45_up,black_high_135_up,7,1.377003726,0.2485419,left,0.3583116,1,7,5,1,0,1,1,TRUE,FALSE,high_3_mask_low,0.75,-1,3,FALSE,2,,,,,,,,,,,,,,,,,,,165,9,3.2.2021,164.8965027
152,"['high', 3, 'low']",3,black,0.841015575,45,right,up,high,low,white_low_45-black_low_45-black_low_135-white_low_135,black_high_45_up,white_high_135_up,6,1.83682,0.2485429,left,1.145515,0,6,6,1,0,1,1,TRUE,FALSE,high_3_mask_low,0.75,-1,3,TRUE,3,,,,,,,,,,,,,,,,,,,165,9,3.2.2021,164.8965027
153,"['med', 2, 'high']",2,black,0.372442417,45,right,down,med,high,white_high_135-black_high_45-white_high_135-black_high_135,black_med_45_down,white_med_135_down,16,1.986900937,0.2485506,left,1.9931905,0,16,8,1,0,1,1,TRUE,FALSE,med_2_mask_high,0.75,-1,3,TRUE,5,,,,,,,,,,,,,,,,,,,165,9,3.2.2021,164.8965027
154,"['low', 3, 'low']",3,black,0.610413017,45,right,down,low,low,white_low_135-black_low_45-black_low_135-white_low_45,black_low_45_down,white_low_135_down,6,1.033151362,0.2485401,right,0.2554339,1,6,9,1,0,1,1,TRUE,FALSE,low_3_mask_low,0.75,-1,3,FALSE,4,,,,,,,,,,,,,,,,,,,165,9,3.2.2021,164.8965027
155,"['med', 2, 'low']",2,black,0.671805485,135,left,down,med,low,black_low_135-black_low_45-white_low_135-white_low_45,black_med_135_down,white_med_45_down,23,1.481042098,0.2470524,left,1.4081077,1,23,13,0,0,1,1,TRUE,FALSE,med_2_mask_low,0.75,-1,3,TRUE,4,,,,,,,,,,,,,,,,,,,165,9,3.2.2021,164.8965027
156,"['low', 2, 'low']",2,black,0.322210756,45,right,up,low,low,black_low_135-white_low_45-white_low_135-black_low_45,black_low_45_up,white_low_135_up,6,1.105377732,0.2466445,left,2.8566112,0,6,9,1,1,1,1,TRUE,FALSE,low_2_mask_low,0.75,-1,3,TRUE,6,,,,,,,,,,,,,,,,,,,165,9,3.2.2021,164.8965027
157,"['low', 3, 'high']",3,black,0.891212013,135,left,up,low,high,white_high_135-white_high_135-black_high_135-black_high_45,black_low_135_up,white_low_45_up,8,1.942354395,0.2485469,right,0.890723,0,8,7,0,0,1,1,TRUE,FALSE,low_3_mask_high,0.75,-1,3,FALSE,4,,,,,,,,,,,,,,,,,,,165,9,3.2.2021,164.8965027
158,"['high', 2, 'high']",2,white,0.407597209,45,left,down,high,high,black_high_135-white_high_135-white_high_135-black_high_45,white_high_45_down,black_high_135_down,11,1.515066481,0.2453172,right,2.0675229,0,11,9,1,0,1,1,TRUE,FALSE,high_2_mask_high,0.75,-1,3,TRUE,5,,,,,,,,,,,,,,,,,,,165,9,3.2.2021,164.8965027
159,"['high', 2, 'high']",2,black,0.762378375,45,right,down,high,high,white_high_135-black_high_135-white_high_135-black_high_45,black_high_45_down,white_high_135_down,14,1.975420045,0.2485529,right,1.8140082,1,14,10,0,1,1,1,TRUE,FALSE,high_2_mask_high,0.75,-1,3,TRUE,6,,,,,,,,,,,,,,,,,,,165,9,3.2.2021,164.8965027
160,"['med', 1, 'low']",1,black,0.203869651,45,right,up,med,low,white_low_45-black_low_45-black_low_135-white_low_135,black_med_45_up,white_med_135_up,14,1.444558282,0.2467339,right,5.8259266,1,14,6,1,0,1,1,TRUE,FALSE,med_1_mask_low,0.75,-1,3,FALSE,4,,,,,,,,,,,,,,,,,,,165,9,3.2.2021,164.8965027
161,"['low', 3, 'low']",3,white,0.992085645,135,right,up,low,low,white_low_135-white_low_45-black_low_45-black_low_135,white_low_135_up,black_low_45_up,5,1.308942008,0.2500088,right,0.2437799,1,5,10,1,0,1,1,TRUE,FALSE,low_3_mask_low,0.75,-1,3,FALSE,4,,,,,,,,,,,,,,,,,,,165,9,3.2.2021,164.8965027
162,"['high', 1, 'low']",1,black,0.846915212,45,right,down,high,low,black_low_45-white_low_45-black_low_135-white_low_135,black_high_45_down,white_high_135_down,12,1.65304775,0.2485514,left,0.9371489,0,12,4,1,0,1,1,TRUE,FALSE,high_1_mask_low,0.75,-1,3,TRUE,2,,,,,,,,,,,,,,,,,,,165,9,3.2.2021,164.8965027
163,"['med', 2, 'low']",2,black,0.242419486,45,right,up,med,low,white_low_135-black_low_45-white_low_45-black_low_135,black_med_45_up,white_med_135_up,22,1.474042202,0.2485443,left,5.6890163,0,22,14,1,0,1,1,TRUE,FALSE,med_2_mask_low,0.75,-1,3,TRUE,5,,,,,,,,,,,,,,,,,,,165,9,3.2.2021,164.8965027
164,"['low', 1, 'high']",1,white,0.34719737,45,left,up,low,high,black_high_45-black_high_135-white_high_135-white_high_135,white_low_45_up,black_low_135_up,12,1.362845825,0.2467229,left,0.21498,1,12,8,0,1,1,1,TRUE,FALSE,low_1_mask_high,0.75,-1,3,TRUE,6,,,,,,,,,,,,,,,,,,,165,9,3.2.2021,164.8965027
165,"['low', 1, 'low']",1,black,0.871043771,135,left,down,low,low,white_low_45-white_low_135-black_low_45-black_low_135,black_low_135_down,white_low_45_down,18,1.16094066,0.2485405,right,0.2558674,0,18,14,1,1,1,1,TRUE,FALSE,low_1_mask_low,0.75,-1,3,TRUE,11,,,,,,,,,,,,,,,,,,,165,9,3.2.2021,164.8965027
166,"['high', 3, 'high']",3,white,0.906382429,135,right,down,high,high,white_high_135-black_high_45-white_high_135-black_high_135,white_high_135_down,black_high_45_down,10,1.92023071,0.2482527,left,0.8081247,0,10,10,1,1,1,1,TRUE,FALSE,high_3_mask_high,0.75,-1,3,TRUE,7,,,,,,,,,,,,,,,,,,,165,9,3.2.2021,164.8965027
167,"['high', 1, 'low']",1,white,0.674915135,135,right,down,high,low,white_low_135-black_low_135-black_low_45-white_low_45,white_high_135_down,black_high_45_down,15,1.709831811,0.2488456,right,0.3188436,1,15,5,0,0,1,1,TRUE,FALSE,high_1_mask_low,0.75,-1,3,TRUE,3,,,,,,,,,,,,,,,,,,,165,9,3.2.2021,164.8965027
168,"['low', 1, 'high']",1,black,0.292816382,135,left,up,low,high,black_high_135-white_high_135-white_high_135-black_high_45,black_low_135_up,white_low_45_up,11,1.966591469,0.2470156,right,0.4383738,0,11,9,1,1,1,1,TRUE,FALSE,low_1_mask_high,0.75,-1,3,TRUE,7,,,,,,,,,,,,,,,,,,,165,9,3.2.2021,164.8965027
169,"['high', 3, 'low']",3,black,0.330503328,45,right,down,high,low,white_low_45-white_low_135-black_low_135-black_low_45,black_high_45_down,white_high_135_down,9,1.620142531,0.2485418,right,0.5482577,1,9,7,0,0,1,1,TRUE,FALSE,high_3_mask_low,0.75,-1,3,TRUE,4,,,,,,,,,,,,,,,,,,,165,9,3.2.2021,164.8965027
170,"['low', 2, 'low']",2,white,0.766260067,135,right,up,low,low,white_low_135-black_low_135-white_low_45-black_low_45,white_low_135_up,black_low_45_up,9,1.376179288,0.2503733,right,0.225098,1,9,10,0,1,1,1,TRUE,FALSE,low_2_mask_low,0.75,-1,3,TRUE,7,,,,,,,,,,,,,,,,,,,165,9,3.2.2021,164.8965027
171,"['low', 3, 'low']",3,black,0.465515068,45,right,down,low,low,black_low_45-black_low_135-white_low_45-white_low_135,black_low_45_down,white_low_135_down,4,1.226610016,0.2485421,right,0.802843,1,4,11,1,0,1,1,TRUE,FALSE,low_3_mask_low,0.75,-1,3,FALSE,4,,,,,,,,,,,,,,,,,,,165,9,3.2.2021,164.8965027
172,"['low', 2, 'high']",2,white,0.911528435,135,right,down,low,high,white_high_135-white_high_135-black_high_45-black_high_135,white_low_135_down,black_low_45_down,7,1.420427728,0.2485409,right,0.0329976,1,7,8,1,0,1,1,TRUE,FALSE,low_2_mask_high,0.75,-1,3,FALSE,4,,,,,,,,,,,,,,,,,,,165,9,3.2.2021,164.8965027
173,"['high', 3, 'high']",3,black,0.353303198,135,left,down,high,high,black_high_135-black_high_45-white_high_135-white_high_135,black_high_135_down,white_high_45_down,13,1.451495863,0.2485421,left,0.5789882,1,13,11,0,1,1,1,TRUE,FALSE,high_3_mask_high,0.75,-1,3,TRUE,8,,,,,,,,,,,,,,,,,,,165,9,3.2.2021,164.8965027
174,"['high', 1, 'low']",1,white,0.767559017,135,right,down,high,low,black_low_45-white_low_45-white_low_135-black_low_135,white_high_135_down,black_high_45_down,14,1.417682781,0.2503251,right,0.2219245,1,14,6,1,0,1,1,TRUE,FALSE,high_1_mask_low,0.75,-1,3,FALSE,3,,,,,,,,,,,,,,,,,,,165,9,3.2.2021,164.8965027
175,"['high', 3, 'high']",3,black,0.471824434,45,right,up,high,high,black_high_45-white_high_135-white_high_135-black_high_135,black_high_45_up,white_high_135_up,12,1.119167007,0.2488495,right,0.250812,1,12,12,1,1,1,1,TRUE,FALSE,high_3_mask_high,0.75,-1,3,FALSE,8,,,,,,,,,,,,,,,,,,,165,9,3.2.2021,164.8965027
176,"['low', 1, 'high']",1,white,0.449591227,45,left,down,low,high,black_high_45-black_high_135-white_high_135-white_high_135,white_low_45_down,black_low_135_down,14,1.191858282,0.2502867,left,0.5935974,1,14,10,0,1,1,1,TRUE,FALSE,low_1_mask_high,0.75,-1,3,TRUE,8,,,,,,,,,,,,,,,,,,,165,9,3.2.2021,164.8965027
177,"['high', 3, 'high']",3,white,0.95727377,45,left,down,high,high,white_high_135-black_high_45-white_high_135-black_high_135,white_high_45_down,black_high_135_down,11,1.33533403,0.2488301,left,0.8817479,1,11,13,1,1,1,1,TRUE,FALSE,high_3_mask_high,0.75,-1,3,FALSE,8,,,,,,,,,,,,,,,,,,,165,9,3.2.2021,164.8965027
178,"['high', 3, 'high']",3,black,0.655791096,45,right,down,high,high,white_high_135-black_high_45-black_high_135-white_high_135,black_high_45_down,white_high_135_down,10,1.236927242,0.2485443,left,0.4977007,0,10,14,1,1,1,1,TRUE,FALSE,high_3_mask_high,0.75,-1,3,TRUE,9,,,,,,,,,,,,,,,,,,,165,9,3.2.2021,164.8965027
179,"['high', 1, 'high']",1,white,0.792527126,135,right,down,high,high,black_high_135-white_high_135-white_high_135-black_high_45,white_high_135_down,black_high_45_down,28,1.814044265,0.2485441,right,0.6671711,1,28,8,1,0,1,1,TRUE,FALSE,high_1_mask_high,0.75,-1,3,FALSE,2,,,,,,,,,,,,,,,,,,,165,9,3.2.2021,164.8965027
180,"['med', 3, 'low']",3,black,0.186794086,135,left,down,med,low,black_low_135-white_low_45-white_low_135-black_low_45,black_med_135_down,white_med_45_down,8,1.118329413,0.2485468,left,0.3847552,1,8,8,1,0,1,1,TRUE,FALSE,med_3_mask_low,0.75,-1,3,FALSE,4,,,,,,,,,,,,,,,,,,,165,9,3.2.2021,164.8965027
181,"['high', 2, 'low']",2,black,0.820473979,45,right,up,high,low,black_low_45-black_low_135-white_low_45-white_low_135,black_high_45_up,white_high_135_up,9,1.665345146,0.2485467,right,0.4716703,1,9,7,0,0,1,1,TRUE,FALSE,high_2_mask_low,0.75,-1,3,TRUE,4,,,,,,,,,,,,,,,,,,,165,9,3.2.2021,164.8965027
182,"['med', 1, 'low']",1,black,0.70682825,135,left,up,med,low,white_low_45-white_low_135-black_low_135-black_low_45,black_med_135_up,white_med_45_up,13,1.209493595,0.2485105,right,1.855919,0,13,7,1,0,1,1,TRUE,FALSE,med_1_mask_low,0.75,-1,3,TRUE,5,,,,,,,,,,,,,,,,,,,165,9,3.2.2021,164.8965027
183,"['high', 1, 'high']",1,white,0.854822849,45,left,down,high,high,black_high_45-white_high_135-black_high_135-white_high_135,white_high_45_down,black_high_135_down,27,1.364642002,0.2485429,left,0.1073338,1,27,9,1,0,1,1,TRUE,FALSE,high_1_mask_high,0.75,-1,3,FALSE,2,,,,,,,,,,,,,,,,,,,165,9,3.2.2021,164.8965027
184,"['med', 1, 'low']",1,white,0.190683459,45,left,up,med,low,white_low_45-white_low_135-black_low_135-black_low_45,white_med_45_up,black_med_135_up,16,1.688151163,0.2502932,left,0.1639509,1,16,8,0,1,1,1,TRUE,FALSE,med_1_mask_low,0.75,-1,3,TRUE,6,,,,,,,,,,,,,,,,,,,165,9,3.2.2021,164.8965027
185,"['med', 1, 'low']",1,white,0.661464432,135,right,down,med,low,black_low_135-white_low_135-white_low_45-black_low_45,white_med_135_down,black_med_45_down,15,1.28641765,0.2485527,right,0.6097118,1,15,9,1,1,1,1,TRUE,FALSE,med_1_mask_low,0.75,-1,3,FALSE,6,,,,,,,,,,,,,,,,,,,165,9,3.2.2021,164.8965027
186,"['med', 2, 'low']",2,black,0.200220762,45,right,up,med,low,black_low_45-white_low_135-white_low_45-black_low_135,black_med_45_up,white_med_135_up,25,1.301273011,0.2467699,left,1.2308754,0,25,15,0,1,1,1,TRUE,FALSE,med_2_mask_low,0.75,-1,3,FALSE,5,,,,,,,,,,,,,,,,,,,165,9,3.2.2021,164.8965027
187,"['high', 3, 'low']",3,black,0.316191841,135,left,up,high,low,black_low_45-white_low_135-black_low_135-white_low_45,black_high_135_up,white_high_45_up,8,1.968408806,0.2485472,right,0.9346162,0,8,8,1,0,1,1,TRUE,FALSE,high_3_mask_low,0.75,-1,3,TRUE,5,,,,,,,,,,,,,,,,,,,165,9,3.2.2021,164.8965027
188,"['high', 2, 'low']",2,white,0.336614658,45,left,down,high,low,white_low_135-white_low_45-black_low_45-black_low_135,white_high_45_down,black_high_135_down,8,1.14681118,0.2484703,left,0.4424839,1,8,8,1,0,1,1,TRUE,FALSE,high_2_mask_low,0.75,-1,3,FALSE,4,,,,,,,,,,,,,,,,,,,165,9,3.2.2021,164.8965027
189,"['med', 1, 'high']",1,white,0.490218585,45,left,down,med,high,black_high_45-white_high_135-white_high_135-black_high_135,white_med_45_down,black_med_135_down,17,1.9153139,0.2502918,left,0.4257093,1,17,11,1,1,1,1,TRUE,FALSE,med_1_mask_high,0.75,-1,3,FALSE,5,,,,,,,,,,,,,,,,,,,165,9,3.2.2021,164.8965027
190,"['med', 2, 'low']",2,white,0.391048372,135,right,down,med,low,black_low_135-white_low_45-white_low_135-black_low_45,white_med_135_down,black_med_45_down,28,1.101496616,0.2467302,right,0.2109464,1,28,16,0,1,1,1,TRUE,FALSE,med_2_mask_low,0.75,-1,3,TRUE,6,,,,,,,,,,,,,,,,,,,165,9,3.2.2021,164.8965027
191,"['high', 2, 'high']",2,white,0.792164166,135,right,down,high,high,white_high_135-black_high_45-white_high_135-black_high_135,white_high_135_down,black_high_45_down,13,1.922256701,0.2485428,right,0.9250591,1,13,11,1,1,1,1,TRUE,FALSE,high_2_mask_high,0.75,-1,3,FALSE,6,,,,,,,,,,,,,,,,,,,165,9,3.2.2021,164.8965027
192,"['high', 2, 'low']",2,black,0.020594056,135,left,up,high,low,white_low_45-black_low_135-black_low_45-white_low_135,black_high_135_up,white_high_45_up,7,1.478979109,0.2485382,right,0.9393263,0,7,9,1,0,1,1,TRUE,FALSE,high_2_mask_low,0.75,-1,3,TRUE,5,,,,,,,,,,,,,,,,,,,165,9,3.2.2021,164.8965027
193,"['low', 2, 'low']",2,black,0.44649689,135,left,down,low,low,white_low_135-black_low_135-black_low_45-white_low_45,black_low_135_down,white_low_45_down,8,1.611285499,0.2485811,left,0.643887,1,8,11,1,1,1,1,TRUE,FALSE,low_2_mask_low,0.75,-1,3,FALSE,7,,,,,,,,,,,,,,,,,,,165,9,3.2.2021,164.8965027
194,"['low', 1, 'high']",1,black,0.725178856,135,left,up,low,high,black_high_45-white_high_135-black_high_135-white_high_135,black_low_135_up,white_low_45_up,13,1.523080816,0.24854,right,0.8672693,0,13,11,1,1,1,1,TRUE,FALSE,low_1_mask_high,0.75,-1,3,TRUE,9,,,,,,,,,,,,,,,,,,,165,9,3.2.2021,164.8965027
195,"['high', 2, 'high']",2,black,0.554297343,45,right,up,high,high,white_high_135-black_high_45-white_high_135-black_high_135,black_high_45_up,white_high_135_up,12,1.841325533,0.2485434,right,1.2618969,1,12,12,1,1,1,1,TRUE,FALSE,high_2_mask_high,0.75,-1,3,FALSE,6,,,,,,,,,,,,,,,,,,,165,9,3.2.2021,164.8965027
196,"['med', 3, 'low']",3,white,0.365707012,45,left,up,med,low,white_low_135-black_low_135-black_low_45-white_low_45,white_med_45_up,black_med_135_up,7,1.508416229,0.2485459,left,0.9284879,1,7,9,1,0,1,1,TRUE,FALSE,med_3_mask_low,0.75,-1,3,FALSE,4,,,,,,,,,,,,,,,,,,,165,9,3.2.2021,164.8965027
197,"['high', 1, 'low']",1,white,0.479216286,135,right,up,high,low,black_low_45-black_low_135-white_low_45-white_low_135,white_high_135_up,black_high_45_up,13,1.562031108,0.2502973,right,0.1626024,1,13,7,1,0,1,1,TRUE,FALSE,high_1_mask_low,0.75,-1,3,FALSE,3,,,,,,,,,,,,,,,,,,,165,9,3.2.2021,164.8965027
198,"['low', 2, 'low']",2,black,0.533730105,135,left,down,low,low,white_low_135-white_low_45-black_low_135-black_low_45,black_low_135_down,white_low_45_down,7,1.09878423,0.2502837,left,0.30196,1,7,12,1,1,1,1,TRUE,FALSE,low_2_mask_low,0.75,-1,3,FALSE,7,,,,,,,,,,,,,,,,,,,165,9,3.2.2021,164.8965027
199,"['med', 1, 'low']",1,white,0.543549082,45,left,up,med,low,white_low_45-white_low_135-black_low_135-black_low_45,white_med_45_up,black_med_135_up,14,1.062669461,0.248539,left,0.1854477,1,14,10,1,1,1,1,TRUE,FALSE,med_1_mask_low,0.75,-1,3,FALSE,6,,,,,,,,,,,,,,,,,,,165,9,3.2.2021,164.8965027
200,"['med', 3, 'high']",3,black,0.530319532,45,right,down,med,high,white_high_135-black_high_45-white_high_135-black_high_135,black_med_45_down,white_med_135_down,13,1.537422837,0.2467682,right,0.4962901,1,13,7,1,1,1,1,TRUE,FALSE,med_3_mask_high,0.75,-1,3,FALSE,5,,,,,,,,,,,,,,,,,,,165,9,3.2.2021,164.8965027
201,"['low', 3, 'high']",3,black,0.820538145,135,left,down,low,high,white_high_135-white_high_135-black_high_45-black_high_135,black_low_135_down,white_low_45_down,11,1.9537993,0.2485405,left,0.2497211,1,11,8,0,0,1,1,TRUE,FALSE,low_3_mask_high,0.75,-1,3,TRUE,5,,,,,,,,,,,,,,,,,,,165,9,3.2.2021,164.8965027
202,"['high', 1, 'low']",1,black,0.403877232,45,right,down,high,low,white_low_135-black_low_135-white_low_45-black_low_45,black_high_45_down,white_high_135_down,12,1.625730163,0.2485476,left,0.4917791,0,12,8,1,0,1,1,TRUE,FALSE,high_1_mask_low,0.75,-1,3,TRUE,4,,,,,,,,,,,,,,,,,,,165,9,3.2.2021,164.8965027
203,"['high', 2, 'low']",2,white,0.588865336,135,right,down,high,low,white_low_45-black_low_135-white_low_135-black_low_45,white_high_135_down,black_high_45_down,10,1.665225368,0.2485414,right,0.4583964,1,10,10,0,1,1,1,TRUE,FALSE,high_2_mask_low,0.75,-1,3,TRUE,6,,,,,,,,,,,,,,,,,,,165,9,3.2.2021,164.8965027
204,"['high', 1, 'low']",1,black,0.76127578,45,right,up,high,low,white_low_45-black_low_135-white_low_135-black_low_45,black_high_45_up,white_high_135_up,15,1.986321301,0.2467698,left,0.6494878,0,15,9,0,0,1,1,TRUE,FALSE,high_1_mask_low,0.75,-1,3,FALSE,4,,,,,,,,,,,,,,,,,,,165,9,3.2.2021,164.8965027
205,"['high', 3, 'low']",3,white,0.8602751,45,left,up,high,low,black_low_135-white_low_45-black_low_45-white_low_135,white_high_45_up,black_high_135_up,11,1.968258565,0.2485389,right,0.2526427,0,11,9,0,1,1,1,TRUE,FALSE,high_3_mask_low,0.75,-1,3,FALSE,5,,,,,,,,,,,,,,,,,,,165,9,3.2.2021,164.8965027
206,"['low', 3, 'high']",3,black,0.111841198,45,right,up,low,high,black_high_45-white_high_135-black_high_135-white_high_135,black_low_45_up,white_low_135_up,10,1.44700861,0.2485503,right,0.0278151,1,10,9,1,1,1,1,TRUE,FALSE,low_3_mask_high,0.75,-1,3,FALSE,5,,,,,,,,,,,,,,,,,,,165,9,3.2.2021,164.8965027
207,"['high', 1, 'high']",1,white,0.441528843,135,right,up,high,high,white_high_135-black_high_45-white_high_135-black_high_135,white_high_135_up,black_high_45_up,26,1.160167612,0.2485485,right,0.4699046,1,26,10,1,0,1,1,TRUE,FALSE,high_1_mask_high,0.75,-1,3,FALSE,2,,,,,,,,,,,,,,,,,,,165,9,3.2.2021,164.8965027
208,"['med', 3, 'low']",3,black,0.05544131,45,right,down,med,low,black_low_135-white_low_135-white_low_45-black_low_45,black_med_45_down,white_med_135_down,6,1.448582272,0.2485475,left,0.2107696,0,6,10,1,0,1,1,TRUE,FALSE,med_3_mask_low,0.75,-1,3,TRUE,5,,,,,,,,,,,,,,,,,,,165,9,3.2.2021,164.8965027
209,"['high', 3, 'high']",3,white,0.477191617,45,left,down,high,high,white_high_135-black_high_45-black_high_135-white_high_135,white_high_45_down,black_high_135_down,13,1.931474872,0.2485386,right,0.2326182,0,13,15,0,1,1,1,TRUE,FALSE,high_3_mask_high,0.75,-1,3,FALSE,9,,,,,,,,,,,,,,,,,,,165,9,3.2.2021,164.8965027
210,"['high', 3, 'low']",3,white,0.728073058,45,left,down,high,low,white_low_45-black_low_135-white_low_135-black_low_45,white_high_45_down,black_high_135_down,14,1.689195208,0.2485499,left,0.4266791,1,14,10,0,1,1,1,TRUE,FALSE,high_3_mask_low,0.75,-1,3,TRUE,6,,,,,,,,,,,,,,,,,,,165,9,3.2.2021,164.8965027
211,"['high', 3, 'high']",3,black,0.753485379,135,left,up,high,high,black_high_135-white_high_135-white_high_135-black_high_45,black_high_135_up,white_high_45_up,16,1.719928548,0.2485469,right,0.331678,0,16,16,0,1,1,1,TRUE,FALSE,high_3_mask_high,0.75,-1,3,FALSE,9,,,,,,,,,,,,,,,,,,,165,9,3.2.2021,164.8965027
212,"['high', 3, 'low']",3,black,0.678975174,135,left,down,high,low,black_low_135-black_low_45-white_low_135-white_low_45,black_high_135_down,white_high_45_down,13,1.615202815,0.2488672,left,0.5800522,1,13,11,1,1,1,1,TRUE,FALSE,high_3_mask_low,0.75,-1,3,FALSE,6,,,,,,,,,,,,,,,,,,,165,9,3.2.2021,164.8965027
213,"['high', 1, 'low']",1,black,0.630233767,45,right,down,high,low,black_low_135-black_low_45-white_low_135-white_low_45,black_high_45_down,white_high_135_down,18,1.597035333,0.2485547,left,2.011633,0,18,10,0,0,1,1,TRUE,FALSE,high_1_mask_low,0.75,-1,3,FALSE,4,,,,,,,,,,,,,,,,,,,165,9,3.2.2021,164.8965027
214,"['high', 1, 'low']",1,black,0.804254854,45,right,up,high,low,white_low_135-white_low_45-black_low_45-black_low_135,black_high_45_up,white_high_135_up,21,1.76792181,0.2485449,right,1.5796479,1,21,11,0,0,1,1,TRUE,FALSE,high_1_mask_low,0.75,-1,3,TRUE,5,,,,,,,,,,,,,,,,,,,165,9,3.2.2021,164.8965027
215,"['low', 3, 'low']",3,white,0.634407013,45,left,down,low,low,black_low_45-white_low_45-black_low_135-white_low_135,white_low_45_down,black_low_135_down,3,1.499464221,0.247019,right,0.8426415,0,3,12,1,0,1,1,TRUE,FALSE,low_3_mask_low,0.75,-1,3,TRUE,5,,,,,,,,,,,,,,,,,,,165,9,3.2.2021,164.8965027
216,"['low', 3, 'high']",3,white,0.544963324,135,right,up,low,high,black_high_135-white_high_135-black_high_45-white_high_135,white_low_135_up,black_low_45_up,9,1.59659672,0.2485497,right,2.6204154,1,9,10,1,1,1,1,TRUE,FALSE,low_3_mask_high,0.75,-1,3,FALSE,5,,,,,,,,,,,,,,,,,,,165,9,3.2.2021,164.8965027
217,"['med', 2, 'low']",2,white,0.204389396,45,left,down,med,low,black_low_135-white_low_135-black_low_45-white_low_45,white_med_45_down,black_med_135_down,27,1.002842061,0.248546,right,2.4242597,0,27,17,1,1,1,1,TRUE,FALSE,med_2_mask_low,0.75,-1,3,TRUE,7,,,,,,,,,,,,,,,,,,,165,9,3.2.2021,164.8965027
218,"['low', 2, 'high']",2,black,0.971494276,135,left,up,low,high,white_high_135-white_high_135-black_high_135-black_high_45,black_low_135_up,white_low_45_up,6,1.945728146,0.2467324,left,0.4583503,1,6,9,1,0,1,1,TRUE,FALSE,low_2_mask_high,0.75,-1,3,FALSE,4,,,,,,,,,,,,,,,,,,,165,9,3.2.2021,164.8965027
219,"['high', 1, 'high']",1,black,0.746186243,135,left,down,high,high,white_high_135-white_high_135-black_high_135-black_high_45,black_high_135_down,white_high_45_down,25,1.785268655,0.2502873,right,0.8395486,0,25,11,1,0,1,1,TRUE,FALSE,high_1_mask_high,0.75,-1,3,TRUE,3,,,,,,,,,,,,,,,,,,,165,9,3.2.2021,164.8965027
220,"['high', 2, 'high']",2,white,0.868666665,45,left,down,high,high,black_high_135-white_high_135-white_high_135-black_high_45,white_high_45_down,black_high_135_down,11,1.570246212,0.2485474,left,0.2779763,1,11,13,1,1,1,1,TRUE,FALSE,high_2_mask_high,0.75,-1,3,FALSE,6,,,,,,,,,,,,,,,,,,,165,9,3.2.2021,164.8965027
221,"['high', 1, 'low']",1,black,0.706102475,135,left,up,high,low,white_low_135-white_low_45-black_low_45-black_low_135,black_high_135_up,white_high_45_up,20,1.438489973,0.2467861,right,17.2420169,0,20,12,1,1,1,1,TRUE,FALSE,high_1_mask_low,0.75,-1,3,TRUE,6,,,,,,,,,,,,,,,,,,,165,9,3.2.2021,164.8965027
222,"['med', 1, 'low']",1,black,0.950594042,45,right,up,med,low,black_low_45-black_low_135-white_low_135-white_low_45,black_med_45_up,white_med_135_up,13,1.125078831,0.2485511,left,1.2724003,0,13,11,1,1,1,1,TRUE,FALSE,med_1_mask_low,0.75,-1,3,TRUE,7,,,,,,,,,,,,,,,,,,,165,9,3.2.2021,164.8965027
223,"['high', 2, 'low']",2,white,0.014596862,45,left,up,high,low,black_low_45-black_low_135-white_low_135-white_low_45,white_high_45_up,black_high_135_up,9,1.239290068,0.2449674,left,0.1896849,1,9,11,1,1,1,1,TRUE,FALSE,high_2_mask_low,0.75,-1,3,FALSE,6,,,,,,,,,,,,,,,,,,,165,9,3.2.2021,164.8965027
224,"['med', 1, 'low']",1,black,0.559895261,45,right,down,med,low,white_low_135-white_low_45-black_low_135-black_low_45,black_med_45_down,white_med_135_down,16,1.05316141,0.2485511,left,1.0237325,0,16,12,0,1,1,1,TRUE,FALSE,med_1_mask_low,0.75,-1,3,FALSE,7,,,,,,,,,,,,,,,,,,,165,9,3.2.2021,164.8965027
225,"['med', 2, 'high']",2,white,0.80810037,135,right,up,med,high,white_high_135-black_high_45-black_high_135-white_high_135,white_med_135_up,black_med_45_up,19,1.756526559,0.2485594,right,0.4595989,1,19,9,0,1,1,1,TRUE,FALSE,med_2_mask_high,0.75,-1,3,TRUE,6,,,,,,,,,,,,,,,,,,,165,9,3.2.2021,164.8965027
226,"['high', 1, 'high']",1,black,0.879659302,45,right,down,high,high,white_high_135-white_high_135-black_high_135-black_high_45,black_high_45_down,white_high_135_down,28,1.994545414,0.2485466,left,0.47125,0,28,12,0,0,1,1,TRUE,FALSE,high_1_mask_high,0.75,-1,3,FALSE,3,,,,,,,,,,,,,,,,,,,165,9,3.2.2021,164.8965027
227,"['high', 2, 'high']",2,white,0.222135043,135,right,down,high,high,black_high_45-white_high_135-black_high_135-white_high_135,white_high_135_down,black_high_45_down,10,1.65024737,0.2485553,left,0.7616273,0,10,14,1,1,1,1,TRUE,FALSE,high_2_mask_high,0.75,-1,3,TRUE,7,,,,,,,,,,,,,,,,,,,165,9,3.2.2021,164.8965027
228,"['low', 1, 'low']",1,black,0.866799685,45,right,down,low,low,black_low_45-white_low_45-white_low_135-black_low_135,black_low_45_down,white_low_135_down,21,1.17138834,0.2488434,left,0.340072,0,21,15,0,1,1,1,TRUE,FALSE,low_1_mask_low,0.75,-1,3,FALSE,11,,,,,,,,,,,,,,,,,,,165,9,3.2.2021,164.8965027
229,"['med', 2, 'low']",2,white,0.528679086,135,right,up,med,low,black_low_45-black_low_135-white_low_135-white_low_45,white_med_135_up,black_med_45_up,30,1.969520375,0.2485517,right,0.1881319,1,30,18,0,1,1,1,TRUE,FALSE,med_2_mask_low,0.75,-1,3,TRUE,8,,,,,,,,,,,,,,,,,,,165,9,3.2.2021,164.8965027
230,"['med', 1, 'low']",1,black,0.132871963,135,left,down,med,low,black_low_135-black_low_45-white_low_135-white_low_45,black_med_135_down,white_med_45_down,19,1.660263683,0.2485443,right,0.4168598,0,19,13,0,1,1,1,TRUE,FALSE,med_1_mask_low,0.75,-1,3,FALSE,7,,,,,,,,,,,,,,,,,,,165,9,3.2.2021,164.8965027
231,"['low', 1, 'low']",1,black,0.27333993,135,left,up,low,low,black_low_45-black_low_135-white_low_135-white_low_45,black_low_135_up,white_low_45_up,24,1.777786743,0.2485597,right,0.6289772,0,24,16,0,1,1,1,TRUE,FALSE,low_1_mask_low,0.75,-1,3,FALSE,11,,,,,,,,,,,,,,,,,,,165,9,3.2.2021,164.8965027
232,"['med', 3, 'low']",3,white,0.795880958,45,left,up,med,low,black_low_135-black_low_45-white_low_45-white_low_135,white_med_45_up,black_med_135_up,9,1.187237699,0.2467748,left,0.2375832,1,9,11,0,1,1,1,TRUE,FALSE,med_3_mask_low,0.75,-1,3,TRUE,6,,,,,,,,,,,,,,,,,,,165,9,3.2.2021,164.8965027
233,"['high', 1, 'high']",1,white,0.604511923,135,right,up,high,high,white_high_135-black_high_135-black_high_45-white_high_135,white_high_135_up,black_high_45_up,31,1.418602042,0.2467682,right,0.2735832,1,31,13,0,0,1,1,TRUE,FALSE,high_1_mask_high,0.75,-1,3,TRUE,4,,,,,,,,,,,,,,,,,,,165,9,3.2.2021,164.8965027
234,"['low', 3, 'low']",3,white,0.596703506,135,right,down,low,low,white_low_45-black_low_45-white_low_135-black_low_135,white_low_135_down,black_low_45_down,6,1.087621616,0.2485396,right,0.0639712,1,6,13,0,1,1,1,TRUE,FALSE,low_3_mask_low,0.75,-1,3,TRUE,6,,,,,,,,,,,,,,,,,,,165,9,3.2.2021,164.8965027
235,"['high', 3, 'low']",3,black,0.893139674,45,right,down,high,low,black_low_135-white_low_45-white_low_135-black_low_45,black_high_45_down,white_high_135_down,12,1.164386046,0.250298,left,1.5188838,0,12,12,1,1,1,1,TRUE,FALSE,high_3_mask_low,0.75,-1,3,TRUE,7,,,,,,,,,,,,,,,,,,,165,9,3.2.2021,164.8965027
236,"['med', 3, 'high']",3,black,0.189734559,135,left,up,med,high,white_high_135-black_high_135-white_high_135-black_high_45,black_med_135_up,white_med_45_up,12,1.091099835,0.2485482,left,0.5551817,1,12,8,1,1,1,1,TRUE,FALSE,med_3_mask_high,0.75,-1,3,FALSE,5,,,,,,,,,,,,,,,,,,,165,9,3.2.2021,164.8965027
237,"['low', 3, 'low']",3,black,0.747864814,135,left,up,low,low,white_low_135-black_low_45-white_low_45-black_low_135,black_low_135_up,white_low_45_up,5,1.956316741,0.248553,left,0.7100715,1,5,14,1,1,1,1,TRUE,FALSE,low_3_mask_low,0.75,-1,3,FALSE,6,,,,,,,,,,,,,,,,,,,165,9,3.2.2021,164.8965027
238,"['med', 2, 'high']",2,white,0.025309863,135,right,down,med,high,white_high_135-white_high_135-black_high_135-black_high_45,white_med_135_down,black_med_45_down,18,1.919159639,0.2485445,right,0.4361859,1,18,10,1,1,1,1,TRUE,FALSE,med_2_mask_high,0.75,-1,3,FALSE,6,,,,,,,,,,,,,,,,,,,165,9,3.2.2021,164.8965027
239,"['low', 3, 'high']",3,white,0.774889164,135,right,up,low,high,black_high_45-white_high_135-white_high_135-black_high_135,white_low_135_up,black_low_45_up,8,1.615349315,0.2485561,left,0.3194669,0,8,11,1,1,1,1,TRUE,FALSE,low_3_mask_high,0.75,-1,3,TRUE,6,,,,,,,,,,,,,,,,,,,165,9,3.2.2021,164.8965027
240,"['high', 3, 'high']",3,black,0.27876483,135,left,up,high,high,white_high_135-black_high_135-white_high_135-black_high_45,black_high_135_up,white_high_45_up,19,1.748357888,0.2488469,right,1.0300259,0,19,17,0,1,1,1,TRUE,FALSE,high_3_mask_high,0.75,-1,3,FALSE,9,,,,,,,,,,,,,,,,,,,165,9,3.2.2021,164.8965027
241,"['med', 1, 'low']",1,black,0.477516252,135,left,down,med,low,white_low_135-white_low_45-black_low_135-black_low_45,black_med_135_down,white_med_45_down,22,1.578081577,0.248475,right,0.6200777,0,22,14,0,1,1,1,TRUE,FALSE,med_1_mask_low,0.75,-1,3,FALSE,7,,,,,,,,,,,,,,,,,,,165,9,3.2.2021,164.8965027
242,"['high', 3, 'low']",3,white,0.904280236,135,right,down,high,low,white_low_135-black_low_135-white_low_45-black_low_45,white_high_135_down,black_high_45_down,15,1.396675043,0.2506197,right,0.2273383,1,15,13,0,1,1,1,TRUE,FALSE,high_3_mask_low,0.75,-1,3,TRUE,8,,,,,,,,,,,,,,,,,,,165,9,3.2.2021,164.8965027
243,"['med', 2, 'low']",2,black,0.108665356,135,left,up,med,low,black_low_45-white_low_45-white_low_135-black_low_135,black_med_135_up,white_med_45_up,29,1.3868325,0.2488471,left,3.3889525,1,29,19,1,1,1,1,TRUE,FALSE,med_2_mask_low,0.75,-1,3,FALSE,8,,,,,,,,,,,,,,,,,,,165,9,3.2.2021,164.8965027
244,"['high', 1, 'high']",1,black,0.761085875,135,left,up,high,high,black_high_135-black_high_45-white_high_135-white_high_135,black_high_135_up,white_high_45_up,30,1.474762604,0.2485411,right,0.2088843,0,30,14,1,0,1,1,TRUE,FALSE,high_1_mask_high,0.75,-1,3,TRUE,5,,,,,,,,,,,,,,,,,,,165,9,3.2.2021,164.8965027
245,"['low', 3, 'high']",3,black,0.73627646,45,right,up,low,high,white_high_135-black_high_45-white_high_135-black_high_135,black_low_45_up,white_low_135_up,11,1.159671885,0.2485312,left,1.2523738,0,11,12,0,1,1,1,TRUE,FALSE,low_3_mask_high,0.75,-1,3,FALSE,6,,,,,,,,,,,,,,,,,,,165,9,3.2.2021,164.8965027
246,"['high', 1, 'high']",1,white,0.787694001,45,left,down,high,high,white_high_135-black_high_45-black_high_135-white_high_135,white_high_45_down,black_high_135_down,33,1.050373205,0.2485448,right,1.3300469,0,33,15,0,1,1,1,TRUE,FALSE,high_1_mask_high,0.75,-1,3,FALSE,5,,,,,,,,,,,,,,,,,,,165,9,3.2.2021,164.8965027
247,"['low', 1, 'high']",1,white,0.675168701,45,left,up,low,high,black_high_135-white_high_135-black_high_45-white_high_135,white_low_45_up,black_low_135_up,16,1.387535577,0.2485563,left,0.1929393,1,16,12,0,1,1,1,TRUE,FALSE,low_1_mask_high,0.75,-1,3,TRUE,10,,,,,,,,,,,,,,,,,,,165,9,3.2.2021,164.8965027
248,"['low', 1, 'low']",1,white,0.492850403,45,left,down,low,low,white_low_45-white_low_135-black_low_135-black_low_45,white_low_45_down,black_low_135_down,27,1.08528297,0.2488523,left,1.6415003,1,27,17,0,1,1,1,TRUE,FALSE,low_1_mask_low,0.75,-1,3,TRUE,12,,,,,,,,,,,,,,,,,,,165,9,3.2.2021,164.8965027
249,"['med', 1, 'low']",1,white,0.374592824,135,right,down,med,low,black_low_135-white_low_45-white_low_135-black_low_45,white_med_135_down,black_med_45_down,25,1.235328615,0.2503113,right,0.5492389,1,25,15,0,1,1,1,TRUE,FALSE,med_1_mask_low,0.75,-1,3,TRUE,8,,,,,,,,,,,,,,,,,,,165,9,3.2.2021,164.8965027
250,"['low', 3, 'high']",3,white,0.099661561,45,left,down,low,high,white_high_135-white_high_135-black_high_135-black_high_45,white_low_45_down,black_low_135_down,14,1.637145501,0.2485409,left,0.22347,1,14,13,0,1,1,1,TRUE,FALSE,low_3_mask_high,0.75,-1,3,TRUE,7,,,,,,,,,,,,,,,,,,,165,9,3.2.2021,164.8965027
251,"['high', 1, 'low']",1,black,0.13255246,45,right,down,high,low,black_low_45-white_low_135-white_low_45-black_low_135,black_high_45_down,white_high_135_down,23,1.397032001,0.2500195,left,1.043636,0,23,13,0,1,1,1,TRUE,FALSE,high_1_mask_low,0.75,-1,3,FALSE,6,,,,,,,,,,,,,,,,,,,165,9,3.2.2021,164.8965027
252,"['low', 1, 'low']",1,white,0.433641922,135,right,down,low,low,white_low_135-black_low_135-black_low_45-white_low_45,white_low_135_down,black_low_45_down,26,1.846922447,0.2485548,right,0.4106457,1,26,18,1,1,1,1,TRUE,FALSE,low_1_mask_low,0.75,-1,3,FALSE,12,,,,,,,,,,,,,,,,,,,165,9,3.2.2021,164.8965027
253,"['med', 3, 'low']",3,black,0.132605023,45,right,up,med,low,white_low_135-black_low_135-white_low_45-black_low_45,black_med_45_up,white_med_135_up,8,1.947797247,0.2485535,left,0.3436284,0,8,12,1,1,1,1,TRUE,FALSE,med_3_mask_low,0.75,-1,3,TRUE,7,,,,,,,,,,,,,,,,,,,165,9,3.2.2021,164.8965027
254,"['high', 1, 'high']",1,white,0.18908599,45,left,up,high,high,black_high_45-white_high_135-black_high_135-white_high_135,white_high_45_up,black_high_135_up,36,1.115139274,0.2485459,left,0.213941,1,36,16,0,1,1,1,TRUE,FALSE,high_1_mask_high,0.75,-1,3,TRUE,6,,,,,,,,,,,,,,,,,,,165,9,3.2.2021,164.8965027
255,"['low', 3, 'high']",3,black,0.554153877,135,left,up,low,high,white_high_135-black_high_45-black_high_135-white_high_135,black_low_135_up,white_low_45_up,13,1.550897648,0.2485442,left,0.3737725,1,13,14,1,1,1,1,TRUE,FALSE,low_3_mask_high,0.75,-1,3,FALSE,7,,,,,,,,,,,,,,,,,,,165,9,3.2.2021,164.8965027
256,"['low', 3, 'low']",3,white,0.318005842,45,left,down,low,low,black_low_135-white_low_135-black_low_45-white_low_45,white_low_45_down,black_low_135_down,4,1.639607753,0.2485506,left,1.4756444,1,4,15,1,1,1,1,TRUE,FALSE,low_3_mask_low,0.75,-1,3,FALSE,6,,,,,,,,,,,,,,,,,,,165,9,3.2.2021,164.8965027
257,"['low', 1, 'low']",1,white,0.924321543,135,right,up,low,low,white_low_135-black_low_45-black_low_135-white_low_45,white_low_135_up,black_low_45_up,25,1.028102906,0.248545,right,0.190225,1,25,19,1,1,1,1,TRUE,FALSE,low_1_mask_low,0.75,-1,3,FALSE,12,,,,,,,,,,,,,,,,,,,165,9,3.2.2021,164.8965027
258,"['med', 1, 'high']",1,white,0.799196043,45,left,up,med,high,white_high_135-white_high_135-black_high_45-black_high_135,white_med_45_up,black_med_135_up,16,1.201146109,0.2485441,left,0.3688549,1,16,12,1,1,1,1,TRUE,FALSE,med_1_mask_high,0.75,-1,3,FALSE,5,,,,,,,,,,,,,,,,,,,165,9,3.2.2021,164.8965027
259,"['low', 3, 'low']",3,black,0.775821778,45,right,down,low,low,black_low_135-white_low_135-white_low_45-black_low_45,black_low_45_down,white_low_135_down,3,1.691979527,0.24854,left,1.5813562,0,3,16,1,1,1,1,TRUE,FALSE,low_3_mask_low,0.75,-1,3,TRUE,7,,,,,,,,,,,,,,,,,,,165,9,3.2.2021,164.8965027
260,"['med', 3, 'low']",3,black,0.141457093,45,right,up,med,low,black_low_45-white_low_45-white_low_135-black_low_135,black_med_45_up,white_med_135_up,11,1.110333294,0.2485312,right,0.3739444,1,11,13,0,1,1,1,TRUE,FALSE,med_3_mask_low,0.75,-1,3,TRUE,8,,,,,,,,,,,,,,,,,,,165,9,3.2.2021,164.8965027
261,"['high', 3, 'low']",3,white,0.713522112,45,left,down,high,low,white_low_135-black_low_135-black_low_45-white_low_45,white_high_45_down,black_high_135_down,14,1.629639675,0.2485499,left,0.1568733,1,14,14,1,1,1,1,TRUE,FALSE,high_3_mask_low,0.75,-1,3,FALSE,8,,,,,,,,,,,,,,,,,,,165,9,3.2.2021,164.8965027
262,"['high', 2, 'high']",2,white,0.424076042,45,left,up,high,high,white_high_135-black_high_45-black_high_135-white_high_135,white_high_45_up,black_high_135_up,13,1.415483848,0.2485355,right,0.2823487,0,13,15,0,1,1,1,TRUE,FALSE,high_2_mask_high,0.75,-1,3,FALSE,7,,,,,,,,,,,,,,,,,,,165,9,3.2.2021,164.8965027
263,"['high', 1, 'high']",1,black,0.124793444,45,right,down,high,high,black_high_135-black_high_45-white_high_135-white_high_135,black_high_45_down,white_high_135_down,35,1.781705325,0.2485474,right,0.3711047,1,35,17,1,1,1,1,TRUE,FALSE,high_1_mask_high,0.75,-1,3,FALSE,6,,,,,,,,,,,,,,,,,,,165,9,3.2.2021,164.8965027
264,"['low', 1, 'high']",1,black,0.754619534,135,left,down,low,high,black_high_135-white_high_135-white_high_135-black_high_45,black_low_135_down,white_low_45_down,15,1.747832095,0.248541,right,0.4291131,0,15,13,1,1,1,1,TRUE,FALSE,low_1_mask_high,0.75,-1,3,TRUE,11,,,,,,,,,,,,,,,,,,,165,9,3.2.2021,164.8965027
265,"['med', 1, 'high']",1,black,0.183900181,45,right,up,med,high,white_high_135-white_high_135-black_high_45-black_high_135,black_med_45_up,white_med_135_up,15,1.385468894,0.2467604,right,0.9170005,1,15,13,1,1,1,1,TRUE,FALSE,med_1_mask_high,0.75,-1,3,FALSE,5,,,,,,,,,,,,,,,,,,,165,9,3.2.2021,164.8965027
266,"['high', 3, 'high']",3,black,0.930230234,135,left,down,high,high,white_high_135-black_high_45-black_high_135-white_high_135,black_high_135_down,white_high_45_down,22,1.218422824,0.2485284,left,0.2821859,1,22,18,0,1,1,1,TRUE,FALSE,high_3_mask_high,0.75,-1,3,TRUE,10,,,,,,,,,,,,,,,,,,,165,9,3.2.2021,164.8965027
267,"['low', 3, 'low']",3,white,0.413265335,135,right,down,low,low,black_low_135-black_low_45-white_low_45-white_low_135,white_low_135_down,black_low_45_down,6,1.360013725,0.2485442,right,1.7006315,1,6,17,0,1,1,1,TRUE,FALSE,low_3_mask_low,0.75,-1,3,TRUE,8,,,,,,,,,,,,,,,,,,,165,9,3.2.2021,164.8965027
268,"['low', 2, 'high']",2,black,0.699736591,135,left,up,low,high,white_high_135-white_high_135-black_high_135-black_high_45,black_low_135_up,white_low_45_up,5,1.857779757,0.2467115,right,0.3361651,0,5,10,1,0,1,1,TRUE,FALSE,low_2_mask_high,0.75,-1,3,TRUE,5,,,,,,,,,,,,,,,,,,,165,9,3.2.2021,164.8965027
269,"['high', 3, 'low']",3,white,0.238045196,135,right,down,high,low,black_low_45-white_low_45-white_low_135-black_low_135,white_high_135_down,black_high_45_down,13,1.138565217,0.2485388,right,0.1907231,1,13,15,1,1,1,1,TRUE,FALSE,high_3_mask_low,0.75,-1,3,FALSE,8,,,,,,,,,,,,,,,,,,,165,9,3.2.2021,164.8965027
270,"['med', 2, 'high']",2,white,0.443279036,135,right,down,med,high,black_high_45-black_high_135-white_high_135-white_high_135,white_med_135_down,black_med_45_down,17,1.123119229,0.2467483,right,0.1710232,1,17,11,1,1,1,1,TRUE,FALSE,med_2_mask_high,0.75,-1,3,FALSE,6,,,,,,,,,,,,,,,,,,,165,9,3.2.2021,164.8965027
271,"['high', 1, 'low']",1,black,0.46377374,135,left,up,high,low,black_low_45-white_low_45-white_low_135-black_low_135,black_high_135_up,white_high_45_up,26,1.426280818,0.2485482,right,0.4487823,0,26,14,0,1,1,1,TRUE,FALSE,high_1_mask_low,0.75,-1,3,FALSE,6,,,,,,,,,,,,,,,,,,,165,9,3.2.2021,164.8965027
272,"['med', 3, 'low']",3,black,0.452104381,45,right,up,med,low,white_low_45-white_low_135-black_low_45-black_low_135,black_med_45_up,white_med_135_up,10,1.3811863,0.2485484,right,0.2218459,1,10,14,1,1,1,1,TRUE,FALSE,med_3_mask_low,0.75,-1,3,FALSE,8,,,,,,,,,,,,,,,,,,,165,9,3.2.2021,164.8965027
273,"['low', 2, 'low']",2,black,0.175112828,45,right,up,low,low,black_low_45-white_low_135-white_low_45-black_low_135,black_low_45_up,white_low_135_up,6,1.320329335,0.2449704,right,0.6634912,1,6,13,1,1,1,1,TRUE,FALSE,low_2_mask_low,0.75,-1,3,FALSE,7,,,,,,,,,,,,,,,,,,,165,9,3.2.2021,164.8965027
274,"['med', 3, 'low']",3,white,0.361068206,45,left,up,med,low,white_low_135-white_low_45-black_low_135-black_low_45,white_med_45_up,black_med_135_up,9,1.877596768,0.2485348,left,0.3164365,1,9,15,1,1,1,1,TRUE,FALSE,med_3_mask_low,0.75,-1,3,FALSE,8,,,,,,,,,,,,,,,,,,,165,9,3.2.2021,164.8965027
275,"['high', 2, 'low']",2,white,0.370794794,135,right,down,high,low,white_low_135-black_low_135-white_low_45-black_low_45,white_high_135_down,black_high_45_down,8,1.580883478,0.24855,right,0.1819136,1,8,12,1,1,1,1,TRUE,FALSE,high_2_mask_low,0.75,-1,3,FALSE,6,,,,,,,,,,,,,,,,,,,165,9,3.2.2021,164.8965027
276,"['high', 2, 'high']",2,white,0.009807537,135,right,down,high,high,white_high_135-black_high_45-black_high_135-white_high_135,white_high_135_down,black_high_45_down,16,1.105615955,0.2485458,right,0.1412248,1,16,16,0,1,1,1,TRUE,FALSE,high_2_mask_high,0.75,-1,3,TRUE,8,,,,,,,,,,,,,,,,,,,165,9,3.2.2021,164.8965027
277,"['med', 1, 'high']",1,white,0.296719288,135,right,down,med,high,black_high_135-white_high_135-black_high_45-white_high_135,white_med_135_down,black_med_45_down,14,1.200232833,0.2502914,right,0.4301364,1,14,14,1,1,1,1,TRUE,FALSE,med_1_mask_high,0.75,-1,3,FALSE,5,,,,,,,,,,,,,,,,,,,165,9,3.2.2021,164.8965027
278,"['low', 3, 'low']",3,white,0.549102551,135,right,down,low,low,black_low_135-white_low_135-white_low_45-black_low_45,white_low_135_down,black_low_45_down,5,1.619681905,0.2467732,right,0.2894293,1,5,18,1,1,1,1,TRUE,FALSE,low_3_mask_low,0.75,-1,3,FALSE,8,,,,,,,,,,,,,,,,,,,165,9,3.2.2021,164.8965027
279,"['high', 2, 'high']",2,black,0.615398248,45,right,up,high,high,black_high_45-black_high_135-white_high_135-white_high_135,black_high_45_up,white_high_135_up,15,1.195905097,0.2502822,left,1.3469335,0,15,17,1,1,1,1,TRUE,FALSE,high_2_mask_high,0.75,-1,3,TRUE,9,,,,,,,,,,,,,,,,,,,165,9,3.2.2021,164.8965027
280,"['high', 3, 'high']",3,white,0.956241962,135,right,up,high,high,black_high_45-white_high_135-black_high_135-white_high_135,white_high_135_up,black_high_45_up,21,1.212843362,0.2486323,right,0.7543221,1,21,19,1,1,1,1,TRUE,FALSE,high_3_mask_high,0.75,-1,3,FALSE,10,,,,,,,,,,,,,,,,,,,165,9,3.2.2021,164.8965027
281,"['high', 2, 'high']",2,black,0.474558644,135,left,down,high,high,black_high_45-black_high_135-white_high_135-white_high_135,black_high_135_down,white_high_45_down,18,1.820112029,0.2488444,left,0.9214843,1,18,18,0,1,1,1,TRUE,FALSE,high_2_mask_high,0.75,-1,3,TRUE,10,,,,,,,,,,,,,,,,,,,165,9,3.2.2021,164.8965027
282,"['high', 1, 'high']",1,black,0.819731546,135,left,down,high,high,black_high_135-white_high_135-black_high_45-white_high_135,black_high_135_down,white_high_45_down,34,1.25487431,0.2485494,left,3.6585577,1,34,18,1,1,1,1,TRUE,FALSE,high_1_mask_high,0.75,-1,3,FALSE,6,,,,,,,,,,,,,,,,,,,165,9,3.2.2021,164.8965027
283,"['med', 1, 'high']",1,black,0.022034547,45,right,down,med,high,black_high_135-white_high_135-white_high_135-black_high_45,black_med_45_down,white_med_135_down,13,1.420390857,0.2467251,left,0.4715214,0,13,15,1,1,1,1,TRUE,FALSE,med_1_mask_high,0.75,-1,3,TRUE,6,,,,,,,,,,,,,,,,,,,165,9,3.2.2021,164.8965027
284,"['low', 3, 'high']",3,white,0.434181437,135,right,up,low,high,black_high_135-white_high_135-black_high_45-white_high_135,white_low_135_up,black_low_45_up,12,1.976323342,0.2485427,right,0.8784649,1,12,15,1,1,1,1,TRUE,FALSE,low_3_mask_high,0.75,-1,3,FALSE,7,,,,,,,,,,,,,,,,,,,165,9,3.2.2021,164.8965027
285,"['high', 2, 'high']",2,black,0.710881842,135,left,down,high,high,white_high_135-black_high_45-black_high_135-white_high_135,black_high_135_down,white_high_45_down,17,1.987834798,0.2485508,left,1.4123517,1,17,19,1,1,1,1,TRUE,FALSE,high_2_mask_high,0.75,-1,3,FALSE,10,,,,,,,,,,,,,,,,,,,165,9,3.2.2021,164.8965027
286,"['low', 1, 'low']",1,white,0.444965233,135,right,down,low,low,black_low_45-white_low_135-black_low_135-white_low_45,white_low_135_down,black_low_45_down,24,1.5581205,0.248479,right,0.402288,1,24,20,1,1,1,1,TRUE,FALSE,low_1_mask_low,0.75,-1,3,FALSE,12,,,,,,,,,,,,,,,,,,,165,9,3.2.2021,164.8965027
287,"['med', 1, 'high']",1,white,0.07841074,135,right,up,med,high,white_high_135-black_high_45-black_high_135-white_high_135,white_med_135_up,black_med_45_up,16,1.833471804,0.2485424,right,0.293508,1,16,16,0,1,1,1,TRUE,FALSE,med_1_mask_high,0.75,-1,3,TRUE,7,,,,,,,,,,,,,,,,,,,165,9,3.2.2021,164.8965027
288,"['high', 2, 'high']",2,white,0.457944031,135,right,up,high,high,black_high_135-white_high_135-black_high_45-white_high_135,white_high_135_up,black_high_45_up,16,1.997490116,0.2485244,left,0.9813874,0,16,20,1,1,1,1,TRUE,FALSE,high_2_mask_high,0.75,-1,3,TRUE,11,,,,,,,,,,,,,,,,,,,165,9,3.2.2021,164.8965027
289,"['high', 2, 'high']",2,white,0.74202239,135,right,up,high,high,white_high_135-black_high_135-white_high_135-black_high_45,white_high_135_up,black_high_45_up,19,1.127588676,0.2485577,right,0.2876709,1,19,21,0,1,1,1,TRUE,FALSE,high_2_mask_high,0.75,-1,3,TRUE,12,,,,,,,,,,,,,,,,,,,165,9,3.2.2021,164.8965027
290,"['med', 2, 'high']",2,black,0.213217122,135,left,down,med,high,white_high_135-black_high_45-black_high_135-white_high_135,black_med_135_down,white_med_45_down,16,1.913374364,0.2485492,left,0.7832052,1,16,12,1,1,1,1,TRUE,FALSE,med_2_mask_high,0.75,-1,3,FALSE,6,,,,,,,,,,,,,,,,,,,165,9,3.2.2021,164.8965027
291,"['med', 2, 'high']",2,white,0.417347177,45,left,down,med,high,black_high_45-black_high_135-white_high_135-white_high_135,white_med_45_down,black_med_135_down,15,1.49268703,0.2485415,left,0.5541206,1,15,13,1,1,1,1,TRUE,FALSE,med_2_mask_high,0.75,-1,3,FALSE,6,,,,,,,,,,,,,,,,,,,165,9,3.2.2021,164.8965027
292,"['high', 3, 'low']",3,white,0.045817065,135,right,up,high,low,white_low_45-black_low_135-white_low_135-black_low_45,white_high_135_up,black_high_45_up,12,1.129462251,0.2485505,right,0.3115364,1,12,16,1,1,1,1,TRUE,FALSE,high_3_mask_low,0.75,-1,3,FALSE,8,,,,,,,,,,,,,,,,,,,165,9,3.2.2021,164.8965027
293,"['low', 1, 'low']",1,black,0.5130154,45,right,down,low,low,white_low_135-black_low_45-white_low_45-black_low_135,black_low_45_down,white_low_135_down,23,1.11838911,0.2485474,left,2.5230112,0,23,21,1,1,1,1,TRUE,FALSE,low_1_mask_low,0.75,-1,3,TRUE,13,,,,,,,,,,,,,,,,,,,165,9,3.2.2021,164.8965027
294,"['med', 1, 'low']",1,white,0.782951182,135,right,up,med,low,black_low_45-white_low_45-white_low_135-black_low_135,white_med_135_up,black_med_45_up,24,1.584305959,0.2485467,right,0.1929301,1,24,16,1,1,1,1,TRUE,FALSE,med_1_mask_low,0.75,-1,3,FALSE,8,,,,,,,,,,,,,,,,,,,165,9,3.2.2021,164.8965027
295,"['med', 1, 'low']",1,white,0.042126384,135,right,down,med,low,black_low_45-white_low_45-white_low_135-black_low_135,white_med_135_down,black_med_45_down,23,1.321304113,0.2485417,right,1.3033768,1,23,17,1,1,1,1,TRUE,FALSE,med_1_mask_low,0.75,-1,3,FALSE,8,,,,,,,,,,,,,,,,,,,165,9,3.2.2021,164.8965027
296,"['med', 1, 'high']",1,white,0.98404551,135,right,down,med,high,black_high_45-white_high_135-white_high_135-black_high_135,white_med_135_down,black_med_45_down,15,1.685487351,0.2485415,right,0.3609356,1,15,17,1,1,1,1,TRUE,FALSE,med_1_mask_high,0.75,-1,3,FALSE,7,,,,,,,,,,,,,,,,,,,165,9,3.2.2021,164.8965027
297,"['high', 3, 'low']",3,black,0.963110038,45,right,down,high,low,white_low_135-white_low_45-black_low_45-black_low_135,black_high_45_down,white_high_135_down,11,1.740244307,0.2503057,right,0.8586859,1,11,17,1,1,1,1,TRUE,FALSE,high_3_mask_low,0.75,-1,3,FALSE,8,,,,,,,,,,,,,,,,,,,165,9,3.2.2021,164.8965027
298,"['low', 1, 'high']",1,black,0.810424696,135,left,up,low,high,black_high_135-black_high_45-white_high_135-white_high_135,black_low_135_up,white_low_45_up,18,1.334560934,0.2485448,right,0.5190046,0,18,14,0,1,1,1,TRUE,FALSE,low_1_mask_high,0.75,-1,3,FALSE,11,,,,,,,,,,,,,,,,,,,165,9,3.2.2021,164.8965027
299,"['med', 1, 'low']",1,black,0.286464376,45,right,up,med,low,white_low_135-white_low_45-black_low_45-black_low_135,black_med_45_up,white_med_135_up,22,1.643313688,0.2485608,left,0.2212168,0,22,18,1,1,1,1,TRUE,FALSE,med_1_mask_low,0.75,-1,3,TRUE,9,,,,,,,,,,,,,,,,,,,165,9,3.2.2021,164.8965027
300,"['low', 1, 'low']",1,black,0.171553196,45,right,up,low,low,white_low_45-black_low_45-black_low_135-white_low_135,black_low_45_up,white_low_135_up,26,1.168252457,0.2485412,left,1.0348169,0,26,22,0,1,1,1,TRUE,FALSE,low_1_mask_low,0.75,-1,3,FALSE,13,,,,,,,,,,,,,,,,,,,165,9,3.2.2021,164.8965027
301,"['low', 2, 'high']",2,black,0.106749078,135,left,down,low,high,black_high_135-white_high_135-white_high_135-black_high_45,black_low_135_down,white_low_45_down,8,1.01032047,0.248548,left,0.3079858,1,8,11,0,1,1,1,TRUE,FALSE,low_2_mask_high,0.75,-1,3,TRUE,6,,,,,,,,,,,,,,,,,,,165,9,3.2.2021,164.8965027
302,"['low', 2, 'high']",2,black,0.473774675,135,left,up,low,high,black_high_45-white_high_135-black_high_135-white_high_135,black_low_135_up,white_low_45_up,7,1.025957402,0.2485456,right,0.421368,0,7,12,1,1,1,1,TRUE,FALSE,low_2_mask_high,0.75,-1,3,TRUE,7,,,,,,,,,,,,,,,,,,,165,9,3.2.2021,164.8965027
303,"['low', 3, 'low']",3,black,0.331073267,45,right,up,low,low,white_low_45-white_low_135-black_low_135-black_low_45,black_low_45_up,white_low_135_up,4,1.925533505,0.2485588,right,0.9683748,1,4,19,1,1,1,1,TRUE,FALSE,low_3_mask_low,0.75,-1,3,FALSE,8,,,,,,,,,,,,,,,,,,,165,9,3.2.2021,164.8965027
304,"['low', 3, 'high']",3,white,0.59291165,45,left,up,low,high,white_high_135-white_high_135-black_high_45-black_high_135,white_low_45_up,black_low_135_up,11,1.551899402,0.2482531,left,1.5544083,1,11,16,1,1,1,1,TRUE,FALSE,low_3_mask_high,0.75,-1,3,FALSE,7,,,,,,,,,,,,,,,,,,,165,9,3.2.2021,164.8965027
305,"['low', 1, 'high']",1,white,0.549576023,135,right,down,low,high,black_high_45-white_high_135-black_high_135-white_high_135,white_low_135_down,black_low_45_down,21,1.672080242,0.2467531,right,0.7560965,1,21,15,0,1,1,1,TRUE,FALSE,low_1_mask_high,0.75,-1,3,TRUE,12,,,,,,,,,,,,,,,,,,,165,9,3.2.2021,164.8965027
306,"['med', 3, 'low']",3,white,0.809154878,45,left,up,med,low,white_low_135-black_low_45-black_low_135-white_low_45,white_med_45_up,black_med_135_up,8,1.199231023,0.248547,right,1.7048246,0,8,16,1,1,1,1,TRUE,FALSE,med_3_mask_low,0.75,-1,3,TRUE,9,,,,,,,,,,,,,,,,,,,165,9,3.2.2021,164.8965027
307,"['high', 1, 'low']",1,white,0.575646447,135,right,down,high,low,black_low_135-black_low_45-white_low_135-white_low_45,white_high_135_down,black_high_45_down,29,1.518201055,0.2467593,right,0.3027918,1,29,15,0,1,1,1,TRUE,FALSE,high_1_mask_low,0.75,-1,3,TRUE,7,,,,,,,,,,,,,,,,,,,165,9,3.2.2021,164.8965027
308,"['high', 2, 'high']",2,black,0.694364252,135,left,up,high,high,black_high_45-black_high_135-white_high_135-white_high_135,black_high_135_up,white_high_45_up,18,1.237532536,0.2487952,left,0.8271831,1,18,22,1,1,1,1,TRUE,FALSE,high_2_mask_high,0.75,-1,3,FALSE,12,,,,,,,,,,,,,,,,,,,165,9,3.2.2021,164.8965027
309,"['high', 1, 'low']",1,black,0.862789581,45,right,down,high,low,white_low_45-black_low_45-black_low_135-white_low_135,black_high_45_down,white_high_135_down,28,1.762637343,0.2485487,right,1.5540399,1,28,16,1,1,1,1,TRUE,FALSE,high_1_mask_low,0.75,-1,3,FALSE,7,,,,,,,,,,,,,,,,,,,165,9,3.2.2021,164.8965027
310,"['med', 3, 'high']",3,white,0.577889499,45,left,down,med,high,white_high_135-black_high_45-black_high_135-white_high_135,white_med_45_down,black_med_135_down,11,1.120463414,0.2485478,left,0.2115865,1,11,9,1,1,1,1,TRUE,FALSE,med_3_mask_high,0.75,-1,3,FALSE,5,,,,,,,,,,,,,,,,,,,165,9,3.2.2021,164.8965027
311,"['low', 1, 'low']",1,white,0.359640551,45,left,down,low,low,black_low_45-white_low_45-black_low_135-white_low_135,white_low_45_down,black_low_135_down,29,1.495154907,0.2502865,left,0.4272426,1,29,23,0,1,1,1,TRUE,FALSE,low_1_mask_low,0.75,-1,3,TRUE,14,,,,,,,,,,,,,,,,,,,165,9,3.2.2021,164.8965027
312,"['low', 2, 'low']",2,white,0.31065847,135,right,up,low,low,black_low_45-white_low_45-black_low_135-white_low_135,white_low_135_up,black_low_45_up,5,1.737270853,0.2467698,right,0.2967092,1,5,14,1,1,1,1,TRUE,FALSE,low_2_mask_low,0.75,-1,3,FALSE,7,,,,,,,,,,,,,,,,,,,165,9,3.2.2021,164.8965027
313,"['med', 3, 'low']",3,black,0.073535746,45,right,down,med,low,white_low_135-black_low_135-black_low_45-white_low_45,black_med_45_down,white_med_135_down,11,1.639933402,0.248548,right,0.6202503,1,11,17,0,1,1,1,TRUE,FALSE,med_3_mask_low,0.75,-1,3,TRUE,10,,,,,,,,,,,,,,,,,,,165,9,3.2.2021,164.8965027
314,"['med', 2, 'high']",2,white,0.237221946,135,right,down,med,high,white_high_135-white_high_135-black_high_135-black_high_45,white_med_135_down,black_med_45_down,14,1.657069079,0.2485457,right,0.1925805,1,14,14,1,1,1,1,TRUE,FALSE,med_2_mask_high,0.75,-1,3,FALSE,6,,,,,,,,,,,,,,,,,,,165,9,3.2.2021,164.8965027
315,"['med', 2, 'high']",2,white,0.775251485,45,left,down,med,high,white_high_135-black_high_45-white_high_135-black_high_135,white_med_45_down,black_med_135_down,13,1.137684828,0.2488403,left,0.1886222,1,13,15,1,1,1,1,TRUE,FALSE,med_2_mask_high,0.75,-1,3,FALSE,6,,,,,,,,,,,,,,,,,,,165,9,3.2.2021,164.8965027
316,"['high', 2, 'low']",2,black,0.291064888,45,right,down,high,low,white_low_45-black_low_135-white_low_135-black_low_45,black_high_45_down,white_high_135_down,7,1.828817989,0.2466989,left,0.6850429,0,7,13,1,1,1,1,TRUE,FALSE,high_2_mask_low,0.75,-1,3,TRUE,7,,,,,,,,,,,,,,,,,,,165,9,3.2.2021,164.8965027
317,"['med', 3, 'high']",3,black,0.12579355,45,right,up,med,high,white_high_135-white_high_135-black_high_135-black_high_45,black_med_45_up,white_med_135_up,10,1.810205682,0.2485402,right,0.0209024,1,10,10,1,1,1,1,TRUE,FALSE,med_3_mask_high,0.75,-1,3,FALSE,5,,,,,,,,,,,,,,,,,,,165,9,3.2.2021,164.8965027
318,"['low', 2, 'high']",2,white,0.284241788,135,right,up,low,high,black_high_45-white_high_135-black_high_135-white_high_135,white_low_135_up,black_low_45_up,10,1.138498049,0.2485451,right,0.3728094,1,10,13,0,1,1,1,TRUE,FALSE,low_2_mask_high,0.75,-1,3,TRUE,8,,,,,,,,,,,,,,,,,,,165,9,3.2.2021,164.8965027
319,"['high', 3, 'high']",3,white,0.797430319,135,right,up,high,high,white_high_135-black_high_135-black_high_45-white_high_135,white_high_135_up,black_high_45_up,20,1.161254598,0.2485477,left,1.0657763,0,20,20,1,1,1,1,TRUE,FALSE,high_3_mask_high,0.75,-1,3,TRUE,11,,,,,,,,,,,,,,,,,,,165,9,3.2.2021,164.8965027
320,"['high', 1, 'low']",1,white,0.646958614,45,left,down,high,low,white_low_135-black_low_45-white_low_45-black_low_135,white_high_45_down,black_high_135_down,27,1.581396048,0.248539,left,0.6339001,1,27,17,1,1,1,1,TRUE,FALSE,high_1_mask_low,0.75,-1,3,FALSE,7,,,,,,,,,,,,,,,,,,,165,9,3.2.2021,164.8965027
321,"['low', 3, 'low']",3,black,0.81167702,45,right,down,low,low,white_low_135-white_low_45-black_low_45-black_low_135,black_low_45_down,white_low_135_down,3,1.431972787,0.2467214,right,0.3511245,1,3,20,1,1,1,1,TRUE,FALSE,low_3_mask_low,0.75,-1,3,FALSE,8,,,,,,,,,,,,,,,,,,,165,9,3.2.2021,164.8965027
322,"['med', 3, 'high']",3,black,0.093514907,135,left,down,med,high,black_high_135-white_high_135-black_high_45-white_high_135,black_med_135_down,white_med_45_down,9,1.209615112,0.2502946,right,1.3445585,0,9,11,1,1,1,1,TRUE,FALSE,med_3_mask_high,0.75,-1,3,TRUE,6,,,,,,,,,,,,,,,,,,,165,9,3.2.2021,164.8965027
323,"['high', 2, 'low']",2,black,0.101766896,135,left,up,high,low,white_low_45-black_low_135-black_low_45-white_low_135,black_high_135_up,white_high_45_up,10,1.18453608,0.2485523,right,1.900766,0,10,14,0,1,1,1,TRUE,FALSE,high_2_mask_low,0.75,-1,3,FALSE,7,,,,,,,,,,,,,,,,,,,165,9,3.2.2021,164.8965027
324,"['high', 3, 'low']",3,white,0.855203702,45,left,up,high,low,white_low_135-black_low_45-black_low_135-white_low_45,white_high_45_up,black_high_135_up,10,1.628210675,0.2467249,left,0.2270535,1,10,18,1,1,1,1,TRUE,FALSE,high_3_mask_low,0.75,-1,3,FALSE,8,,,,,,,,,,,,,,,,,,,165,9,3.2.2021,164.8965027
