trial_number,trial_type,cycle_number,first_color,phase,first_orientation,correct_response,visual_field,spatial_frequency,mask_type,mask_images,first_stim,second_stim,stimulus_frame_duration,fixation_duration,mask_duration,answer,rt,accuracy,staircase_dv,staircase_trial_num,staircase_previous_correct,staircase_phase,staircase_step_size,staircase_powers_law,staircase_siam,staircase_over,staircase_name,staircase_conv_p,staircase_step_hit,staircase_step_miss,staircase_reversal,staircase_reversal_num,threshold_low1_mask_low,threshold_low2_mask_low,threshold_low3_mask_low,threshold_high1_mask_low,threshold_high2_mask_low,threshold_high3_mask_low,threshold_low1_mask_high,threshold_low2_mask_high,threshold_low3_mask_high,threshold_high1_mask_high,threshold_high2_mask_high,threshold_high3_mask_high,threshold_med1_mask_low,threshold_med2_mask_low,threshold_med3_mask_low,threshold_med1_mask_high,threshold_med2_mask_high,threshold_med3_mask_high,frame_rate,participant,psychopyVersion,frame_rate_detected
0,"['med', 3, 'low']",3,black,0.375228505,45,right,down,med,low,white_low_135-black_low_45-black_low_135-white_low_45,black_med_45_down,white_med_135_down,8,1.374454118,0.2485493,right,0.2872415,1,8,0,None,0,1,1,TRUE,FALSE,med_3_mask_low,0.75,-1,3,FALSE,0,,,,,,,,,,,,,,,,,,,165,8,3.2.2021,164.9737609
1,"['high', 1, 'high']",1,white,0.400573034,135,right,down,high,high,white_high_135-white_high_135-black_high_45-black_high_135,white_high_135_down,black_high_45_down,12,1.955422236,0.2485404,right,0.6002948,1,12,0,None,0,1,1,TRUE,FALSE,high_1_mask_high,0.75,-1,3,FALSE,0,,,,,,,,,,,,,,,,,,,165,8,3.2.2021,164.9737609
2,"['med', 2, 'high']",2,white,0.717206892,45,left,down,med,high,black_high_45-white_high_135-white_high_135-black_high_135,white_med_45_down,black_med_135_down,8,1.856190445,0.2449719,right,0.5768887,0,8,0,None,0,1,1,TRUE,FALSE,med_2_mask_high,0.75,-1,3,FALSE,0,,,,,,,,,,,,,,,,,,,165,8,3.2.2021,164.9737609
3,"['low', 2, 'high']",2,black,0.765397929,135,left,down,low,high,white_high_135-black_high_45-black_high_135-white_high_135,black_low_135_down,white_low_45_down,3,1.78928579,0.2485637,right,1.0398554,0,3,0,None,0,1,1,TRUE,FALSE,low_2_mask_high,0.75,-1,3,FALSE,0,,,,,,,,,,,,,,,,,,,165,8,3.2.2021,164.9737609
4,"['high', 2, 'low']",2,black,0.098813029,45,right,down,high,low,black_low_45-white_low_45-black_low_135-white_low_135,black_high_45_down,white_high_135_down,8,1.454299814,0.2443315,right,2.3063422,1,8,0,None,0,1,1,TRUE,FALSE,high_2_mask_low,0.75,-1,3,FALSE,0,,,,,,,,,,,,,,,,,,,165,8,3.2.2021,164.9737609
5,"['med', 3, 'high']",3,black,0.586931561,135,left,down,med,high,black_high_135-black_high_45-white_high_135-white_high_135,black_med_135_down,white_med_45_down,8,1.283127642,0.24855,left,1.2357128,1,8,0,None,0,1,1,TRUE,FALSE,med_3_mask_high,0.75,-1,3,FALSE,0,,,,,,,,,,,,,,,,,,,165,8,3.2.2021,164.9737609
6,"['high', 3, 'low']",3,white,0.069861421,45,left,up,high,low,white_low_135-white_low_45-black_low_135-black_low_45,white_high_45_up,black_high_135_up,8,1.625715041,0.2485436,right,1.4769024,0,8,0,None,0,1,1,TRUE,FALSE,high_3_mask_low,0.75,-1,3,FALSE,0,,,,,,,,,,,,,,,,,,,165,8,3.2.2021,164.9737609
7,"['low', 3, 'high']",3,white,0.166479955,45,left,up,low,high,white_high_135-white_high_135-black_high_135-black_high_45,white_low_45_up,black_low_135_up,3,1.50302369,0.2500152,right,0.4429416,0,3,0,None,0,1,1,TRUE,FALSE,low_3_mask_high,0.75,-1,3,FALSE,0,,,,,,,,,,,,,,,,,,,165,8,3.2.2021,164.9737609
8,"['med', 1, 'high']",1,white,0.255003167,45,left,up,med,high,white_high_135-black_high_45-white_high_135-black_high_135,white_med_45_up,black_med_135_up,12,1.191197769,0.2485499,right,1.3079413,0,12,0,None,0,1,1,TRUE,FALSE,med_1_mask_high,0.75,-1,3,FALSE,0,,,,,,,,,,,,,,,,,,,165,8,3.2.2021,164.9737609
9,"['high', 1, 'high']",1,black,0.882732694,135,left,down,high,high,black_high_135-black_high_45-white_high_135-white_high_135,black_high_135_down,white_high_45_down,11,1.583547846,0.2503174,right,1.0325172,0,11,1,1,0,1,1,TRUE,FALSE,high_1_mask_high,0.75,-1,3,TRUE,1,,,,,,,,,,,,,,,,,,,165,8,3.2.2021,164.9737609
10,"['low', 1, 'high']",1,white,0.943276393,45,left,up,low,high,black_high_135-black_high_45-white_high_135-white_high_135,white_low_45_up,black_low_135_up,8,1.149144179,0.2485459,left,0.5224306,1,8,0,None,0,1,1,TRUE,FALSE,low_1_mask_high,0.75,-1,3,FALSE,0,,,,,,,,,,,,,,,,,,,165,8,3.2.2021,164.9737609
11,"['med', 2, 'high']",2,black,0.898552683,135,left,up,med,high,black_high_135-black_high_45-white_high_135-white_high_135,black_med_135_up,white_med_45_up,11,1.56432198,0.2485748,left,0.7428887,1,11,1,0,0,1,1,TRUE,FALSE,med_2_mask_high,0.75,-1,3,TRUE,1,,,,,,,,,,,,,,,,,,,165,8,3.2.2021,164.9737609
12,"['high', 2, 'low']",2,black,0.937973847,45,right,down,high,low,black_low_135-white_low_135-black_low_45-white_low_45,black_high_45_down,white_high_135_down,7,1.707167722,0.2485468,right,0.842495,1,7,1,1,0,1,1,TRUE,FALSE,high_2_mask_low,0.75,-1,3,FALSE,0,,,,,,,,,,,,,,,,,,,165,8,3.2.2021,164.9737609
13,"['med', 1, 'high']",1,white,0.271385453,45,left,up,med,high,black_high_135-white_high_135-black_high_45-white_high_135,white_med_45_up,black_med_135_up,15,1.843921115,0.24854,left,0.6073099,1,15,1,0,0,1,1,TRUE,FALSE,med_1_mask_high,0.75,-1,3,TRUE,1,,,,,,,,,,,,,,,,,,,165,8,3.2.2021,164.9737609
14,"['high', 3, 'high']",3,white,0.972422511,135,right,up,high,high,black_high_135-white_high_135-black_high_45-white_high_135,white_high_135_up,black_high_45_up,8,1.338438208,0.2485502,right,0.4714878,1,8,0,None,0,1,1,TRUE,FALSE,high_3_mask_high,0.75,-1,3,FALSE,0,,,,,,,,,,,,,,,,,,,165,8,3.2.2021,164.9737609
15,"['med', 3, 'high']",3,black,0.399064802,45,right,down,med,high,white_high_135-black_high_45-black_high_135-white_high_135,black_med_45_down,white_med_135_down,7,1.003107998,0.2485398,right,0.3573774,1,7,1,1,0,1,1,TRUE,FALSE,med_3_mask_high,0.75,-1,3,FALSE,0,,,,,,,,,,,,,,,,,,,165,8,3.2.2021,164.9737609
16,"['high', 1, 'high']",1,black,0.707011691,45,right,up,high,high,black_high_45-white_high_135-white_high_135-black_high_135,black_high_45_up,white_high_135_up,14,1.787489493,0.25029,left,0.8956355,0,14,2,0,0,1,1,TRUE,FALSE,high_1_mask_high,0.75,-1,3,FALSE,1,,,,,,,,,,,,,,,,,,,165,8,3.2.2021,164.9737609
17,"['med', 2, 'low']",2,white,0.335259674,135,right,down,med,low,white_low_45-black_low_45-black_low_135-white_low_135,white_med_135_down,black_med_45_down,8,1.60230698,0.2485437,right,0.3414185,1,8,0,None,0,1,1,TRUE,FALSE,med_2_mask_low,0.75,-1,3,FALSE,0,,,,,,,,,,,,,,,,,,,165,8,3.2.2021,164.9737609
18,"['med', 1, 'low']",1,white,0.316526448,135,right,down,med,low,black_low_135-black_low_45-white_low_135-white_low_45,white_med_135_down,black_med_45_down,12,1.969058758,0.2472543,right,0.2631504,1,12,0,None,0,1,1,TRUE,FALSE,med_1_mask_low,0.75,-1,3,FALSE,0,,,,,,,,,,,,,,,,,,,165,8,3.2.2021,164.9737609
19,"['high', 2, 'low']",2,black,0.583669024,135,left,up,high,low,white_low_135-black_low_135-black_low_45-white_low_45,black_high_135_up,white_high_45_up,6,1.288872894,0.2467655,left,0.4051065,1,6,2,1,0,1,1,TRUE,FALSE,high_2_mask_low,0.75,-1,3,FALSE,0,,,,,,,,,,,,,,,,,,,165,8,3.2.2021,164.9737609
20,"['med', 2, 'low']",2,white,0.655097618,45,left,down,med,low,white_low_135-black_low_135-white_low_45-black_low_45,white_med_45_down,black_med_135_down,7,1.379007375,0.2485234,right,0.3160068,0,7,1,1,0,1,1,TRUE,FALSE,med_2_mask_low,0.75,-1,3,TRUE,1,,,,,,,,,,,,,,,,,,,165,8,3.2.2021,164.9737609
21,"['med', 2, 'high']",2,white,0.898227799,135,right,down,med,high,black_high_45-white_high_135-white_high_135-black_high_135,white_med_135_down,black_med_45_down,10,1.581618833,0.2467648,right,0.3995002,1,10,2,1,0,1,1,TRUE,FALSE,med_2_mask_high,0.75,-1,3,FALSE,1,,,,,,,,,,,,,,,,,,,165,8,3.2.2021,164.9737609
22,"['high', 3, 'high']",3,black,0.009633258,135,left,up,high,high,black_high_45-white_high_135-black_high_135-white_high_135,black_high_135_up,white_high_45_up,7,1.633780009,0.2485468,right,1.0757794,0,7,1,1,0,1,1,TRUE,FALSE,high_3_mask_high,0.75,-1,3,TRUE,1,,,,,,,,,,,,,,,,,,,165,8,3.2.2021,164.9737609
23,"['low', 2, 'high']",2,white,0.165764777,45,left,down,low,high,white_high_135-white_high_135-black_high_45-black_high_135,white_low_45_down,black_low_135_down,6,1.224620932,0.2485485,left,3.3029428,1,6,1,0,0,1,1,TRUE,FALSE,low_2_mask_high,0.75,-1,3,TRUE,1,,,,,,,,,,,,,,,,,,,165,8,3.2.2021,164.9737609
24,"['med', 2, 'high']",2,black,0.25250688,45,right,down,med,high,white_high_135-black_high_135-white_high_135-black_high_45,black_med_45_down,white_med_135_down,9,1.687937719,0.2485636,left,0.478235,0,9,3,1,0,1,1,TRUE,FALSE,med_2_mask_high,0.75,-1,3,TRUE,2,,,,,,,,,,,,,,,,,,,165,8,3.2.2021,164.9737609
25,"['med', 2, 'high']",2,black,0.662192967,45,right,down,med,high,black_high_45-white_high_135-black_high_135-white_high_135,black_med_45_down,white_med_135_down,12,1.82427145,0.2485446,left,0.7845626,0,12,4,0,0,1,1,TRUE,FALSE,med_2_mask_high,0.75,-1,3,FALSE,2,,,,,,,,,,,,,,,,,,,165,8,3.2.2021,164.9737609
26,"['high', 1, 'high']",1,black,0.707474005,45,right,up,high,high,white_high_135-black_high_45-white_high_135-black_high_135,black_high_45_up,white_high_135_up,17,1.22047265,0.2450245,left,2.7253775,0,17,3,0,0,1,1,TRUE,FALSE,high_1_mask_high,0.75,-1,3,FALSE,1,,,,,,,,,,,,,,,,,,,165,8,3.2.2021,164.9737609
27,"['med', 2, 'low']",2,black,0.236267572,135,left,up,med,low,black_low_45-white_low_45-black_low_135-white_low_135,black_med_135_up,white_med_45_up,10,1.823562523,0.2485408,right,0.2614277,0,10,2,0,0,1,1,TRUE,FALSE,med_2_mask_low,0.75,-1,3,FALSE,1,,,,,,,,,,,,,,,,,,,165,8,3.2.2021,164.9737609
28,"['low', 1, 'low']",1,black,0.094712026,135,left,down,low,low,white_low_135-black_low_135-black_low_45-white_low_45,black_low_135_down,white_low_45_down,8,1.23294887,0.2502974,right,0.210413,0,8,0,None,0,1,1,TRUE,FALSE,low_1_mask_low,0.75,-1,3,FALSE,0,,,,,,,,,,,,,,,,,,,165,8,3.2.2021,164.9737609
29,"['med', 1, 'high']",1,black,0.37035144,45,right,up,med,high,black_high_135-white_high_135-white_high_135-black_high_45,black_med_45_up,white_med_135_up,14,1.520917316,0.2485562,right,0.7286813,1,14,2,1,0,1,1,TRUE,FALSE,med_1_mask_high,0.75,-1,3,FALSE,1,,,,,,,,,,,,,,,,,,,165,8,3.2.2021,164.9737609
30,"['med', 3, 'high']",3,black,0.046677409,135,left,down,med,high,black_high_135-black_high_45-white_high_135-white_high_135,black_med_135_down,white_med_45_down,6,1.408333632,0.2503243,left,0.8003589,1,6,2,1,0,1,1,TRUE,FALSE,med_3_mask_high,0.75,-1,3,FALSE,0,,,,,,,,,,,,,,,,,,,165,8,3.2.2021,164.9737609
31,"['high', 1, 'high']",1,black,0.665392132,45,right,down,high,high,white_high_135-black_high_135-black_high_45-white_high_135,black_high_45_down,white_high_135_down,20,1.191891495,0.2485565,right,2.0274651,1,20,4,0,0,1,1,TRUE,FALSE,high_1_mask_high,0.75,-1,3,TRUE,2,,,,,,,,,,,,,,,,,,,165,8,3.2.2021,164.9737609
32,"['med', 1, 'low']",1,black,0.92746118,135,left,down,med,low,white_low_135-black_low_135-black_low_45-white_low_45,black_med_135_down,white_med_45_down,11,1.419289749,0.2485482,right,0.242805,0,11,1,1,0,1,1,TRUE,FALSE,med_1_mask_low,0.75,-1,3,TRUE,1,,,,,,,,,,,,,,,,,,,165,8,3.2.2021,164.9737609
33,"['low', 1, 'low']",1,white,0.45338632,135,right,up,low,low,black_low_135-black_low_45-white_low_135-white_low_45,white_low_135_up,black_low_45_up,11,1.184032343,0.2485454,right,0.2551169,1,11,1,0,0,1,1,TRUE,FALSE,low_1_mask_low,0.75,-1,3,TRUE,1,,,,,,,,,,,,,,,,,,,165,8,3.2.2021,164.9737609
34,"['low', 1, 'high']",1,black,0.620037956,45,right,up,low,high,black_high_135-white_high_135-black_high_45-white_high_135,black_low_45_up,white_low_135_up,7,1.162020828,0.2467236,right,0.207735,1,7,1,1,0,1,1,TRUE,FALSE,low_1_mask_high,0.75,-1,3,FALSE,0,,,,,,,,,,,,,,,,,,,165,8,3.2.2021,164.9737609
35,"['low', 2, 'low']",2,black,0.785660809,45,right,down,low,low,black_low_45-white_low_135-black_low_135-white_low_45,black_low_45_down,white_low_135_down,3,1.716637583,0.2485445,right,1.0463278,1,3,0,None,0,1,1,TRUE,FALSE,low_2_mask_low,0.75,-1,3,FALSE,0,,,,,,,,,,,,,,,,,,,165,8,3.2.2021,164.9737609
36,"['high', 3, 'low']",3,white,0.393438727,135,right,down,high,low,white_low_135-black_low_45-white_low_45-black_low_135,white_high_135_down,black_high_45_down,11,1.165764498,0.2503318,right,0.648856,1,11,1,0,0,1,1,TRUE,FALSE,high_3_mask_low,0.75,-1,3,TRUE,1,,,,,,,,,,,,,,,,,,,165,8,3.2.2021,164.9737609
37,"['low', 1, 'high']",1,white,0.277782821,45,left,up,low,high,white_high_135-white_high_135-black_high_45-black_high_135,white_low_45_up,black_low_135_up,6,1.948499896,0.2485323,right,1.2044069,0,6,2,1,0,1,1,TRUE,FALSE,low_1_mask_high,0.75,-1,3,TRUE,1,,,,,,,,,,,,,,,,,,,165,8,3.2.2021,164.9737609
38,"['low', 2, 'high']",2,white,0.159083829,45,left,down,low,high,white_high_135-white_high_135-black_high_45-black_high_135,white_low_45_down,black_low_135_down,5,1.142221108,0.2467121,left,0.2384786,1,5,2,1,0,1,1,TRUE,FALSE,low_2_mask_high,0.75,-1,3,FALSE,1,,,,,,,,,,,,,,,,,,,165,8,3.2.2021,164.9737609
39,"['low', 2, 'high']",2,black,0.347655005,135,left,down,low,high,black_high_45-white_high_135-black_high_135-white_high_135,black_low_135_down,white_low_45_down,4,1.662533186,0.2485432,right,0.3728726,0,4,3,1,0,1,1,TRUE,FALSE,low_2_mask_high,0.75,-1,3,TRUE,2,,,,,,,,,,,,,,,,,,,165,8,3.2.2021,164.9737609
40,"['high', 3, 'high']",3,black,0.086337136,135,left,down,high,high,white_high_135-black_high_45-black_high_135-white_high_135,black_high_135_down,white_high_45_down,10,1.680032381,0.248549,right,0.3674863,0,10,2,0,0,1,1,TRUE,FALSE,high_3_mask_high,0.75,-1,3,FALSE,1,,,,,,,,,,,,,,,,,,,165,8,3.2.2021,164.9737609
41,"['low', 1, 'high']",1,white,0.791505605,45,left,down,low,high,black_high_45-white_high_135-black_high_135-white_high_135,white_low_45_down,black_low_135_down,9,1.368156224,0.2449712,left,0.5087711,1,9,3,0,0,1,1,TRUE,FALSE,low_1_mask_high,0.75,-1,3,TRUE,2,,,,,,,,,,,,,,,,,,,165,8,3.2.2021,164.9737609
42,"['low', 1, 'high']",1,white,0.474356273,135,right,up,low,high,white_high_135-black_high_45-white_high_135-black_high_135,white_low_135_up,black_low_45_up,8,1.924710891,0.2485446,right,0.4772767,1,8,4,1,0,1,1,TRUE,FALSE,low_1_mask_high,0.75,-1,3,FALSE,2,,,,,,,,,,,,,,,,,,,165,8,3.2.2021,164.9737609
43,"['high', 3, 'low']",3,black,0.979053763,135,left,up,high,low,white_low_135-black_low_45-white_low_45-black_low_135,black_high_135_up,white_high_45_up,10,1.052513696,0.2467611,right,0.4027345,0,10,2,1,0,1,1,TRUE,FALSE,high_3_mask_low,0.75,-1,3,TRUE,2,,,,,,,,,,,,,,,,,,,165,8,3.2.2021,164.9737609
44,"['high', 1, 'low']",1,white,0.245614451,45,left,down,high,low,black_low_135-white_low_45-black_low_45-white_low_135,white_high_45_down,black_high_135_down,12,1.958595438,0.2485358,right,1.6479626,0,12,0,None,0,1,1,TRUE,FALSE,high_1_mask_low,0.75,-1,3,FALSE,0,,,,,,,,,,,,,,,,,,,165,8,3.2.2021,164.9737609
45,"['low', 2, 'low']",2,black,0.143514474,45,right,up,low,low,black_low_45-black_low_135-white_low_45-white_low_135,black_low_45_up,white_low_135_up,2,1.864217755,0.2467412,left,0.4362248,0,2,1,1,0,1,1,TRUE,FALSE,low_2_mask_low,0.75,-1,3,TRUE,1,,,,,,,,,,,,,,,,,,,165,8,3.2.2021,164.9737609
46,"['low', 1, 'high']",1,white,0.091752383,45,left,up,low,high,black_high_135-black_high_45-white_high_135-white_high_135,white_low_45_up,black_low_135_up,7,1.350773706,0.2488433,right,0.1116438,0,7,5,1,0,1,1,TRUE,FALSE,low_1_mask_high,0.75,-1,3,TRUE,3,,,,,,,,,,,,,,,,,,,165,8,3.2.2021,164.9737609
47,"['high', 2, 'high']",2,white,0.653266681,45,left,up,high,high,black_high_45-white_high_135-white_high_135-black_high_135,white_high_45_up,black_high_135_up,8,1.11480331,0.2488446,right,0.2808503,0,8,0,None,0,1,1,TRUE,FALSE,high_2_mask_high,0.75,-1,3,FALSE,0,,,,,,,,,,,,,,,,,,,165,8,3.2.2021,164.9737609
48,"['low', 2, 'high']",2,white,0.165119559,135,right,down,low,high,black_high_45-white_high_135-black_high_135-white_high_135,white_low_135_down,black_low_45_down,7,1.701003143,0.2485527,right,0.0264562,1,7,4,0,0,1,1,TRUE,FALSE,low_2_mask_high,0.75,-1,3,TRUE,3,,,,,,,,,,,,,,,,,,,165,8,3.2.2021,164.9737609
49,"['low', 1, 'high']",1,white,0.421166854,45,left,up,low,high,black_high_45-white_high_135-white_high_135-black_high_135,white_low_45_up,black_low_135_up,10,1.956360081,0.2485454,right,0.0319234,0,10,6,0,0,1,1,TRUE,FALSE,low_1_mask_high,0.75,-1,3,FALSE,3,,,,,,,,,,,,,,,,,,,165,8,3.2.2021,164.9737609
50,"['med', 1, 'high']",1,white,0.531327604,135,right,down,med,high,black_high_135-white_high_135-white_high_135-black_high_45,white_med_135_down,black_med_45_down,13,1.734379781,0.2467024,right,0.3776304,1,13,3,1,0,1,1,TRUE,FALSE,med_1_mask_high,0.75,-1,3,FALSE,1,,,,,,,,,,,,,,,,,,,165,8,3.2.2021,164.9737609
51,"['low', 2, 'low']",2,black,0.877570943,45,right,down,low,low,black_low_45-white_low_135-black_low_135-white_low_45,black_low_45_down,white_low_135_down,5,1.425811199,0.2485488,right,0.1906921,1,5,2,0,0,1,1,TRUE,FALSE,low_2_mask_low,0.75,-1,3,TRUE,2,,,,,,,,,,,,,,,,,,,165,8,3.2.2021,164.9737609
52,"['high', 1, 'high']",1,white,0.275694287,45,left,down,high,high,black_high_45-white_high_135-white_high_135-black_high_135,white_high_45_down,black_high_135_down,19,1.484560495,0.2485567,left,0.5029652,1,19,5,1,0,1,1,TRUE,FALSE,high_1_mask_high,0.75,-1,3,FALSE,2,,,,,,,,,,,,,,,,,,,165,8,3.2.2021,164.9737609
53,"['med', 2, 'high']",2,black,0.969795436,135,left,up,med,high,white_high_135-black_high_135-black_high_45-white_high_135,black_med_135_up,white_med_45_up,15,1.225234189,0.2485522,right,0.3190636,0,15,5,0,0,1,1,TRUE,FALSE,med_2_mask_high,0.75,-1,3,FALSE,2,,,,,,,,,,,,,,,,,,,165,8,3.2.2021,164.9737609
54,"['med', 1, 'high']",1,white,0.637618188,135,right,up,med,high,white_high_135-black_high_45-white_high_135-black_high_135,white_med_135_up,black_med_45_up,12,1.07621126,0.248524,right,0.3002709,1,12,4,1,0,1,1,TRUE,FALSE,med_1_mask_high,0.75,-1,3,FALSE,1,,,,,,,,,,,,,,,,,,,165,8,3.2.2021,164.9737609
55,"['high', 1, 'low']",1,white,0.835853386,45,left,down,high,low,black_low_135-white_low_135-white_low_45-black_low_45,white_high_45_down,black_high_135_down,15,1.018803113,0.2485458,left,0.1556413,1,15,1,0,0,1,1,TRUE,FALSE,high_1_mask_low,0.75,-1,3,TRUE,1,,,,,,,,,,,,,,,,,,,165,8,3.2.2021,164.9737609
56,"['high', 2, 'low']",2,black,0.330420854,45,right,down,high,low,white_low_135-black_low_45-black_low_135-white_low_45,black_high_45_down,white_high_135_down,5,1.657324856,0.2485533,right,0.6626472,1,5,3,1,0,1,1,TRUE,FALSE,high_2_mask_low,0.75,-1,3,FALSE,0,,,,,,,,,,,,,,,,,,,165,8,3.2.2021,164.9737609
57,"['high', 2, 'high']",2,white,0.944231736,135,right,down,high,high,black_high_135-black_high_45-white_high_135-white_high_135,white_high_135_down,black_high_45_down,11,1.012457701,0.2485489,right,0.3539686,1,11,1,0,0,1,1,TRUE,FALSE,high_2_mask_high,0.75,-1,3,TRUE,1,,,,,,,,,,,,,,,,,,,165,8,3.2.2021,164.9737609
58,"['high', 2, 'low']",2,black,0.984978015,135,left,up,high,low,black_low_135-black_low_45-white_low_135-white_low_45,black_high_135_up,white_high_45_up,4,1.880977267,0.2467536,right,0.4588016,0,4,4,1,0,1,1,TRUE,FALSE,high_2_mask_low,0.75,-1,3,TRUE,1,,,,,,,,,,,,,,,,,,,165,8,3.2.2021,164.9737609
59,"['high', 1, 'high']",1,black,0.098928798,135,left,down,high,high,black_high_45-white_high_135-black_high_135-white_high_135,black_high_135_down,white_high_45_down,18,1.401147277,0.2488441,right,0.334475,0,18,6,1,0,1,1,TRUE,FALSE,high_1_mask_high,0.75,-1,3,TRUE,3,,,,,,,,,,,,,,,,,,,165,8,3.2.2021,164.9737609
60,"['med', 3, 'high']",3,white,0.579450265,45,left,down,med,high,black_high_45-white_high_135-black_high_135-white_high_135,white_med_45_down,black_med_135_down,5,1.45755226,0.2485487,left,0.4940784,1,5,3,1,0,1,1,TRUE,FALSE,med_3_mask_high,0.75,-1,3,FALSE,0,,,,,,,,,,,,,,,,,,,165,8,3.2.2021,164.9737609
61,"['high', 3, 'high']",3,white,0.619768311,135,right,up,high,high,black_high_135-black_high_45-white_high_135-white_high_135,white_high_135_up,black_high_45_up,13,1.956602579,0.2485563,right,0.5976545,1,13,3,0,0,1,1,TRUE,FALSE,high_3_mask_high,0.75,-1,3,TRUE,2,,,,,,,,,,,,,,,,,,,165,8,3.2.2021,164.9737609
62,"['high', 3, 'high']",3,white,0.11997853,135,right,down,high,high,white_high_135-black_high_45-black_high_135-white_high_135,white_high_135_down,black_high_45_down,12,1.544434883,0.2485534,right,1.4927927,1,12,4,1,0,1,1,TRUE,FALSE,high_3_mask_high,0.75,-1,3,FALSE,2,,,,,,,,,,,,,,,,,,,165,8,3.2.2021,164.9737609
63,"['med', 1, 'high']",1,black,0.269656499,45,right,down,med,high,black_high_45-white_high_135-white_high_135-black_high_135,black_med_45_down,white_med_135_down,11,1.66563335,0.2485463,right,0.4323052,1,11,5,1,0,1,1,TRUE,FALSE,med_1_mask_high,0.75,-1,3,FALSE,1,,,,,,,,,,,,,,,,,,,165,8,3.2.2021,164.9737609
64,"['low', 2, 'low']",2,black,0.635404248,135,left,down,low,low,white_low_135-black_low_135-white_low_45-black_low_45,black_low_135_down,white_low_45_down,4,1.208508029,0.2485502,right,0.3586406,0,4,3,1,0,1,1,TRUE,FALSE,low_2_mask_low,0.75,-1,3,TRUE,3,,,,,,,,,,,,,,,,,,,165,8,3.2.2021,164.9737609
65,"['low', 3, 'high']",3,black,0.352117451,135,left,down,low,high,white_high_135-white_high_135-black_high_135-black_high_45,black_low_135_down,white_low_45_down,6,1.630338408,0.2443116,right,3.1334678,0,6,1,0,0,1,1,TRUE,FALSE,low_3_mask_high,0.75,-1,3,FALSE,0,,,,,,,,,,,,,,,,,,,165,8,3.2.2021,164.9737609
66,"['low', 2, 'high']",2,black,0.318220391,45,right,up,low,high,white_high_135-black_high_45-black_high_135-white_high_135,black_low_45_up,white_low_135_up,6,1.571191813,0.2468641,right,0.3639583,1,6,5,1,0,1,1,TRUE,FALSE,low_2_mask_high,0.75,-1,3,FALSE,3,,,,,,,,,,,,,,,,,,,165,8,3.2.2021,164.9737609
67,"['high', 1, 'low']",1,white,0.917122109,135,right,down,high,low,black_low_135-white_low_135-black_low_45-white_low_45,white_high_135_down,black_high_45_down,14,1.700746805,0.2485452,right,0.3547427,1,14,2,1,0,1,1,TRUE,FALSE,high_1_mask_low,0.75,-1,3,FALSE,1,,,,,,,,,,,,,,,,,,,165,8,3.2.2021,164.9737609
68,"['low', 1, 'high']",1,white,0.933760772,45,left,up,low,high,white_high_135-black_high_45-black_high_135-white_high_135,white_low_45_up,black_low_135_up,13,1.692500945,0.2503233,left,0.3072701,1,13,7,0,0,1,1,TRUE,FALSE,low_1_mask_high,0.75,-1,3,TRUE,4,,,,,,,,,,,,,,,,,,,165,8,3.2.2021,164.9737609
69,"['med', 2, 'high']",2,white,0.23605877,135,right,down,med,high,white_high_135-black_high_135-black_high_45-white_high_135,white_med_135_down,black_med_45_down,18,1.904389704,0.2485526,right,0.4478014,1,18,6,0,0,1,1,TRUE,FALSE,med_2_mask_high,0.75,-1,3,TRUE,3,,,,,,,,,,,,,,,,,,,165,8,3.2.2021,164.9737609
70,"['high', 2, 'low']",2,black,0.710916053,135,left,up,high,low,white_low_45-white_low_135-black_low_45-black_low_135,black_high_135_up,white_high_45_up,7,1.133410963,0.2485482,right,0.6762512,0,7,5,0,0,1,1,TRUE,FALSE,high_2_mask_low,0.75,-1,3,FALSE,1,,,,,,,,,,,,,,,,,,,165,8,3.2.2021,164.9737609
71,"['high', 1, 'low']",1,black,0.038820685,135,left,down,high,low,white_low_135-black_low_45-white_low_45-black_low_135,black_high_135_down,white_high_45_down,13,1.664890852,0.2485802,right,0.2354998,0,13,3,1,0,1,1,TRUE,FALSE,high_1_mask_low,0.75,-1,3,TRUE,2,,,,,,,,,,,,,,,,,,,165,8,3.2.2021,164.9737609
72,"['low', 3, 'low']",3,white,0.307650838,135,right,down,low,low,black_low_135-white_low_45-black_low_45-white_low_135,white_low_135_down,black_low_45_down,3,1.554958566,0.246734,right,0.2800111,1,3,0,None,0,1,1,TRUE,FALSE,low_3_mask_low,0.75,-1,3,FALSE,0,,,,,,,,,,,,,,,,,,,165,8,3.2.2021,164.9737609
73,"['low', 3, 'low']",3,white,0.368049138,135,right,up,low,low,black_low_135-white_low_45-white_low_135-black_low_45,white_low_135_up,black_low_45_up,2,1.479908146,0.2485615,left,0.6774409,0,2,1,1,0,1,1,TRUE,FALSE,low_3_mask_low,0.75,-1,3,TRUE,1,,,,,,,,,,,,,,,,,,,165,8,3.2.2021,164.9737609
74,"['low', 2, 'high']",2,white,0.259592478,135,right,down,low,high,white_high_135-white_high_135-black_high_45-black_high_135,white_low_135_down,black_low_45_down,5,1.847708,0.2467456,right,0.4407519,1,5,6,1,0,1,1,TRUE,FALSE,low_2_mask_high,0.75,-1,3,FALSE,3,,,,,,,,,,,,,,,,,,,165,8,3.2.2021,164.9737609
75,"['high', 1, 'high']",1,white,0.945353521,135,right,up,high,high,black_high_45-white_high_135-white_high_135-black_high_135,white_high_135_up,black_high_45_up,21,1.8197756,0.2485373,left,0.4523473,0,21,7,0,0,1,1,TRUE,FALSE,high_1_mask_high,0.75,-1,3,FALSE,3,,,,,,,,,,,,,,,,,,,165,8,3.2.2021,164.9737609
76,"['med', 2, 'high']",2,black,0.202985048,135,left,up,med,high,black_high_45-white_high_135-black_high_135-white_high_135,black_med_135_up,white_med_45_up,17,1.843340574,0.2485486,right,1.1983923,0,17,7,1,0,1,1,TRUE,FALSE,med_2_mask_high,0.75,-1,3,TRUE,4,,,,,,,,,,,,,,,,,,,165,8,3.2.2021,164.9737609
77,"['low', 2, 'high']",2,white,0.652127216,45,left,down,low,high,black_high_135-white_high_135-white_high_135-black_high_45,white_low_45_down,black_low_135_down,4,1.936759291,0.2485369,right,0.2229152,0,4,7,1,0,1,1,TRUE,FALSE,low_2_mask_high,0.75,-1,3,TRUE,4,,,,,,,,,,,,,,,,,,,165,8,3.2.2021,164.9737609
78,"['high', 2, 'low']",2,black,0.895931249,45,right,down,high,low,white_low_135-black_low_135-black_low_45-white_low_45,black_high_45_down,white_high_135_down,10,1.745387282,0.2485513,left,0.507556,0,10,6,0,0,1,1,TRUE,FALSE,high_2_mask_low,0.75,-1,3,FALSE,1,,,,,,,,,,,,,,,,,,,165,8,3.2.2021,164.9737609
79,"['med', 3, 'high']",3,white,0.414683993,45,left,down,med,high,black_high_135-black_high_45-white_high_135-white_high_135,white_med_45_down,black_med_135_down,4,1.446004387,0.250323,left,0.539267,1,4,4,1,0,1,1,TRUE,FALSE,med_3_mask_high,0.75,-1,3,FALSE,0,,,,,,,,,,,,,,,,,,,165,8,3.2.2021,164.9737609
80,"['med', 3, 'low']",3,white,0.086009273,45,left,down,med,low,black_low_45-white_low_135-white_low_45-black_low_135,white_med_45_down,black_med_135_down,7,1.284512899,0.2485386,right,0.4132682,0,7,1,1,0,1,1,TRUE,FALSE,med_3_mask_low,0.75,-1,3,TRUE,1,,,,,,,,,,,,,,,,,,,165,8,3.2.2021,164.9737609
81,"['high', 2, 'low']",2,white,0.066027422,135,right,down,high,low,white_low_45-white_low_135-black_low_135-black_low_45,white_high_135_down,black_high_45_down,13,1.65968973,0.248544,right,0.2879543,1,13,7,0,0,1,1,TRUE,FALSE,high_2_mask_low,0.75,-1,3,TRUE,2,,,,,,,,,,,,,,,,,,,165,8,3.2.2021,164.9737609
82,"['high', 2, 'high']",2,black,0.887603417,45,right,up,high,high,black_high_135-white_high_135-black_high_45-white_high_135,black_high_45_up,white_high_135_up,10,1.909112499,0.2485487,right,0.7396821,1,10,2,1,0,1,1,TRUE,FALSE,high_2_mask_high,0.75,-1,3,FALSE,1,,,,,,,,,,,,,,,,,,,165,8,3.2.2021,164.9737609
83,"['low', 1, 'low']",1,black,0.953736746,135,left,up,low,low,black_low_135-black_low_45-white_low_135-white_low_45,black_low_135_up,white_low_45_up,10,1.497142438,0.245013,left,0.8936059,1,10,2,1,0,1,1,TRUE,FALSE,low_1_mask_low,0.75,-1,3,FALSE,1,,,,,,,,,,,,,,,,,,,165,8,3.2.2021,164.9737609
84,"['high', 1, 'high']",1,white,0.915061708,45,left,up,high,high,black_high_135-black_high_45-white_high_135-white_high_135,white_high_45_up,black_high_135_up,24,1.328470418,0.2485403,left,0.2075785,1,24,8,0,0,1,1,TRUE,FALSE,high_1_mask_high,0.75,-1,3,TRUE,4,,,,,,,,,,,,,,,,,,,165,8,3.2.2021,164.9737609
85,"['med', 2, 'high']",2,white,0.481190121,135,right,down,med,high,black_high_135-black_high_45-white_high_135-white_high_135,white_med_135_down,black_med_45_down,20,1.035201123,0.248547,right,0.2481484,1,20,8,0,0,1,1,TRUE,FALSE,med_2_mask_high,0.75,-1,3,TRUE,5,,,,,,,,,,,,,,,,,,,165,8,3.2.2021,164.9737609
86,"['med', 2, 'high']",2,black,0.632656101,45,right,up,med,high,white_high_135-white_high_135-black_high_135-black_high_45,black_med_45_up,white_med_135_up,19,1.715580582,0.2485496,left,0.4237293,0,19,9,1,1,1,1,TRUE,FALSE,med_2_mask_high,0.75,-1,3,TRUE,6,,,,,,,,,,,,,,,,,,,165,8,3.2.2021,164.9737609
87,"['low', 2, 'high']",2,black,0.079339804,135,left,down,low,high,white_high_135-white_high_135-black_high_45-black_high_135,black_low_135_down,white_low_45_down,7,1.645401178,0.2467525,right,0.0822342,0,7,8,0,0,1,1,TRUE,FALSE,low_2_mask_high,0.75,-1,3,FALSE,4,,,,,,,,,,,,,,,,,,,165,8,3.2.2021,164.9737609
88,"['med', 3, 'high']",3,white,0.272784035,45,left,up,med,high,black_high_45-black_high_135-white_high_135-white_high_135,white_med_45_up,black_med_135_up,3,1.172277218,0.2467709,left,0.2692033,1,3,5,1,0,1,1,TRUE,FALSE,med_3_mask_high,0.75,-1,3,FALSE,0,,,,,,,,,,,,,,,,,,,165,8,3.2.2021,164.9737609
89,"['high', 3, 'low']",3,white,0.176632762,45,left,up,high,low,black_low_135-white_low_45-white_low_135-black_low_45,white_high_45_up,black_high_135_up,13,1.355106647,0.2485496,left,2.5867091,1,13,3,0,0,1,1,TRUE,FALSE,high_3_mask_low,0.75,-1,3,TRUE,3,,,,,,,,,,,,,,,,,,,165,8,3.2.2021,164.9737609
90,"['med', 1, 'high']",1,white,0.012718018,45,left,down,med,high,white_high_135-white_high_135-black_high_135-black_high_45,white_med_45_down,black_med_135_down,10,1.131147137,0.2466707,left,0.2267313,1,10,6,1,0,1,1,TRUE,FALSE,med_1_mask_high,0.75,-1,3,FALSE,1,,,,,,,,,,,,,,,,,,,165,8,3.2.2021,164.9737609
91,"['high', 1, 'high']",1,black,0.916927859,135,left,down,high,high,black_high_45-black_high_135-white_high_135-white_high_135,black_high_135_down,white_high_45_down,23,1.300424843,0.2485562,left,0.0117125,1,23,9,1,0,1,1,TRUE,FALSE,high_1_mask_high,0.75,-1,3,FALSE,4,,,,,,,,,,,,,,,,,,,165,8,3.2.2021,164.9737609
92,"['low', 3, 'low']",3,black,0.992300327,45,right,up,low,low,white_low_45-black_low_135-white_low_135-black_low_45,black_low_45_up,white_low_135_up,5,1.212429636,0.2485458,right,0.0415193,1,5,2,0,0,1,1,TRUE,FALSE,low_3_mask_low,0.75,-1,3,TRUE,2,,,,,,,,,,,,,,,,,,,165,8,3.2.2021,164.9737609
93,"['med', 2, 'high']",2,black,0.636651668,45,right,down,med,high,black_high_45-white_high_135-white_high_135-black_high_135,black_med_45_down,white_med_135_down,22,1.786157632,0.2485501,right,0.310781,1,22,10,0,1,1,1,TRUE,FALSE,med_2_mask_high,0.75,-1,3,TRUE,7,,,,,,,,,,,,,,,,,,,165,8,3.2.2021,164.9737609
94,"['high', 1, 'low']",1,white,0.18016122,45,left,up,high,low,white_low_45-black_low_135-black_low_45-white_low_135,white_high_45_up,black_high_135_up,16,1.21260219,0.2485473,right,0.2217296,0,16,4,0,0,1,1,TRUE,FALSE,high_1_mask_low,0.75,-1,3,FALSE,2,,,,,,,,,,,,,,,,,,,165,8,3.2.2021,164.9737609
95,"['high', 3, 'high']",3,black,0.979261136,45,right,up,high,high,white_high_135-white_high_135-black_high_45-black_high_135,black_high_45_up,white_high_135_up,11,1.37362776,0.2467593,right,0.2335426,1,11,5,1,0,1,1,TRUE,FALSE,high_3_mask_high,0.75,-1,3,FALSE,2,,,,,,,,,,,,,,,,,,,165,8,3.2.2021,164.9737609
96,"['low', 1, 'low']",1,black,0.038605481,135,left,up,low,low,white_low_135-black_low_45-black_low_135-white_low_45,black_low_135_up,white_low_45_up,9,1.933459088,0.2485523,right,0.2722765,0,9,3,1,0,1,1,TRUE,FALSE,low_1_mask_low,0.75,-1,3,TRUE,2,,,,,,,,,,,,,,,,,,,165,8,3.2.2021,164.9737609
97,"['low', 2, 'low']",2,white,0.653180412,45,left,up,low,low,black_low_135-white_low_135-white_low_45-black_low_45,white_low_45_up,black_low_135_up,7,1.056997304,0.2485569,right,0.6531758,0,7,4,0,0,1,1,TRUE,FALSE,low_2_mask_low,0.75,-1,3,FALSE,3,,,,,,,,,,,,,,,,,,,165,8,3.2.2021,164.9737609
98,"['high', 2, 'high']",2,white,0.995080575,45,left,down,high,high,white_high_135-black_high_45-black_high_135-white_high_135,white_high_45_down,black_high_135_down,9,1.626208637,0.2485488,left,0.1553428,1,9,3,1,0,1,1,TRUE,FALSE,high_2_mask_high,0.75,-1,3,FALSE,1,,,,,,,,,,,,,,,,,,,165,8,3.2.2021,164.9737609
99,"['med', 2, 'low']",2,black,0.193545031,135,left,up,med,low,white_low_45-white_low_135-black_low_45-black_low_135,black_med_135_up,white_med_45_up,13,1.50404909,0.2488428,left,0.1583671,1,13,3,0,0,1,1,TRUE,FALSE,med_2_mask_low,0.75,-1,3,TRUE,2,,,,,,,,,,,,,,,,,,,165,8,3.2.2021,164.9737609
100,"['high', 3, 'low']",3,black,0.130220664,45,right,down,high,low,white_low_135-black_low_135-white_low_45-black_low_45,black_high_45_down,white_high_135_down,12,1.22015442,0.2485493,left,0.73563,0,12,4,1,0,1,1,TRUE,FALSE,high_3_mask_low,0.75,-1,3,TRUE,4,,,,,,,,,,,,,,,,,,,165,8,3.2.2021,164.9737609
101,"['med', 2, 'high']",2,white,0.91111076,45,left,down,med,high,black_high_45-black_high_135-white_high_135-white_high_135,white_med_45_down,black_med_135_down,21,1.859812107,0.2488573,left,0.2168185,1,21,11,1,1,1,1,TRUE,FALSE,med_2_mask_high,0.75,-1,3,FALSE,7,,,,,,,,,,,,,,,,,,,165,8,3.2.2021,164.9737609
102,"['med', 2, 'high']",2,white,0.485810571,45,left,up,med,high,white_high_135-white_high_135-black_high_135-black_high_45,white_med_45_up,black_med_135_up,20,1.21642528,0.250307,right,0.276247,0,20,12,1,1,1,1,TRUE,FALSE,med_2_mask_high,0.75,-1,3,TRUE,8,,,,,,,,,,,,,,,,,,,165,8,3.2.2021,164.9737609
103,"['low', 3, 'low']",3,black,0.248485026,45,right,up,low,low,black_low_45-white_low_45-black_low_135-white_low_135,black_low_45_up,white_low_135_up,4,1.565547249,0.2488594,left,1.4781153,0,4,3,1,0,1,1,TRUE,FALSE,low_3_mask_low,0.75,-1,3,TRUE,3,,,,,,,,,,,,,,,,,,,165,8,3.2.2021,164.9737609
104,"['high', 1, 'low']",1,white,0.532566913,135,right,up,high,low,black_low_135-white_low_45-white_low_135-black_low_45,white_high_135_up,black_high_45_up,19,1.823494901,0.2485451,left,0.7765603,0,19,5,0,0,1,1,TRUE,FALSE,high_1_mask_low,0.75,-1,3,FALSE,2,,,,,,,,,,,,,,,,,,,165,8,3.2.2021,164.9737609
105,"['high', 2, 'low']",2,white,0.06361514,45,left,down,high,low,white_low_45-black_low_45-white_low_135-black_low_135,white_high_45_down,black_high_135_down,12,1.270424381,0.2485521,right,0.4241972,0,12,8,1,0,1,1,TRUE,FALSE,high_2_mask_low,0.75,-1,3,TRUE,3,,,,,,,,,,,,,,,,,,,165,8,3.2.2021,164.9737609
106,"['high', 3, 'high']",3,black,0.086108276,135,left,down,high,high,black_high_135-white_high_135-black_high_45-white_high_135,black_high_135_down,white_high_45_down,10,1.411468282,0.2485383,right,0.0649003,0,10,6,1,0,1,1,TRUE,FALSE,high_3_mask_high,0.75,-1,3,TRUE,3,,,,,,,,,,,,,,,,,,,165,8,3.2.2021,164.9737609
107,"['high', 2, 'low']",2,white,0.190437598,45,left,up,high,low,black_low_45-white_low_135-black_low_135-white_low_45,white_high_45_up,black_high_135_up,15,1.304237707,0.2485408,right,0.4798342,0,15,9,0,0,1,1,TRUE,FALSE,high_2_mask_low,0.75,-1,3,FALSE,3,,,,,,,,,,,,,,,,,,,165,8,3.2.2021,164.9737609
108,"['med', 3, 'high']",3,white,0.316707619,135,right,down,med,high,black_high_45-white_high_135-black_high_135-white_high_135,white_med_135_down,black_med_45_down,2,1.297722124,0.2485273,right,0.5777609,1,2,6,1,0,1,1,TRUE,FALSE,med_3_mask_high,0.75,-1,3,FALSE,0,,,,,,,,,,,,,,,,,,,165,8,3.2.2021,164.9737609
109,"['med', 3, 'low']",3,black,0.025408949,135,left,up,med,low,white_low_135-black_low_135-white_low_45-black_low_45,black_med_135_up,white_med_45_up,10,1.455151048,0.2485471,right,0.2710416,0,10,2,0,0,1,1,TRUE,FALSE,med_3_mask_low,0.75,-1,3,FALSE,1,,,,,,,,,,,,,,,,,,,165,8,3.2.2021,164.9737609
110,"['low', 2, 'low']",2,black,0.402232831,135,left,down,low,low,white_low_135-black_low_45-black_low_135-white_low_45,black_low_135_down,white_low_45_down,10,1.692925416,0.2485428,right,0.0579991,0,10,5,0,0,1,1,TRUE,FALSE,low_2_mask_low,0.75,-1,3,FALSE,3,,,,,,,,,,,,,,,,,,,165,8,3.2.2021,164.9737609
111,"['high', 1, 'high']",1,white,0.618838,135,right,up,high,high,white_high_135-white_high_135-black_high_45-black_high_135,white_high_135_up,black_high_45_up,22,1.441984917,0.2467513,left,0.2405668,0,22,10,1,0,1,1,TRUE,FALSE,high_1_mask_high,0.75,-1,3,TRUE,5,,,,,,,,,,,,,,,,,,,165,8,3.2.2021,164.9737609
112,"['med', 1, 'low']",1,black,0.041991695,135,left,up,med,low,black_low_135-black_low_45-white_low_45-white_low_135,black_med_135_up,white_med_45_up,14,1.348611783,0.2485457,left,0.3508138,1,14,2,0,0,1,1,TRUE,FALSE,med_1_mask_low,0.75,-1,3,TRUE,2,,,,,,,,,,,,,,,,,,,165,8,3.2.2021,164.9737609
113,"['low', 2, 'low']",2,white,0.804200544,135,right,down,low,low,white_low_135-black_low_45-black_low_135-white_low_45,white_low_135_down,black_low_45_down,13,1.324613309,0.2502908,right,0.1833402,1,13,6,0,0,1,1,TRUE,FALSE,low_2_mask_low,0.75,-1,3,TRUE,4,,,,,,,,,,,,,,,,,,,165,8,3.2.2021,164.9737609
114,"['med', 2, 'high']",2,white,0.390560032,135,right,up,med,high,white_high_135-black_high_45-black_high_135-white_high_135,white_med_135_up,black_med_45_up,23,1.45940825,0.2467298,right,0.2157793,1,23,13,0,1,1,1,TRUE,FALSE,med_2_mask_high,0.75,-1,3,TRUE,9,,,,,,,,,,,,,,,,,,,165,8,3.2.2021,164.9737609
115,"['med', 1, 'high']",1,white,0.179214142,135,right,up,med,high,black_high_45-white_high_135-white_high_135-black_high_135,white_med_135_up,black_med_45_up,9,1.936665943,0.2469484,right,0.2730056,1,9,7,1,0,1,1,TRUE,FALSE,med_1_mask_high,0.75,-1,3,FALSE,1,,,,,,,,,,,,,,,,,,,165,8,3.2.2021,164.9737609
116,"['high', 2, 'low']",2,white,0.345919708,45,left,up,high,low,black_low_135-black_low_45-white_low_45-white_low_135,white_high_45_up,black_high_135_up,18,1.375730812,0.2488413,left,0.5553628,1,18,10,0,0,1,1,TRUE,FALSE,high_2_mask_low,0.75,-1,3,TRUE,4,,,,,,,,,,,,,,,,,,,165,8,3.2.2021,164.9737609
117,"['low', 3, 'high']",3,white,0.241886431,135,right,up,low,high,white_high_135-black_high_45-white_high_135-black_high_135,white_low_135_up,black_low_45_up,9,1.016249032,0.2485376,left,0.2028256,0,9,2,0,0,1,1,TRUE,FALSE,low_3_mask_high,0.75,-1,3,FALSE,0,,,,,,,,,,,,,,,,,,,165,8,3.2.2021,164.9737609
118,"['low', 2, 'high']",2,black,0.815377693,45,right,up,low,high,black_high_45-white_high_135-white_high_135-black_high_135,black_low_45_up,white_low_135_up,10,1.131966611,0.2485483,left,0.3074309,0,10,9,0,0,1,1,TRUE,FALSE,low_2_mask_high,0.75,-1,3,FALSE,4,,,,,,,,,,,,,,,,,,,165,8,3.2.2021,164.9737609
119,"['med', 1, 'high']",1,white,0.709719781,135,right,up,med,high,white_high_135-black_high_135-black_high_45-white_high_135,white_med_135_up,black_med_45_up,8,1.073318293,0.2485419,left,0.3242692,0,8,8,1,0,1,1,TRUE,FALSE,med_1_mask_high,0.75,-1,3,TRUE,2,,,,,,,,,,,,,,,,,,,165,8,3.2.2021,164.9737609
120,"['low', 3, 'low']",3,black,0.493981957,45,right,down,low,low,black_low_135-white_low_135-black_low_45-white_low_45,black_low_45_down,white_low_135_down,7,1.19836828,0.248546,right,0.1884198,1,7,4,0,0,1,1,TRUE,FALSE,low_3_mask_low,0.75,-1,3,TRUE,4,,,,,,,,,,,,,,,,,,,165,8,3.2.2021,164.9737609
121,"['med', 2, 'high']",2,white,0.95384737,45,left,down,med,high,black_high_45-white_high_135-black_high_135-white_high_135,white_med_45_down,black_med_135_down,22,1.439146537,0.2467649,right,0.2113595,0,22,14,1,1,1,1,TRUE,FALSE,med_2_mask_high,0.75,-1,3,TRUE,10,,,,,,,,,,,,,,,,,,,165,8,3.2.2021,164.9737609
122,"['high', 3, 'high']",3,black,0.613239513,135,left,up,high,high,white_high_135-black_high_45-white_high_135-black_high_135,black_high_135_up,white_high_45_up,13,1.290224457,0.2488532,right,0.1527933,0,13,7,0,0,1,1,TRUE,FALSE,high_3_mask_high,0.75,-1,3,FALSE,3,,,,,,,,,,,,,,,,,,,165,8,3.2.2021,164.9737609
123,"['high', 3, 'low']",3,white,0.430042623,45,left,down,high,low,black_low_135-white_low_135-white_low_45-black_low_45,white_high_45_down,black_high_135_down,15,1.307718502,0.2467828,right,0.2326885,0,15,5,0,0,1,1,TRUE,FALSE,high_3_mask_low,0.75,-1,3,FALSE,4,,,,,,,,,,,,,,,,,,,165,8,3.2.2021,164.9737609
124,"['low', 3, 'low']",3,black,0.518846466,135,left,up,low,low,white_low_45-black_low_135-black_low_45-white_low_135,black_low_135_up,white_low_45_up,6,1.766242494,0.2485522,right,0.1267645,0,6,5,1,0,1,1,TRUE,FALSE,low_3_mask_low,0.75,-1,3,TRUE,5,,,,,,,,,,,,,,,,,,,165,8,3.2.2021,164.9737609
125,"['med', 2, 'high']",2,black,0.889734664,135,left,down,med,high,white_high_135-black_high_135-black_high_45-white_high_135,black_med_135_down,white_med_45_down,25,1.744059679,0.2488423,right,0.1501451,0,25,15,0,1,1,1,TRUE,FALSE,med_2_mask_high,0.75,-1,3,FALSE,10,,,,,,,,,,,,,,,,,,,165,8,3.2.2021,164.9737609
126,"['low', 1, 'high']",1,black,0.328849243,135,left,up,low,high,white_high_135-white_high_135-black_high_135-black_high_45,black_low_135_up,white_low_45_up,12,1.671639687,0.2467723,left,0.2008707,1,12,8,1,0,1,1,TRUE,FALSE,low_1_mask_high,0.75,-1,3,FALSE,4,,,,,,,,,,,,,,,,,,,165,8,3.2.2021,164.9737609
127,"['high', 1, 'low']",1,white,0.666540163,45,left,up,high,low,white_low_45-white_low_135-black_low_45-black_low_135,white_high_45_up,black_high_135_up,22,1.498448639,0.246779,left,0.5373137,1,22,6,0,0,1,1,TRUE,FALSE,high_1_mask_low,0.75,-1,3,TRUE,3,,,,,,,,,,,,,,,,,,,165,8,3.2.2021,164.9737609
128,"['low', 2, 'high']",2,black,0.383192511,135,left,up,low,high,white_high_135-black_high_45-white_high_135-black_high_135,black_low_135_up,white_low_45_up,13,1.18220037,0.2503087,left,0.1936832,1,13,10,0,0,1,1,TRUE,FALSE,low_2_mask_high,0.75,-1,3,TRUE,5,,,,,,,,,,,,,,,,,,,165,8,3.2.2021,164.9737609
129,"['med', 1, 'high']",1,black,0.560411455,45,right,down,med,high,white_high_135-black_high_135-white_high_135-black_high_45,black_med_45_down,white_med_135_down,11,1.026548773,0.2485731,left,0.2106425,0,11,9,0,0,1,1,TRUE,FALSE,med_1_mask_high,0.75,-1,3,FALSE,2,,,,,,,,,,,,,,,,,,,165,8,3.2.2021,164.9737609
130,"['high', 2, 'low']",2,black,0.600861308,135,left,up,high,low,black_low_135-black_low_45-white_low_135-white_low_45,black_high_135_up,white_high_45_up,17,1.760831125,0.2485396,left,0.0192565,1,17,11,1,0,1,1,TRUE,FALSE,high_2_mask_low,0.75,-1,3,FALSE,4,,,,,,,,,,,,,,,,,,,165,8,3.2.2021,164.9737609
131,"['low', 1, 'high']",1,black,0.800071872,45,right,up,low,high,black_high_135-white_high_135-black_high_45-white_high_135,black_low_45_up,white_low_135_up,11,1.719849243,0.2485445,left,0.044309,0,11,9,1,0,1,1,TRUE,FALSE,low_1_mask_high,0.75,-1,3,TRUE,5,,,,,,,,,,,,,,,,,,,165,8,3.2.2021,164.9737609
132,"['med', 2, 'low']",2,black,0.460265836,45,right,down,med,low,white_low_45-white_low_135-black_low_45-black_low_135,black_med_45_down,white_med_135_down,12,1.13097372,0.2485538,right,0.2834888,1,12,4,1,0,1,1,TRUE,FALSE,med_2_mask_low,0.75,-1,3,FALSE,2,,,,,,,,,,,,,,,,,,,165,8,3.2.2021,164.9737609
133,"['high', 2, 'low']",2,white,0.717790636,45,left,up,high,low,white_low_45-white_low_135-black_low_135-black_low_45,white_high_45_up,black_high_135_up,16,1.912232084,0.2503389,right,0.3245917,0,16,12,1,0,1,1,TRUE,FALSE,high_2_mask_low,0.75,-1,3,TRUE,5,,,,,,,,,,,,,,,,,,,165,8,3.2.2021,164.9737609
134,"['low', 1, 'low']",1,white,0.199472824,45,left,up,low,low,black_low_135-white_low_135-white_low_45-black_low_45,white_low_45_up,black_low_135_up,12,1.052918356,0.2467733,left,0.2364425,1,12,4,0,0,1,1,TRUE,FALSE,low_1_mask_low,0.75,-1,3,TRUE,3,,,,,,,,,,,,,,,,,,,165,8,3.2.2021,164.9737609
135,"['med', 1, 'low']",1,white,0.432729324,135,right,up,med,low,black_low_135-black_low_45-white_low_135-white_low_45,white_med_135_up,black_med_45_up,13,1.945095007,0.2467592,right,0.3205304,1,13,3,1,0,1,1,TRUE,FALSE,med_1_mask_low,0.75,-1,3,FALSE,2,,,,,,,,,,,,,,,,,,,165,8,3.2.2021,164.9737609
136,"['low', 2, 'high']",2,black,0.22292213,135,left,down,low,high,black_high_45-black_high_135-white_high_135-white_high_135,black_low_135_down,white_low_45_down,12,1.776650772,0.2485435,right,0.0620522,0,12,11,1,1,1,1,TRUE,FALSE,low_2_mask_high,0.75,-1,3,TRUE,6,,,,,,,,,,,,,,,,,,,165,8,3.2.2021,164.9737609
137,"['low', 2, 'low']",2,white,0.605283473,135,right,up,low,low,black_low_45-black_low_135-white_low_135-white_low_45,white_low_135_up,black_low_45_up,12,1.927465595,0.2485507,right,0.1006999,1,12,7,1,0,1,1,TRUE,FALSE,low_2_mask_low,0.75,-1,3,FALSE,4,,,,,,,,,,,,,,,,,,,165,8,3.2.2021,164.9737609
138,"['high', 1, 'high']",1,black,0.175765001,45,right,up,high,high,black_high_135-black_high_45-white_high_135-white_high_135,black_high_45_up,white_high_135_up,25,1.199313233,0.2485437,right,0.1278541,1,25,11,0,1,1,1,TRUE,FALSE,high_1_mask_high,0.75,-1,3,TRUE,6,,,,,,,,,,,,,,,,,,,165,8,3.2.2021,164.9737609
139,"['high', 2, 'low']",2,black,0.972007037,135,left,down,high,low,black_low_135-white_low_45-white_low_135-black_low_45,black_high_135_down,white_high_45_down,19,1.506392096,0.2468048,right,0.2990699,0,19,13,0,1,1,1,TRUE,FALSE,high_2_mask_low,0.75,-1,3,FALSE,5,,,,,,,,,,,,,,,,,,,165,8,3.2.2021,164.9737609
140,"['high', 1, 'low']",1,white,0.438157489,135,right,up,high,low,black_low_45-white_low_45-black_low_135-white_low_135,white_high_135_up,black_high_45_up,21,1.036624911,0.2485448,right,0.053466,1,21,7,1,0,1,1,TRUE,FALSE,high_1_mask_low,0.75,-1,3,FALSE,3,,,,,,,,,,,,,,,,,,,165,8,3.2.2021,164.9737609
141,"['low', 1, 'low']",1,white,0.721051945,45,left,down,low,low,black_low_45-black_low_135-white_low_135-white_low_45,white_low_45_down,black_low_135_down,11,1.777962772,0.2469742,right,0.5785142,0,11,5,1,0,1,1,TRUE,FALSE,low_1_mask_low,0.75,-1,3,TRUE,4,,,,,,,,,,,,,,,,,,,165,8,3.2.2021,164.9737609
142,"['med', 3, 'low']",3,black,0.316434644,45,right,up,med,low,black_low_45-white_low_135-black_low_135-white_low_45,black_med_45_up,white_med_135_up,13,1.141923157,0.2485459,left,0.6547335,0,13,3,0,0,1,1,TRUE,FALSE,med_3_mask_low,0.75,-1,3,FALSE,1,,,,,,,,,,,,,,,,,,,165,8,3.2.2021,164.9737609
143,"['med', 2, 'low']",2,white,0.516407702,45,left,down,med,low,black_low_135-black_low_45-white_low_45-white_low_135,white_med_45_down,black_med_135_down,11,1.439013455,0.2485387,left,0.6602294,1,11,5,1,0,1,1,TRUE,FALSE,med_2_mask_low,0.75,-1,3,FALSE,2,,,,,,,,,,,,,,,,,,,165,8,3.2.2021,164.9737609
144,"['low', 1, 'low']",1,white,0.093280016,45,left,down,low,low,black_low_45-black_low_135-white_low_45-white_low_135,white_low_45_down,black_low_135_down,14,1.434396093,0.2485464,left,0.3506969,1,14,6,0,0,1,1,TRUE,FALSE,low_1_mask_low,0.75,-1,3,TRUE,5,,,,,,,,,,,,,,,,,,,165,8,3.2.2021,164.9737609
145,"['low', 1, 'low']",1,white,0.814414633,135,right,down,low,low,white_low_45-black_low_45-black_low_135-white_low_135,white_low_135_down,black_low_45_down,13,1.324458737,0.2485453,left,0.3998946,0,13,7,1,1,1,1,TRUE,FALSE,low_1_mask_low,0.75,-1,3,TRUE,6,,,,,,,,,,,,,,,,,,,165,8,3.2.2021,164.9737609
146,"['high', 2, 'high']",2,black,0.512262805,45,right,down,high,high,white_high_135-white_high_135-black_high_45-black_high_135,black_high_45_down,white_high_135_down,8,1.852214942,0.248543,right,0.9112812,1,8,4,1,0,1,1,TRUE,FALSE,high_2_mask_high,0.75,-1,3,FALSE,1,,,,,,,,,,,,,,,,,,,165,8,3.2.2021,164.9737609
147,"['high', 2, 'high']",2,white,0.256371796,45,left,down,high,high,black_high_135-black_high_45-white_high_135-white_high_135,white_high_45_down,black_high_135_down,7,1.783385887,0.248565,left,0.2311443,1,7,5,1,0,1,1,TRUE,FALSE,high_2_mask_high,0.75,-1,3,FALSE,1,,,,,,,,,,,,,,,,,,,165,8,3.2.2021,164.9737609
148,"['low', 1, 'high']",1,black,0.296060989,45,right,down,low,high,black_high_135-white_high_135-white_high_135-black_high_45,black_low_45_down,white_low_135_down,14,1.895028772,0.2485468,right,0.2326926,1,14,10,0,1,1,1,TRUE,FALSE,low_1_mask_high,0.75,-1,3,TRUE,6,,,,,,,,,,,,,,,,,,,165,8,3.2.2021,164.9737609
149,"['med', 1, 'high']",1,white,0.669439668,135,right,up,med,high,black_high_45-white_high_135-white_high_135-black_high_135,white_med_135_up,black_med_45_up,14,1.887632782,0.2485408,left,0.3457985,0,14,10,0,0,1,1,TRUE,FALSE,med_1_mask_high,0.75,-1,3,FALSE,2,,,,,,,,,,,,,,,,,,,165,8,3.2.2021,164.9737609
150,"['high', 3, 'high']",3,white,0.88486354,45,left,down,high,high,black_high_45-black_high_135-white_high_135-white_high_135,white_high_45_down,black_high_135_down,16,1.852079314,0.2485472,left,0.228201,1,16,8,0,0,1,1,TRUE,FALSE,high_3_mask_high,0.75,-1,3,TRUE,4,,,,,,,,,,,,,,,,,,,165,8,3.2.2021,164.9737609
151,"['med', 3, 'low']",3,black,0.601846898,135,left,up,med,low,black_low_45-black_low_135-white_low_45-white_low_135,black_med_135_up,white_med_45_up,16,1.393867054,0.2485237,left,0.1619796,1,16,4,0,0,1,1,TRUE,FALSE,med_3_mask_low,0.75,-1,3,TRUE,2,,,,,,,,,,,,,,,,,,,165,8,3.2.2021,164.9737609
152,"['low', 3, 'low']",3,black,0.591598789,45,right,down,low,low,black_low_135-black_low_45-white_low_135-white_low_45,black_low_45_down,white_low_135_down,9,1.631115878,0.2485514,left,0.4547705,0,9,6,0,1,1,1,TRUE,FALSE,low_3_mask_low,0.75,-1,3,FALSE,5,,,,,,,,,,,,,,,,,,,165,8,3.2.2021,164.9737609
153,"['med', 1, 'high']",1,black,0.113518048,45,right,down,med,high,black_high_135-black_high_45-white_high_135-white_high_135,black_med_45_down,white_med_135_down,17,1.63175422,0.2485459,left,0.4033207,0,17,11,0,0,1,1,TRUE,FALSE,med_1_mask_high,0.75,-1,3,FALSE,2,,,,,,,,,,,,,,,,,,,165,8,3.2.2021,164.9737609
154,"['high', 1, 'low']",1,white,0.104442318,135,right,up,high,low,white_low_135-black_low_45-black_low_135-white_low_45,white_high_135_up,black_high_45_up,20,1.990758228,0.2485503,left,0.2358544,0,20,8,1,0,1,1,TRUE,FALSE,high_1_mask_low,0.75,-1,3,TRUE,4,,,,,,,,,,,,,,,,,,,165,8,3.2.2021,164.9737609
155,"['low', 3, 'high']",3,white,0.94856652,45,left,up,low,high,black_high_135-black_high_45-white_high_135-white_high_135,white_low_45_up,black_low_135_up,12,1.334337819,0.2485506,left,0.2140444,1,12,3,0,0,1,1,TRUE,FALSE,low_3_mask_high,0.75,-1,3,TRUE,1,,,,,,,,,,,,,,,,,,,165,8,3.2.2021,164.9737609
156,"['low', 1, 'low']",1,black,0.355130882,45,right,down,low,low,black_low_45-white_low_45-black_low_135-white_low_135,black_low_45_down,white_low_135_down,16,1.917844773,0.2449736,left,0.3289546,0,16,8,0,1,1,1,TRUE,FALSE,low_1_mask_low,0.75,-1,3,FALSE,6,,,,,,,,,,,,,,,,,,,165,8,3.2.2021,164.9737609
157,"['low', 1, 'high']",1,white,0.87134102,45,left,down,low,high,white_high_135-black_high_45-white_high_135-black_high_135,white_low_45_down,black_low_135_down,13,1.042902303,0.2485472,left,0.2383506,1,13,11,1,1,1,1,TRUE,FALSE,low_1_mask_high,0.75,-1,3,FALSE,6,,,,,,,,,,,,,,,,,,,165,8,3.2.2021,164.9737609
158,"['high', 1, 'low']",1,white,0.560395271,135,right,down,high,low,white_low_135-black_low_45-black_low_135-white_low_45,white_high_135_down,black_high_45_down,23,1.443160853,0.2467819,left,0.1878828,0,23,9,0,0,1,1,TRUE,FALSE,high_1_mask_low,0.75,-1,3,FALSE,4,,,,,,,,,,,,,,,,,,,165,8,3.2.2021,164.9737609
159,"['low', 2, 'low']",2,black,0.96782762,135,left,up,low,low,black_low_45-white_low_45-black_low_135-white_low_135,black_low_135_up,white_low_45_up,11,1.030279741,0.2485576,left,0.2840665,1,11,8,1,0,1,1,TRUE,FALSE,low_2_mask_low,0.75,-1,3,FALSE,4,,,,,,,,,,,,,,,,,,,165,8,3.2.2021,164.9737609
160,"['low', 2, 'low']",2,white,0.45922364,135,right,down,low,low,white_low_135-black_low_45-black_low_135-white_low_45,white_low_135_down,black_low_45_down,10,1.906075558,0.2467838,left,0.2964007,0,10,9,1,0,1,1,TRUE,FALSE,low_2_mask_low,0.75,-1,3,TRUE,5,,,,,,,,,,,,,,,,,,,165,8,3.2.2021,164.9737609
161,"['high', 1, 'low']",1,black,0.396808161,45,right,up,high,low,white_low_135-black_low_45-white_low_45-black_low_135,black_high_45_up,white_high_135_up,26,1.030314309,0.248545,right,0.2138333,1,26,10,0,0,1,1,TRUE,FALSE,high_1_mask_low,0.75,-1,3,TRUE,5,,,,,,,,,,,,,,,,,,,165,8,3.2.2021,164.9737609
162,"['med', 1, 'high']",1,black,0.309549368,135,left,up,med,high,white_high_135-white_high_135-black_high_45-black_high_135,black_med_135_up,white_med_45_up,20,1.636819245,0.2467539,left,0.3167974,1,20,12,0,0,1,1,TRUE,FALSE,med_1_mask_high,0.75,-1,3,TRUE,3,,,,,,,,,,,,,,,,,,,165,8,3.2.2021,164.9737609
163,"['med', 3, 'low']",3,black,0.435633153,135,left,up,med,low,black_low_45-white_low_45-white_low_135-black_low_135,black_med_135_up,white_med_45_up,15,1.385123241,0.2488481,left,0.1938819,1,15,5,1,0,1,1,TRUE,FALSE,med_3_mask_low,0.75,-1,3,FALSE,2,,,,,,,,,,,,,,,,,,,165,8,3.2.2021,164.9737609
164,"['med', 1, 'high']",1,white,0.260054385,135,right,down,med,high,white_high_135-black_high_45-black_high_135-white_high_135,white_med_135_down,black_med_45_down,19,1.954843399,0.2485574,left,0.2529554,0,19,13,1,0,1,1,TRUE,FALSE,med_1_mask_high,0.75,-1,3,TRUE,4,,,,,,,,,,,,,,,,,,,165,8,3.2.2021,164.9737609
165,"['med', 2, 'low']",2,white,0.466611498,45,left,down,med,low,white_low_45-black_low_45-black_low_135-white_low_135,white_med_45_down,black_med_135_down,10,1.459302518,0.2488459,right,1.6457319,0,10,6,1,0,1,1,TRUE,FALSE,med_2_mask_low,0.75,-1,3,TRUE,3,,,,,,,,,,,,,,,,,,,165,8,3.2.2021,164.9737609
166,"['low', 1, 'high']",1,black,0.98902988,45,right,down,low,high,black_high_135-white_high_135-white_high_135-black_high_45,black_low_45_down,white_low_135_down,12,1.024454613,0.24853,right,0.4403863,1,12,12,1,1,1,1,TRUE,FALSE,low_1_mask_high,0.75,-1,3,FALSE,6,,,,,,,,,,,,,,,,,,,165,8,3.2.2021,164.9737609
167,"['med', 1, 'low']",1,black,0.633922655,135,left,down,med,low,black_low_45-black_low_135-white_low_45-white_low_135,black_med_135_down,white_med_45_down,12,1.201606565,0.2485502,right,0.1338394,0,12,4,1,0,1,1,TRUE,FALSE,med_1_mask_low,0.75,-1,3,TRUE,3,,,,,,,,,,,,,,,,,,,165,8,3.2.2021,164.9737609
168,"['high', 1, 'low']",1,white,0.050062962,45,left,down,high,low,white_low_45-black_low_135-white_low_135-black_low_45,white_high_45_down,black_high_135_down,25,1.724369372,0.2467397,left,0.1441406,1,25,11,1,1,1,1,TRUE,FALSE,high_1_mask_low,0.75,-1,3,FALSE,5,,,,,,,,,,,,,,,,,,,165,8,3.2.2021,164.9737609
169,"['high', 2, 'high']",2,white,0.454328503,135,right,up,high,high,white_high_135-black_high_135-white_high_135-black_high_45,white_high_135_up,black_high_45_up,6,1.912802242,0.2485844,left,0.2391443,0,6,6,1,0,1,1,TRUE,FALSE,high_2_mask_high,0.75,-1,3,TRUE,2,,,,,,,,,,,,,,,,,,,165,8,3.2.2021,164.9737609
170,"['low', 2, 'high']",2,white,0.618120098,135,right,down,low,high,black_high_45-white_high_135-white_high_135-black_high_135,white_low_135_down,black_low_45_down,15,1.13942504,0.2485591,right,0.9498976,1,15,12,0,1,1,1,TRUE,FALSE,low_2_mask_high,0.75,-1,3,TRUE,7,,,,,,,,,,,,,,,,,,,165,8,3.2.2021,164.9737609
171,"['med', 2, 'high']",2,black,0.865931928,135,left,down,med,high,black_high_45-white_high_135-white_high_135-black_high_135,black_med_135_down,white_med_45_down,28,1.765350784,0.2488388,left,0.1843851,1,28,16,0,1,1,1,TRUE,FALSE,med_2_mask_high,0.75,-1,3,TRUE,11,,,,,,,,,,,,,,,,,,,165,8,3.2.2021,164.9737609
172,"['med', 3, 'low']",3,black,0.944692708,135,left,down,med,low,white_low_45-black_low_45-white_low_135-black_low_135,black_med_135_down,white_med_45_down,14,1.665148874,0.2485618,right,0.1027477,0,14,6,1,0,1,1,TRUE,FALSE,med_3_mask_low,0.75,-1,3,TRUE,3,,,,,,,,,,,,,,,,,,,165,8,3.2.2021,164.9737609
173,"['low', 2, 'low']",2,black,0.951247601,45,right,down,low,low,white_low_135-white_low_45-black_low_135-black_low_45,black_low_45_down,white_low_135_down,13,1.830110163,0.2485449,right,0.4795936,1,13,10,0,1,1,1,TRUE,FALSE,low_2_mask_low,0.75,-1,3,TRUE,6,,,,,,,,,,,,,,,,,,,165,8,3.2.2021,164.9737609
174,"['low', 2, 'high']",2,black,0.965469782,45,right,down,low,high,black_high_135-white_high_135-white_high_135-black_high_45,black_low_45_down,white_low_135_down,14,1.718100709,0.24854,right,0.2637247,1,14,13,1,1,1,1,TRUE,FALSE,low_2_mask_high,0.75,-1,3,FALSE,7,,,,,,,,,,,,,,,,,,,165,8,3.2.2021,164.9737609
175,"['med', 3, 'low']",3,black,0.623354216,135,left,down,med,low,black_low_45-black_low_135-white_low_45-white_low_135,black_med_135_down,white_med_45_down,17,1.597242669,0.2485464,left,0.1915131,1,17,7,0,0,1,1,TRUE,FALSE,med_3_mask_low,0.75,-1,3,TRUE,4,,,,,,,,,,,,,,,,,,,165,8,3.2.2021,164.9737609
176,"['low', 3, 'low']",3,white,0.460357538,135,right,up,low,low,white_low_45-black_low_45-black_low_135-white_low_135,white_low_135_up,black_low_45_up,12,1.944218284,0.2488354,left,0.2123357,0,12,7,0,1,1,1,TRUE,FALSE,low_3_mask_low,0.75,-1,3,FALSE,5,,,,,,,,,,,,,,,,,,,165,8,3.2.2021,164.9737609
177,"['med', 1, 'high']",1,black,0.843635468,135,left,up,med,high,white_high_135-black_high_45-white_high_135-black_high_135,black_med_135_up,white_med_45_up,22,1.528819105,0.2485498,left,0.2318045,1,22,14,0,0,1,1,TRUE,FALSE,med_1_mask_high,0.75,-1,3,TRUE,5,,,,,,,,,,,,,,,,,,,165,8,3.2.2021,164.9737609
178,"['low', 2, 'high']",2,white,0.613879082,45,left,up,low,high,black_high_45-white_high_135-black_high_135-white_high_135,white_low_45_up,black_low_135_up,13,1.193288491,0.248549,left,0.1250987,1,13,14,1,1,1,1,TRUE,FALSE,low_2_mask_high,0.75,-1,3,FALSE,7,,,,,,,,,,,,,,,,,,,165,8,3.2.2021,164.9737609
179,"['med', 3, 'low']",3,black,0.657660575,135,left,up,med,low,white_low_45-black_low_135-black_low_45-white_low_135,black_med_135_up,white_med_45_up,16,1.865341494,0.248554,left,0.178577,1,16,8,1,0,1,1,TRUE,FALSE,med_3_mask_low,0.75,-1,3,FALSE,4,,,,,,,,,,,,,,,,,,,165,8,3.2.2021,164.9737609
180,"['high', 3, 'low']",3,black,0.873444075,45,right,down,high,low,white_low_135-white_low_45-black_low_135-black_low_45,black_high_45_down,white_high_135_down,18,1.367529245,0.2485571,left,0.1051971,0,18,6,0,0,1,1,TRUE,FALSE,high_3_mask_low,0.75,-1,3,FALSE,4,,,,,,,,,,,,,,,,,,,165,8,3.2.2021,164.9737609
181,"['med', 1, 'high']",1,black,0.396408887,45,right,up,med,high,black_high_135-white_high_135-white_high_135-black_high_45,black_med_45_up,white_med_135_up,21,1.518613396,0.2485471,left,0.2067463,0,21,15,1,1,1,1,TRUE,FALSE,med_1_mask_high,0.75,-1,3,TRUE,6,,,,,,,,,,,,,,,,,,,165,8,3.2.2021,164.9737609
182,"['med', 1, 'low']",1,black,0.270687933,45,right,down,med,low,black_low_135-black_low_45-white_low_45-white_low_135,black_med_45_down,white_med_135_down,15,1.101496437,0.2485499,right,1.2145153,1,15,5,0,0,1,1,TRUE,FALSE,med_1_mask_low,0.75,-1,3,TRUE,4,,,,,,,,,,,,,,,,,,,165,8,3.2.2021,164.9737609
183,"['high', 1, 'high']",1,white,0.041053488,45,left,up,high,high,black_high_45-white_high_135-black_high_135-white_high_135,white_high_45_up,black_high_135_up,24,1.000274462,0.2485538,left,0.1974203,1,24,12,1,1,1,1,TRUE,FALSE,high_1_mask_high,0.75,-1,3,FALSE,6,,,,,,,,,,,,,,,,,,,165,8,3.2.2021,164.9737609
184,"['med', 2, 'low']",2,white,0.086699064,45,left,down,med,low,white_low_45-black_low_135-white_low_135-black_low_45,white_med_45_down,black_med_135_down,13,1.75396323,0.2488329,right,0.186018,0,13,7,0,0,1,1,TRUE,FALSE,med_2_mask_low,0.75,-1,3,FALSE,3,,,,,,,,,,,,,,,,,,,165,8,3.2.2021,164.9737609
185,"['med', 1, 'low']",1,black,0.361198119,45,right,down,med,low,black_low_45-white_low_135-black_low_135-white_low_45,black_med_45_down,white_med_135_down,14,1.677407578,0.2449476,left,0.230401,0,14,6,1,0,1,1,TRUE,FALSE,med_1_mask_low,0.75,-1,3,TRUE,5,,,,,,,,,,,,,,,,,,,165,8,3.2.2021,164.9737609
186,"['high', 2, 'high']",2,black,0.555737507,135,left,up,high,high,black_high_45-white_high_135-black_high_135-white_high_135,black_high_135_up,white_high_45_up,9,1.469601423,0.248549,left,0.2330823,1,9,7,0,0,1,1,TRUE,FALSE,high_2_mask_high,0.75,-1,3,TRUE,3,,,,,,,,,,,,,,,,,,,165,8,3.2.2021,164.9737609
187,"['med', 1, 'high']",1,white,0.453627264,135,right,down,med,high,black_high_45-white_high_135-black_high_135-white_high_135,white_med_135_down,black_med_45_down,24,1.196477252,0.246772,right,0.2023772,1,24,16,0,1,1,1,TRUE,FALSE,med_1_mask_high,0.75,-1,3,TRUE,7,,,,,,,,,,,,,,,,,,,165,8,3.2.2021,164.9737609
188,"['high', 3, 'low']",3,white,0.3703098,45,left,up,high,low,black_low_135-white_low_135-white_low_45-black_low_45,white_high_45_up,black_high_135_up,21,1.666684317,0.2485434,left,0.40403,1,21,7,0,0,1,1,TRUE,FALSE,high_3_mask_low,0.75,-1,3,TRUE,5,,,,,,,,,,,,,,,,,,,165,8,3.2.2021,164.9737609
189,"['med', 3, 'high']",3,white,0.212966369,45,left,down,med,high,white_high_135-black_high_135-black_high_45-white_high_135,white_med_45_down,black_med_135_down,1,1.065702697,0.2485471,right,0.6668769,0,1,7,1,0,1,1,TRUE,FALSE,med_3_mask_high,0.75,-1,3,TRUE,1,,,,,,,,,,,,,,,,,,,165,8,3.2.2021,164.9737609
190,"['med', 1, 'low']",1,white,0.199174298,135,right,down,med,low,white_low_135-black_low_45-black_low_135-white_low_45,white_med_135_down,black_med_45_down,17,1.514244979,0.2502994,left,0.3476537,0,17,7,0,1,1,1,TRUE,FALSE,med_1_mask_low,0.75,-1,3,FALSE,5,,,,,,,,,,,,,,,,,,,165,8,3.2.2021,164.9737609
191,"['low', 2, 'high']",2,black,0.008458634,135,left,down,low,high,white_high_135-white_high_135-black_high_135-black_high_45,black_low_135_down,white_low_45_down,12,1.770132864,0.2488532,right,0.2253931,0,12,15,1,1,1,1,TRUE,FALSE,low_2_mask_high,0.75,-1,3,TRUE,8,,,,,,,,,,,,,,,,,,,165,8,3.2.2021,164.9737609
192,"['high', 3, 'high']",3,white,0.667962566,45,left,up,high,high,black_high_45-white_high_135-black_high_135-white_high_135,white_high_45_up,black_high_135_up,15,1.510471508,0.248553,left,1.3699815,1,15,9,1,0,1,1,TRUE,FALSE,high_3_mask_high,0.75,-1,3,FALSE,4,,,,,,,,,,,,,,,,,,,165,8,3.2.2021,164.9737609
193,"['high', 2, 'high']",2,black,0.634519367,45,right,up,high,high,black_high_45-white_high_135-black_high_135-white_high_135,black_high_45_up,white_high_135_up,8,1.696088821,0.2488465,right,0.5659889,1,8,8,1,0,1,1,TRUE,FALSE,high_2_mask_high,0.75,-1,3,FALSE,3,,,,,,,,,,,,,,,,,,,165,8,3.2.2021,164.9737609
194,"['low', 3, 'high']",3,white,0.573448569,45,left,up,low,high,black_high_135-black_high_45-white_high_135-white_high_135,white_low_45_up,black_low_135_up,11,1.040170296,0.2485585,left,0.2066385,1,11,4,1,0,1,1,TRUE,FALSE,low_3_mask_high,0.75,-1,3,FALSE,1,,,,,,,,,,,,,,,,,,,165,8,3.2.2021,164.9737609
195,"['low', 3, 'high']",3,black,0.679401413,45,right,down,low,high,white_high_135-white_high_135-black_high_45-black_high_135,black_low_45_down,white_low_135_down,10,1.012663876,0.2467713,right,0.6787536,1,10,5,1,0,1,1,TRUE,FALSE,low_3_mask_high,0.75,-1,3,FALSE,1,,,,,,,,,,,,,,,,,,,165,8,3.2.2021,164.9737609
196,"['med', 2, 'low']",2,black,0.587492174,45,right,down,med,low,black_low_45-white_low_135-black_low_135-white_low_45,black_med_45_down,white_med_135_down,16,1.998291033,0.2488286,left,0.3919856,0,16,8,0,0,1,1,TRUE,FALSE,med_2_mask_low,0.75,-1,3,FALSE,3,,,,,,,,,,,,,,,,,,,165,8,3.2.2021,164.9737609
197,"['high', 3, 'low']",3,black,0.450984043,45,right,down,high,low,black_low_135-white_low_45-black_low_45-white_low_135,black_high_45_down,white_high_135_down,20,1.065476132,0.2485443,left,0.2350008,0,20,8,1,1,1,1,TRUE,FALSE,high_3_mask_low,0.75,-1,3,TRUE,6,,,,,,,,,,,,,,,,,,,165,8,3.2.2021,164.9737609
198,"['high', 1, 'low']",1,black,0.743867249,135,left,down,high,low,white_low_135-black_low_135-white_low_45-black_low_45,black_high_135_down,white_high_45_down,24,1.979662079,0.2485764,left,0.2438829,1,24,12,1,1,1,1,TRUE,FALSE,high_1_mask_low,0.75,-1,3,FALSE,5,,,,,,,,,,,,,,,,,,,165,8,3.2.2021,164.9737609
199,"['low', 3, 'low']",3,white,0.290948611,45,left,down,low,low,white_low_135-white_low_45-black_low_135-black_low_45,white_low_45_down,black_low_135_down,15,1.328967067,0.2485457,left,0.1479852,1,15,8,0,1,1,1,TRUE,FALSE,low_3_mask_low,0.75,-1,3,TRUE,6,,,,,,,,,,,,,,,,,,,165,8,3.2.2021,164.9737609
200,"['med', 3, 'low']",3,white,0.481954195,135,right,down,med,low,black_low_45-white_low_45-black_low_135-white_low_135,white_med_135_down,black_med_45_down,15,1.174995407,0.2485629,left,0.180271,0,15,9,1,0,1,1,TRUE,FALSE,med_3_mask_low,0.75,-1,3,TRUE,5,,,,,,,,,,,,,,,,,,,165,8,3.2.2021,164.9737609
201,"['low', 1, 'high']",1,black,0.092819841,45,right,up,low,high,black_high_135-white_high_135-white_high_135-black_high_45,black_low_45_up,white_low_135_up,11,1.885685611,0.2485326,left,0.2939278,0,11,13,1,1,1,1,TRUE,FALSE,low_1_mask_high,0.75,-1,3,TRUE,7,,,,,,,,,,,,,,,,,,,165,8,3.2.2021,164.9737609
202,"['high', 2, 'high']",2,black,0.818606667,135,left,up,high,high,black_high_135-white_high_135-black_high_45-white_high_135,black_high_135_up,white_high_45_up,7,1.384237944,0.2485566,left,0.1252064,1,7,9,1,0,1,1,TRUE,FALSE,high_2_mask_high,0.75,-1,3,FALSE,3,,,,,,,,,,,,,,,,,,,165,8,3.2.2021,164.9737609
203,"['low', 2, 'low']",2,black,0.841192245,45,right,up,low,low,white_low_45-black_low_45-black_low_135-white_low_135,black_low_45_up,white_low_135_up,12,1.183839573,0.2488416,left,0.0966704,0,12,11,1,1,1,1,TRUE,FALSE,low_2_mask_low,0.75,-1,3,TRUE,7,,,,,,,,,,,,,,,,,,,165,8,3.2.2021,164.9737609
204,"['high', 2, 'high']",2,white,0.060681135,45,left,up,high,high,white_high_135-black_high_45-white_high_135-black_high_135,white_high_45_up,black_high_135_up,6,1.792170064,0.2488328,left,0.2496867,1,6,10,1,0,1,1,TRUE,FALSE,high_2_mask_high,0.75,-1,3,FALSE,3,,,,,,,,,,,,,,,,,,,165,8,3.2.2021,164.9737609
205,"['med', 1, 'low']",1,white,0.018946026,135,right,up,med,low,black_low_45-black_low_135-white_low_45-white_low_135,white_med_135_up,black_med_45_up,20,1.354922491,0.2485504,right,0.2478055,1,20,8,0,1,1,1,TRUE,FALSE,med_1_mask_low,0.75,-1,3,TRUE,6,,,,,,,,,,,,,,,,,,,165,8,3.2.2021,164.9737609
206,"['high', 2, 'low']",2,white,0.458488333,135,right,up,high,low,black_low_135-white_low_45-black_low_45-white_low_135,white_high_135_up,black_high_45_up,22,1.814809159,0.2485565,right,0.1353379,1,22,14,0,1,1,1,TRUE,FALSE,high_2_mask_low,0.75,-1,3,TRUE,6,,,,,,,,,,,,,,,,,,,165,8,3.2.2021,164.9737609
207,"['high', 3, 'high']",3,white,0.442725327,135,right,down,high,high,black_high_45-white_high_135-white_high_135-black_high_135,white_high_135_down,black_high_45_down,14,1.469942336,0.2485442,right,0.3078171,1,14,10,1,0,1,1,TRUE,FALSE,high_3_mask_high,0.75,-1,3,FALSE,4,,,,,,,,,,,,,,,,,,,165,8,3.2.2021,164.9737609
208,"['low', 2, 'high']",2,black,0.699972331,45,right,down,low,high,black_high_45-white_high_135-white_high_135-black_high_135,black_low_45_down,white_low_135_down,15,1.358032254,0.2467769,left,0.2140539,0,15,16,0,1,1,1,TRUE,FALSE,low_2_mask_high,0.75,-1,3,FALSE,8,,,,,,,,,,,,,,,,,,,165,8,3.2.2021,164.9737609
209,"['low', 1, 'high']",1,white,0.995712759,135,right,down,low,high,white_high_135-white_high_135-black_high_45-black_high_135,white_low_135_down,black_low_45_down,14,1.469320676,0.2502997,right,1.1762376,1,14,14,0,1,1,1,TRUE,FALSE,low_1_mask_high,0.75,-1,3,TRUE,8,,,,,,,,,,,,,,,,,,,165,8,3.2.2021,164.9737609
210,"['med', 2, 'low']",2,black,0.864325414,135,left,up,med,low,white_low_45-black_low_135-white_low_135-black_low_45,black_med_135_up,white_med_45_up,19,1.979576241,0.2485524,right,0.8255357,0,19,9,0,0,1,1,TRUE,FALSE,med_2_mask_low,0.75,-1,3,FALSE,3,,,,,,,,,,,,,,,,,,,165,8,3.2.2021,164.9737609
211,"['med', 3, 'high']",3,black,0.396045086,135,left,down,med,high,white_high_135-white_high_135-black_high_135-black_high_45,black_med_135_down,white_med_45_down,4,1.157119996,0.2485471,right,0.2581291,0,4,8,0,0,1,1,TRUE,FALSE,med_3_mask_high,0.75,-1,3,FALSE,1,,,,,,,,,,,,,,,,,,,165,8,3.2.2021,164.9737609
212,"['low', 2, 'low']",2,white,0.87180112,45,left,down,low,low,black_low_135-white_low_135-white_low_45-black_low_45,white_low_45_down,black_low_135_down,15,1.298354134,0.2485482,left,0.0971972,1,15,12,0,1,1,1,TRUE,FALSE,low_2_mask_low,0.75,-1,3,TRUE,8,,,,,,,,,,,,,,,,,,,165,8,3.2.2021,164.9737609
213,"['med', 3, 'high']",3,black,0.63763777,135,left,down,med,high,white_high_135-black_high_135-white_high_135-black_high_45,black_med_135_down,white_med_45_down,7,1.358371463,0.2485467,left,0.2236399,1,7,9,0,0,1,1,TRUE,FALSE,med_3_mask_high,0.75,-1,3,TRUE,2,,,,,,,,,,,,,,,,,,,165,8,3.2.2021,164.9737609
214,"['med', 1, 'high']",1,black,0.033277201,45,right,up,med,high,black_high_135-white_high_135-black_high_45-white_high_135,black_med_45_up,white_med_135_up,23,1.542195442,0.2485556,right,0.4261745,1,23,17,1,1,1,1,TRUE,FALSE,med_1_mask_high,0.75,-1,3,FALSE,7,,,,,,,,,,,,,,,,,,,165,8,3.2.2021,164.9737609
215,"['low', 1, 'high']",1,white,0.388610814,45,left,up,low,high,white_high_135-black_high_45-black_high_135-white_high_135,white_low_45_up,black_low_135_up,13,1.102892758,0.2485531,right,0.3772627,0,13,15,1,1,1,1,TRUE,FALSE,low_1_mask_high,0.75,-1,3,TRUE,9,,,,,,,,,,,,,,,,,,,165,8,3.2.2021,164.9737609
216,"['low', 1, 'low']",1,white,0.838322674,135,right,down,low,low,black_low_135-white_low_45-black_low_45-white_low_135,white_low_135_down,black_low_45_down,19,1.705961221,0.2485672,right,0.3026553,1,19,9,0,1,1,1,TRUE,FALSE,low_1_mask_low,0.75,-1,3,TRUE,7,,,,,,,,,,,,,,,,,,,165,8,3.2.2021,164.9737609
217,"['med', 2, 'high']",2,black,0.096530311,45,right,up,med,high,white_high_135-white_high_135-black_high_45-black_high_135,black_med_45_up,white_med_135_up,27,1.643595148,0.2485454,left,0.1738046,0,27,17,1,1,1,1,TRUE,FALSE,med_2_mask_high,0.75,-1,3,TRUE,12,,,,,,,,,,,,,,,,,,,165,8,3.2.2021,164.9737609
218,"['high', 2, 'high']",2,white,0.028262678,135,right,down,high,high,black_high_135-white_high_135-white_high_135-black_high_45,white_high_135_down,black_high_45_down,5,1.916744502,0.2485482,left,0.2265086,0,5,11,1,0,1,1,TRUE,FALSE,high_2_mask_high,0.75,-1,3,TRUE,4,,,,,,,,,,,,,,,,,,,165,8,3.2.2021,164.9737609
219,"['low', 3, 'low']",3,white,0.623724063,135,right,up,low,low,white_low_45-black_low_45-black_low_135-white_low_135,white_low_135_up,black_low_45_up,14,1.9160826,0.2485513,right,0.0846531,1,14,9,1,1,1,1,TRUE,FALSE,low_3_mask_low,0.75,-1,3,FALSE,6,,,,,,,,,,,,,,,,,,,165,8,3.2.2021,164.9737609
220,"['high', 2, 'high']",2,black,0.068974474,135,left,up,high,high,black_high_45-black_high_135-white_high_135-white_high_135,black_high_135_up,white_high_45_up,8,1.604685743,0.2485462,left,0.2130789,1,8,12,0,0,1,1,TRUE,FALSE,high_2_mask_high,0.75,-1,3,TRUE,5,,,,,,,,,,,,,,,,,,,165,8,3.2.2021,164.9737609
221,"['low', 3, 'high']",3,black,0.845206775,45,right,down,low,high,black_high_45-white_high_135-black_high_135-white_high_135,black_low_45_down,white_low_135_down,9,1.141669929,0.2485317,right,0.2314924,1,9,6,1,0,1,1,TRUE,FALSE,low_3_mask_high,0.75,-1,3,FALSE,1,,,,,,,,,,,,,,,,,,,165,8,3.2.2021,164.9737609
222,"['low', 1, 'high']",1,black,0.202383781,135,left,down,low,high,black_high_135-white_high_135-black_high_45-white_high_135,black_low_135_down,white_low_45_down,16,1.957608348,0.2488396,right,0.2890123,0,16,16,0,1,1,1,TRUE,FALSE,low_1_mask_high,0.75,-1,3,FALSE,9,,,,,,,,,,,,,,,,,,,165,8,3.2.2021,164.9737609
223,"['high', 2, 'low']",2,white,0.302779223,135,right,up,high,low,black_low_45-white_low_45-black_low_135-white_low_135,white_high_135_up,black_high_45_up,21,1.925468279,0.2485422,right,0.1305587,1,21,15,1,1,1,1,TRUE,FALSE,high_2_mask_low,0.75,-1,3,FALSE,6,,,,,,,,,,,,,,,,,,,165,8,3.2.2021,164.9737609
224,"['high', 1, 'high']",1,white,0.690433725,135,right,down,high,high,white_high_135-white_high_135-black_high_45-black_high_135,white_high_135_down,black_high_45_down,23,1.761888995,0.2488451,left,0.2781019,0,23,13,1,1,1,1,TRUE,FALSE,high_1_mask_high,0.75,-1,3,TRUE,7,,,,,,,,,,,,,,,,,,,165,8,3.2.2021,164.9737609
225,"['low', 1, 'high']",1,black,0.049473798,135,left,up,low,high,black_high_45-white_high_135-black_high_135-white_high_135,black_low_135_up,white_low_45_up,19,1.008223213,0.248553,right,0.321293,0,19,17,0,1,1,1,TRUE,FALSE,low_1_mask_high,0.75,-1,3,FALSE,9,,,,,,,,,,,,,,,,,,,165,8,3.2.2021,164.9737609
226,"['high', 2, 'low']",2,white,0.597183995,45,left,up,high,low,white_low_135-white_low_45-black_low_45-black_low_135,white_high_45_up,black_high_135_up,20,1.61032297,0.248845,left,0.0764467,1,20,16,1,1,1,1,TRUE,FALSE,high_2_mask_low,0.75,-1,3,FALSE,6,,,,,,,,,,,,,,,,,,,165,8,3.2.2021,164.9737609
227,"['low', 1, 'high']",1,black,0.802141986,135,left,up,low,high,white_high_135-black_high_45-white_high_135-black_high_135,black_low_135_up,white_low_45_up,22,1.817782248,0.2485415,left,0.516025,1,22,18,0,1,1,1,TRUE,FALSE,low_1_mask_high,0.75,-1,3,TRUE,10,,,,,,,,,,,,,,,,,,,165,8,3.2.2021,164.9737609
228,"['high', 1, 'high']",1,black,0.955787899,45,right,down,high,high,white_high_135-black_high_45-white_high_135-black_high_135,black_high_45_down,white_high_135_down,26,1.923422259,0.2485532,right,0.2242262,1,26,14,0,1,1,1,TRUE,FALSE,high_1_mask_high,0.75,-1,3,TRUE,8,,,,,,,,,,,,,,,,,,,165,8,3.2.2021,164.9737609
229,"['med', 3, 'high']",3,white,0.150582863,45,left,up,med,high,black_high_45-black_high_135-white_high_135-white_high_135,white_med_45_up,black_med_135_up,6,1.460890485,0.2503044,right,0.2613891,0,6,10,1,0,1,1,TRUE,FALSE,med_3_mask_high,0.75,-1,3,TRUE,3,,,,,,,,,,,,,,,,,,,165,8,3.2.2021,164.9737609
230,"['high', 2, 'high']",2,black,0.954639821,135,left,down,high,high,white_high_135-black_high_45-white_high_135-black_high_135,black_high_135_down,white_high_45_down,7,1.7371131,0.2488396,right,0.2453395,0,7,13,1,1,1,1,TRUE,FALSE,high_2_mask_high,0.75,-1,3,TRUE,6,,,,,,,,,,,,,,,,,,,165,8,3.2.2021,164.9737609
231,"['low', 2, 'high']",2,black,0.856477429,135,left,up,low,high,black_high_135-white_high_135-white_high_135-black_high_45,black_low_135_up,white_low_45_up,18,1.341499473,0.2485473,left,0.0415385,1,18,17,0,1,1,1,TRUE,FALSE,low_2_mask_high,0.75,-1,3,TRUE,9,,,,,,,,,,,,,,,,,,,165,8,3.2.2021,164.9737609
232,"['high', 3, 'high']",3,black,0.484781495,45,right,up,high,high,black_high_45-white_high_135-white_high_135-black_high_135,black_high_45_up,white_high_135_up,13,1.420645338,0.2485479,left,0.280788,0,13,11,1,0,1,1,TRUE,FALSE,high_3_mask_high,0.75,-1,3,TRUE,5,,,,,,,,,,,,,,,,,,,165,8,3.2.2021,164.9737609
233,"['med', 2, 'low']",2,black,0.260319606,45,right,down,med,low,black_low_45-white_low_45-white_low_135-black_low_135,black_med_45_down,white_med_135_down,22,1.714683805,0.2485371,right,0.2402972,1,22,10,0,0,1,1,TRUE,FALSE,med_2_mask_low,0.75,-1,3,TRUE,4,,,,,,,,,,,,,,,,,,,165,8,3.2.2021,164.9737609
234,"['low', 3, 'high']",3,black,0.154833754,45,right,up,low,high,white_high_135-black_high_135-white_high_135-black_high_45,black_low_45_up,white_low_135_up,8,1.183385197,0.248548,left,0.1676667,0,8,7,1,0,1,1,TRUE,FALSE,low_3_mask_high,0.75,-1,3,TRUE,2,,,,,,,,,,,,,,,,,,,165,8,3.2.2021,164.9737609
235,"['high', 1, 'high']",1,white,0.426922068,135,right,down,high,high,black_high_135-white_high_135-black_high_45-white_high_135,white_high_135_down,black_high_45_down,25,1.847830088,0.2485411,right,0.5272497,1,25,15,1,1,1,1,TRUE,FALSE,high_1_mask_high,0.75,-1,3,FALSE,8,,,,,,,,,,,,,,,,,,,165,8,3.2.2021,164.9737609
236,"['high', 3, 'high']",3,white,0.625625907,45,left,up,high,high,white_high_135-black_high_45-black_high_135-white_high_135,white_high_45_up,black_high_135_up,16,1.533238022,0.2485459,left,0.145517,1,16,12,0,1,1,1,TRUE,FALSE,high_3_mask_high,0.75,-1,3,TRUE,6,,,,,,,,,,,,,,,,,,,165,8,3.2.2021,164.9737609
237,"['high', 1, 'high']",1,white,0.42982407,135,right,down,high,high,white_high_135-white_high_135-black_high_45-black_high_135,white_high_135_down,black_high_45_down,24,1.532618073,0.2485537,left,0.5126048,0,24,16,1,1,1,1,TRUE,FALSE,high_1_mask_high,0.75,-1,3,TRUE,9,,,,,,,,,,,,,,,,,,,165,8,3.2.2021,164.9737609
238,"['low', 3, 'low']",3,black,0.541311573,135,left,down,low,low,black_low_135-black_low_45-white_low_135-white_low_45,black_low_135_down,white_low_45_down,13,1.859521481,0.2506515,left,0.2143945,1,13,10,1,1,1,1,TRUE,FALSE,low_3_mask_low,0.75,-1,3,FALSE,6,,,,,,,,,,,,,,,,,,,165,8,3.2.2021,164.9737609
239,"['med', 3, 'high']",3,white,0.058769915,45,left,up,med,high,white_high_135-white_high_135-black_high_135-black_high_45,white_med_45_up,black_med_135_up,9,1.678608389,0.2488386,right,0.3544224,0,9,11,0,0,1,1,TRUE,FALSE,med_3_mask_high,0.75,-1,3,FALSE,3,,,,,,,,,,,,,,,,,,,165,8,3.2.2021,164.9737609
240,"['low', 2, 'low']",2,black,0.593337335,135,left,down,low,low,white_low_135-black_low_45-black_low_135-white_low_45,black_low_135_down,white_low_45_down,14,1.522243382,0.248555,right,0.0720844,0,14,13,1,1,1,1,TRUE,FALSE,low_2_mask_low,0.75,-1,3,TRUE,9,,,,,,,,,,,,,,,,,,,165,8,3.2.2021,164.9737609
241,"['high', 3, 'high']",3,white,0.872334184,45,left,up,high,high,black_high_45-white_high_135-black_high_135-white_high_135,white_high_45_up,black_high_135_up,15,1.857408833,0.248544,right,0.2967452,0,15,13,1,1,1,1,TRUE,FALSE,high_3_mask_high,0.75,-1,3,TRUE,7,,,,,,,,,,,,,,,,,,,165,8,3.2.2021,164.9737609
242,"['low', 2, 'high']",2,white,0.751908092,135,right,up,low,high,black_high_135-white_high_135-white_high_135-black_high_45,white_low_135_up,black_low_45_up,17,1.871463792,0.2488495,left,0.8044866,0,17,18,1,1,1,1,TRUE,FALSE,low_2_mask_high,0.75,-1,3,TRUE,10,,,,,,,,,,,,,,,,,,,165,8,3.2.2021,164.9737609
243,"['med', 1, 'high']",1,black,0.253834413,45,right,down,med,high,white_high_135-black_high_135-black_high_45-white_high_135,black_med_45_down,white_med_135_down,22,1.51680865,0.2503228,left,0.2361931,0,22,18,1,1,1,1,TRUE,FALSE,med_1_mask_high,0.75,-1,3,TRUE,8,,,,,,,,,,,,,,,,,,,165,8,3.2.2021,164.9737609
244,"['med', 2, 'high']",2,white,0.875168448,135,right,up,med,high,white_high_135-black_high_45-white_high_135-black_high_135,white_med_135_up,black_med_45_up,30,1.424317362,0.2485571,right,0.2177354,1,30,18,0,1,1,1,TRUE,FALSE,med_2_mask_high,0.75,-1,3,TRUE,13,,,,,,,,,,,,,,,,,,,165,8,3.2.2021,164.9737609
245,"['med', 3, 'high']",3,black,0.545433224,45,right,up,med,high,white_high_135-black_high_45-white_high_135-black_high_135,black_med_45_up,white_med_135_up,12,1.646114627,0.2485476,right,0.2330536,1,12,12,0,0,1,1,TRUE,FALSE,med_3_mask_high,0.75,-1,3,TRUE,4,,,,,,,,,,,,,,,,,,,165,8,3.2.2021,164.9737609
246,"['med', 1, 'high']",1,black,0.140604582,45,right,up,med,high,white_high_135-black_high_135-white_high_135-black_high_45,black_med_45_up,white_med_135_up,25,1.071259642,0.2499917,right,0.1871222,1,25,19,0,1,1,1,TRUE,FALSE,med_1_mask_high,0.75,-1,3,TRUE,9,,,,,,,,,,,,,,,,,,,165,8,3.2.2021,164.9737609
247,"['med', 2, 'low']",2,black,0.512563076,45,right,down,med,low,white_low_135-black_low_45-white_low_45-black_low_135,black_med_45_down,white_med_135_down,21,1.069095569,0.2485508,right,0.8616165,1,21,11,1,0,1,1,TRUE,FALSE,med_2_mask_low,0.75,-1,3,FALSE,4,,,,,,,,,,,,,,,,,,,165,8,3.2.2021,164.9737609
248,"['low', 1, 'low']",1,white,0.259325006,135,right,down,low,low,black_low_45-black_low_135-white_low_135-white_low_45,white_low_135_down,black_low_45_down,18,1.892953889,0.2485552,left,0.170668,0,18,10,1,1,1,1,TRUE,FALSE,low_1_mask_low,0.75,-1,3,TRUE,8,,,,,,,,,,,,,,,,,,,165,8,3.2.2021,164.9737609
249,"['high', 1, 'high']",1,black,0.78889508,45,right,up,high,high,white_high_135-black_high_135-white_high_135-black_high_45,black_high_45_up,white_high_135_up,27,1.866173168,0.2467663,right,0.1894413,1,27,17,0,1,1,1,TRUE,FALSE,high_1_mask_high,0.75,-1,3,TRUE,10,,,,,,,,,,,,,,,,,,,165,8,3.2.2021,164.9737609
250,"['low', 2, 'high']",2,black,0.733068795,135,left,down,low,high,white_high_135-black_high_135-white_high_135-black_high_45,black_low_135_down,white_low_45_down,20,1.604595968,0.2485401,left,0.2904961,1,20,19,0,1,1,1,TRUE,FALSE,low_2_mask_high,0.75,-1,3,TRUE,11,,,,,,,,,,,,,,,,,,,165,8,3.2.2021,164.9737609
251,"['low', 1, 'low']",1,white,0.62637832,135,right,up,low,low,black_low_45-white_low_135-black_low_135-white_low_45,white_low_135_up,black_low_45_up,21,1.700286785,0.2485451,left,0.3660556,0,21,11,0,1,1,1,TRUE,FALSE,low_1_mask_low,0.75,-1,3,FALSE,8,,,,,,,,,,,,,,,,,,,165,8,3.2.2021,164.9737609
252,"['low', 2, 'high']",2,white,0.436365932,135,right,up,low,high,black_high_45-white_high_135-black_high_135-white_high_135,white_low_135_up,black_low_45_up,19,1.306858146,0.2485146,right,0.1785489,1,19,20,1,1,1,1,TRUE,FALSE,low_2_mask_high,0.75,-1,3,FALSE,11,,,,,,,,,,,,,,,,,,,165,8,3.2.2021,164.9737609
253,"['low', 2, 'low']",2,black,0.162821246,135,left,up,low,low,black_low_45-black_low_135-white_low_45-white_low_135,black_low_135_up,white_low_45_up,17,1.285507743,0.2502993,left,0.2324082,1,17,14,0,1,1,1,TRUE,FALSE,low_2_mask_low,0.75,-1,3,TRUE,10,,,,,,,,,,,,,,,,,,,165,8,3.2.2021,164.9737609
254,"['low', 2, 'low']",2,white,0.630823186,135,right,up,low,low,white_low_45-white_low_135-black_low_45-black_low_135,white_low_135_up,black_low_45_up,16,1.651104998,0.2467739,right,0.2318098,1,16,15,1,1,1,1,TRUE,FALSE,low_2_mask_low,0.75,-1,3,FALSE,10,,,,,,,,,,,,,,,,,,,165,8,3.2.2021,164.9737609
255,"['high', 1, 'low']",1,white,0.307747017,45,left,down,high,low,white_low_45-black_low_135-black_low_45-white_low_135,white_high_45_down,black_high_135_down,23,1.263031707,0.2502948,right,1.0349531,0,23,13,1,1,1,1,TRUE,FALSE,high_1_mask_low,0.75,-1,3,TRUE,6,,,,,,,,,,,,,,,,,,,165,8,3.2.2021,164.9737609
256,"['high', 3, 'high']",3,black,0.378139478,135,left,up,high,high,black_high_135-black_high_45-white_high_135-white_high_135,black_high_135_up,white_high_45_up,18,1.17799748,0.2485494,left,0.1198559,1,18,14,0,1,1,1,TRUE,FALSE,high_3_mask_high,0.75,-1,3,TRUE,8,,,,,,,,,,,,,,,,,,,165,8,3.2.2021,164.9737609
257,"['low', 3, 'high']",3,black,0.000248991,135,left,up,low,high,white_high_135-black_high_45-black_high_135-white_high_135,black_low_135_up,white_low_45_up,11,1.791721554,0.2485424,left,0.4253148,1,11,8,0,0,1,1,TRUE,FALSE,low_3_mask_high,0.75,-1,3,TRUE,3,,,,,,,,,,,,,,,,,,,165,8,3.2.2021,164.9737609
258,"['low', 2, 'low']",2,black,0.046594788,45,right,up,low,low,white_low_45-white_low_135-black_low_135-black_low_45,black_low_45_up,white_low_135_up,15,1.549726812,0.2485521,left,0.1473314,0,15,16,1,1,1,1,TRUE,FALSE,low_2_mask_low,0.75,-1,3,TRUE,11,,,,,,,,,,,,,,,,,,,165,8,3.2.2021,164.9737609
259,"['high', 3, 'high']",3,black,0.96400396,135,left,up,high,high,black_high_135-white_high_135-white_high_135-black_high_45,black_high_135_up,white_high_45_up,17,1.610809308,0.2488477,left,0.219506,1,17,15,1,1,1,1,TRUE,FALSE,high_3_mask_high,0.75,-1,3,FALSE,8,,,,,,,,,,,,,,,,,,,165,8,3.2.2021,164.9737609
260,"['high', 3, 'low']",3,white,0.879931189,45,left,down,high,low,white_low_45-black_low_45-black_low_135-white_low_135,white_high_45_down,black_high_135_down,23,1.927694026,0.2485486,left,0.254743,1,23,9,0,1,1,1,TRUE,FALSE,high_3_mask_low,0.75,-1,3,TRUE,7,,,,,,,,,,,,,,,,,,,165,8,3.2.2021,164.9737609
261,"['med', 3, 'low']",3,black,0.096712689,45,right,down,med,low,black_low_45-white_low_135-black_low_135-white_low_45,black_med_45_down,white_med_135_down,18,1.972963329,0.2485802,left,0.2414898,0,18,10,0,1,1,1,TRUE,FALSE,med_3_mask_low,0.75,-1,3,FALSE,5,,,,,,,,,,,,,,,,,,,165,8,3.2.2021,164.9737609
262,"['med', 2, 'low']",2,black,0.480125323,135,left,down,med,low,white_low_45-black_low_45-black_low_135-white_low_135,black_med_135_down,white_med_45_down,20,1.344439313,0.2467658,left,0.1991306,1,20,12,1,0,1,1,TRUE,FALSE,med_2_mask_low,0.75,-1,3,FALSE,4,,,,,,,,,,,,,,,,,,,165,8,3.2.2021,164.9737609
263,"['high', 1, 'high']",1,white,0.358040761,135,right,up,high,high,black_high_135-white_high_135-white_high_135-black_high_45,white_high_135_up,black_high_45_up,26,1.215076112,0.2503013,right,0.1694917,1,26,18,1,1,1,1,TRUE,FALSE,high_1_mask_high,0.75,-1,3,FALSE,10,,,,,,,,,,,,,,,,,,,165,8,3.2.2021,164.9737609
264,"['low', 2, 'high']",2,black,0.377956126,135,left,down,low,high,black_high_135-black_high_45-white_high_135-white_high_135,black_low_135_down,white_low_45_down,18,1.391708899,0.2503414,left,0.1960447,1,18,21,1,1,1,1,TRUE,FALSE,low_2_mask_high,0.75,-1,3,FALSE,11,,,,,,,,,,,,,,,,,,,165,8,3.2.2021,164.9737609
265,"['med', 1, 'low']",1,white,0.534353057,135,right,down,med,low,black_low_45-white_low_45-white_low_135-black_low_135,white_med_135_down,black_med_45_down,19,1.280846254,0.2485644,right,0.1886138,1,19,9,1,1,1,1,TRUE,FALSE,med_1_mask_low,0.75,-1,3,FALSE,6,,,,,,,,,,,,,,,,,,,165,8,3.2.2021,164.9737609
266,"['high', 3, 'high']",3,white,0.387379316,45,left,up,high,high,black_high_45-black_high_135-white_high_135-white_high_135,white_high_45_up,black_high_135_up,16,1.383535143,0.2502998,right,0.9817107,0,16,16,1,1,1,1,TRUE,FALSE,high_3_mask_high,0.75,-1,3,TRUE,9,,,,,,,,,,,,,,,,,,,165,8,3.2.2021,164.9737609
267,"['high', 2, 'high']",2,black,0.119243598,135,left,down,high,high,white_high_135-black_high_45-white_high_135-black_high_135,black_high_135_down,white_high_45_down,10,1.005894139,0.2503051,right,0.2378134,0,10,14,0,1,1,1,TRUE,FALSE,high_2_mask_high,0.75,-1,3,FALSE,6,,,,,,,,,,,,,,,,,,,165,8,3.2.2021,164.9737609
268,"['low', 2, 'low']",2,white,0.532739123,45,left,up,low,low,white_low_45-black_low_135-black_low_45-white_low_135,white_low_45_up,black_low_135_up,18,1.327307317,0.2502934,right,0.9967249,0,18,17,0,1,1,1,TRUE,FALSE,low_2_mask_low,0.75,-1,3,FALSE,11,,,,,,,,,,,,,,,,,,,165,8,3.2.2021,164.9737609
269,"['high', 3, 'high']",3,white,0.305410579,45,left,up,high,high,black_high_135-white_high_135-white_high_135-black_high_45,white_high_45_up,black_high_135_up,19,1.032112991,0.2488342,right,1.3805793,0,19,17,0,1,1,1,TRUE,FALSE,high_3_mask_high,0.75,-1,3,FALSE,9,,,,,,,,,,,,,,,,,,,165,8,3.2.2021,164.9737609
270,"['low', 2, 'high']",2,white,0.611156458,135,right,down,low,high,black_high_135-white_high_135-white_high_135-black_high_45,white_low_135_down,black_low_45_down,17,1.958576645,0.2485307,right,0.2062987,1,17,22,1,1,1,1,TRUE,FALSE,low_2_mask_high,0.75,-1,3,FALSE,11,,,,,,,,,,,,,,,,,,,165,8,3.2.2021,164.9737609
271,"['med', 2, 'low']",2,black,0.434485875,45,right,up,med,low,white_low_45-white_low_135-black_low_45-black_low_135,black_med_45_up,white_med_135_up,19,1.968476747,0.2485429,left,0.2564636,0,19,13,1,0,1,1,TRUE,FALSE,med_2_mask_low,0.75,-1,3,TRUE,5,,,,,,,,,,,,,,,,,,,165,8,3.2.2021,164.9737609
272,"['low', 2, 'low']",2,black,0.300174617,135,left,down,low,low,white_low_45-black_low_45-black_low_135-white_low_135,black_low_135_down,white_low_45_down,21,1.307807389,0.2485468,left,0.2157676,1,21,18,0,1,1,1,TRUE,FALSE,low_2_mask_low,0.75,-1,3,TRUE,12,,,,,,,,,,,,,,,,,,,165,8,3.2.2021,164.9737609
273,"['med', 2, 'high']",2,black,0.566394378,45,right,up,med,high,black_high_135-black_high_45-white_high_135-white_high_135,black_med_45_up,white_med_135_up,29,1.71054417,0.2488449,right,0.1808818,1,29,19,1,1,1,1,TRUE,FALSE,med_2_mask_high,0.75,-1,3,FALSE,13,,,,,,,,,,,,,,,,,,,165,8,3.2.2021,164.9737609
274,"['high', 1, 'low']",1,black,0.774227911,135,left,down,high,low,white_low_135-white_low_45-black_low_45-black_low_135,black_high_135_down,white_high_45_down,26,1.819592038,0.2485426,right,0.5672787,0,26,14,0,1,1,1,TRUE,FALSE,high_1_mask_low,0.75,-1,3,FALSE,6,,,,,,,,,,,,,,,,,,,165,8,3.2.2021,164.9737609
275,"['high', 2, 'low']",2,black,0.010053312,45,right,down,high,low,black_low_135-white_low_45-white_low_135-black_low_45,black_high_45_down,white_high_135_down,19,1.402930999,0.2467846,left,0.4148308,0,19,17,1,1,1,1,TRUE,FALSE,high_2_mask_low,0.75,-1,3,TRUE,7,,,,,,,,,,,,,,,,,,,165,8,3.2.2021,164.9737609
276,"['high', 3, 'low']",3,white,0.050201275,45,left,down,high,low,black_low_45-black_low_135-white_low_45-white_low_135,white_high_45_down,black_high_135_down,22,1.394127661,0.2485439,left,0.1808229,1,22,10,1,1,1,1,TRUE,FALSE,high_3_mask_low,0.75,-1,3,FALSE,7,,,,,,,,,,,,,,,,,,,165,8,3.2.2021,164.9737609
277,"['low', 1, 'low']",1,black,0.769613169,45,right,up,low,low,white_low_135-white_low_45-black_low_135-black_low_45,black_low_45_up,white_low_135_up,24,1.276876628,0.250299,right,0.2171379,1,24,12,0,1,1,1,TRUE,FALSE,low_1_mask_low,0.75,-1,3,TRUE,9,,,,,,,,,,,,,,,,,,,165,8,3.2.2021,164.9737609
278,"['high', 3, 'high']",3,white,0.424453158,135,right,up,high,high,black_high_135-white_high_135-white_high_135-black_high_45,white_high_135_up,black_high_45_up,22,1.126870814,0.2470764,right,0.1889103,1,22,18,0,1,1,1,TRUE,FALSE,high_3_mask_high,0.75,-1,3,TRUE,10,,,,,,,,,,,,,,,,,,,165,8,3.2.2021,164.9737609
279,"['high', 3, 'low']",3,white,0.852589708,135,right,down,high,low,white_low_135-black_low_45-black_low_135-white_low_45,white_high_135_down,black_high_45_down,21,1.710397813,0.248845,right,0.1744744,1,21,11,1,1,1,1,TRUE,FALSE,high_3_mask_low,0.75,-1,3,FALSE,7,,,,,,,,,,,,,,,,,,,165,8,3.2.2021,164.9737609
280,"['low', 3, 'low']",3,black,0.881834397,45,right,up,low,low,black_low_135-white_low_45-black_low_45-white_low_135,black_low_45_up,white_low_135_up,12,1.043913253,0.2488421,right,0.2077842,1,12,11,1,1,1,1,TRUE,FALSE,low_3_mask_low,0.75,-1,3,FALSE,6,,,,,,,,,,,,,,,,,,,165,8,3.2.2021,164.9737609
281,"['low', 2, 'low']",2,black,0.016517755,135,left,down,low,low,white_low_45-black_low_45-black_low_135-white_low_135,black_low_135_down,white_low_45_down,20,1.93844494,0.2467751,right,0.8170101,0,20,19,1,1,1,1,TRUE,FALSE,low_2_mask_low,0.75,-1,3,TRUE,13,,,,,,,,,,,,,,,,,,,165,8,3.2.2021,164.9737609
282,"['high', 1, 'high']",1,white,0.838237085,45,left,up,high,high,black_high_135-white_high_135-white_high_135-black_high_45,white_high_45_up,black_high_135_up,25,1.797851362,0.2488491,left,0.0933377,1,25,19,1,1,1,1,TRUE,FALSE,high_1_mask_high,0.75,-1,3,FALSE,10,,,,,,,,,,,,,,,,,,,165,8,3.2.2021,164.9737609
283,"['low', 2, 'low']",2,white,0.9284915,135,right,up,low,low,black_low_45-white_low_135-white_low_45-black_low_135,white_low_135_up,black_low_45_up,23,1.772494917,0.2485421,right,0.0648614,1,23,20,0,1,1,1,TRUE,FALSE,low_2_mask_low,0.75,-1,3,TRUE,14,,,,,,,,,,,,,,,,,,,165,8,3.2.2021,164.9737609
284,"['med', 3, 'high']",3,white,0.431852163,135,right,up,med,high,black_high_45-black_high_135-white_high_135-white_high_135,white_med_135_up,black_med_45_up,11,1.428692618,0.248539,right,0.2508472,1,11,13,1,0,1,1,TRUE,FALSE,med_3_mask_high,0.75,-1,3,FALSE,4,,,,,,,,,,,,,,,,,,,165,8,3.2.2021,164.9737609
285,"['low', 3, 'high']",3,black,0.30733452,135,left,down,low,high,black_high_135-white_high_135-black_high_45-white_high_135,black_low_135_down,white_low_45_down,10,1.461499182,0.2485352,right,0.0280935,0,10,9,1,0,1,1,TRUE,FALSE,low_3_mask_high,0.75,-1,3,TRUE,4,,,,,,,,,,,,,,,,,,,165,8,3.2.2021,164.9737609
286,"['high', 1, 'low']",1,black,0.294703944,45,right,down,high,low,black_low_135-white_low_135-black_low_45-white_low_45,black_high_45_down,white_high_135_down,29,1.543081356,0.2467632,right,0.2714256,1,29,15,0,1,1,1,TRUE,FALSE,high_1_mask_low,0.75,-1,3,TRUE,7,,,,,,,,,,,,,,,,,,,165,8,3.2.2021,164.9737609
287,"['low', 1, 'high']",1,black,0.284940234,135,left,up,low,high,black_high_135-white_high_135-black_high_45-white_high_135,black_low_135_up,white_low_45_up,21,1.342689068,0.2467819,left,0.1748504,1,21,19,1,1,1,1,TRUE,FALSE,low_1_mask_high,0.75,-1,3,FALSE,10,,,,,,,,,,,,,,,,,,,165,8,3.2.2021,164.9737609
288,"['med', 1, 'high']",1,black,0.27528614,135,left,down,med,high,black_high_135-white_high_135-black_high_45-white_high_135,black_med_135_down,white_med_45_down,24,1.394565354,0.2485585,left,0.1691404,1,24,20,1,1,1,1,TRUE,FALSE,med_1_mask_high,0.75,-1,3,FALSE,9,,,,,,,,,,,,,,,,,,,165,8,3.2.2021,164.9737609
289,"['med', 1, 'high']",1,black,0.35423823,45,right,down,med,high,black_high_45-white_high_135-white_high_135-black_high_135,black_med_45_down,white_med_135_down,23,1.734544174,0.2488453,right,0.2254729,1,23,21,1,1,1,1,TRUE,FALSE,med_1_mask_high,0.75,-1,3,FALSE,9,,,,,,,,,,,,,,,,,,,165,8,3.2.2021,164.9737609
290,"['low', 2, 'high']",2,black,0.817246725,45,right,up,low,high,black_high_135-white_high_135-white_high_135-black_high_45,black_low_45_up,white_low_135_up,16,1.816827233,0.2485501,right,0.1802861,1,16,23,1,1,1,1,TRUE,FALSE,low_2_mask_high,0.75,-1,3,FALSE,11,,,,,,,,,,,,,,,,,,,165,8,3.2.2021,164.9737609
291,"['low', 3, 'low']",3,white,0.469075585,45,left,down,low,low,white_low_45-white_low_135-black_low_45-black_low_135,white_low_45_down,black_low_135_down,11,1.426954275,0.2485532,right,0.2350749,0,11,12,1,1,1,1,TRUE,FALSE,low_3_mask_low,0.75,-1,3,TRUE,7,,,,,,,,,,,,,,,,,,,165,8,3.2.2021,164.9737609
292,"['med', 2, 'high']",2,white,0.619936503,135,right,up,med,high,black_high_135-white_high_135-white_high_135-black_high_45,white_med_135_up,black_med_45_up,28,1.498496395,0.250691,right,0.1783727,1,28,20,1,1,1,1,TRUE,FALSE,med_2_mask_high,0.75,-1,3,FALSE,13,,,,,,,,,,,,,,,,,,,165,8,3.2.2021,164.9737609
293,"['high', 1, 'high']",1,black,0.832807128,135,left,up,high,high,black_high_45-white_high_135-white_high_135-black_high_135,black_high_135_up,white_high_45_up,24,1.884007457,0.2488481,left,0.1887339,1,24,20,1,1,1,1,TRUE,FALSE,high_1_mask_high,0.75,-1,3,FALSE,10,,,,,,,,,,,,,,,,,,,165,8,3.2.2021,164.9737609
294,"['high', 1, 'low']",1,black,0.533667719,135,left,up,high,low,white_low_45-black_low_45-white_low_135-black_low_135,black_high_135_up,white_high_45_up,28,1.747738494,0.2467363,left,0.2106574,1,28,16,1,1,1,1,TRUE,FALSE,high_1_mask_low,0.75,-1,3,FALSE,7,,,,,,,,,,,,,,,,,,,165,8,3.2.2021,164.9737609
295,"['low', 3, 'high']",3,white,0.946505127,135,right,up,low,high,white_high_135-black_high_45-white_high_135-black_high_135,white_low_135_up,black_low_45_up,13,1.18429351,0.2485494,right,0.1258714,1,13,10,0,0,1,1,TRUE,FALSE,low_3_mask_high,0.75,-1,3,TRUE,5,,,,,,,,,,,,,,,,,,,165,8,3.2.2021,164.9737609
296,"['med', 2, 'high']",2,black,0.063807782,135,left,up,med,high,white_high_135-black_high_45-black_high_135-white_high_135,black_med_135_up,white_med_45_up,27,1.908198622,0.2485531,left,0.216703,1,27,21,1,1,1,1,TRUE,FALSE,med_2_mask_high,0.75,-1,3,FALSE,13,,,,,,,,,,,,,,,,,,,165,8,3.2.2021,164.9737609
297,"['med', 1, 'low']",1,black,0.084728379,135,left,up,med,low,black_low_45-black_low_135-white_low_45-white_low_135,black_med_135_up,white_med_45_up,18,1.174770571,0.2485568,right,0.3725443,0,18,10,1,1,1,1,TRUE,FALSE,med_1_mask_low,0.75,-1,3,TRUE,7,,,,,,,,,,,,,,,,,,,165,8,3.2.2021,164.9737609
298,"['med', 3, 'low']",3,black,0.603388596,45,right,down,med,low,white_low_45-black_low_45-black_low_135-white_low_135,black_med_45_down,white_med_135_down,21,1.711616467,0.2485529,left,0.097544,0,21,11,0,1,1,1,TRUE,FALSE,med_3_mask_low,0.75,-1,3,FALSE,5,,,,,,,,,,,,,,,,,,,165,8,3.2.2021,164.9737609
299,"['med', 3, 'high']",3,black,0.977580429,135,left,up,med,high,white_high_135-white_high_135-black_high_45-black_high_135,black_med_135_up,white_med_45_up,10,1.721128388,0.2485349,left,0.1719751,1,10,14,1,0,1,1,TRUE,FALSE,med_3_mask_high,0.75,-1,3,FALSE,4,,,,,,,,,,,,,,,,,,,165,8,3.2.2021,164.9737609
300,"['med', 1, 'high']",1,black,0.108054052,45,right,up,med,high,white_high_135-white_high_135-black_high_135-black_high_45,black_med_45_up,white_med_135_up,22,1.969196125,0.2485503,left,0.3188273,0,22,22,1,1,1,1,TRUE,FALSE,med_1_mask_high,0.75,-1,3,TRUE,10,,,,,,,,,,,,,,,,,,,165,8,3.2.2021,164.9737609
301,"['high', 2, 'low']",2,white,0.208652905,135,right,down,high,low,black_low_45-black_low_135-white_low_45-white_low_135,white_high_135_down,black_high_45_down,22,1.744900553,0.2485293,left,0.2212954,0,22,18,0,1,1,1,TRUE,FALSE,high_2_mask_low,0.75,-1,3,FALSE,7,,,,,,,,,,,,,,,,,,,165,8,3.2.2021,164.9737609
302,"['low', 3, 'high']",3,black,0.189399178,45,right,down,low,high,white_high_135-black_high_45-white_high_135-black_high_135,black_low_45_down,white_low_135_down,12,1.900569369,0.2488785,right,0.0933027,1,12,11,1,1,1,1,TRUE,FALSE,low_3_mask_high,0.75,-1,3,FALSE,5,,,,,,,,,,,,,,,,,,,165,8,3.2.2021,164.9737609
303,"['med', 1, 'low']",1,white,0.363074703,135,right,up,med,low,black_low_45-white_low_135-black_low_135-white_low_45,white_med_135_up,black_med_45_up,21,1.969720519,0.2485438,left,0.6710678,0,21,11,0,1,1,1,TRUE,FALSE,med_1_mask_low,0.75,-1,3,FALSE,7,,,,,,,,,,,,,,,,,,,165,8,3.2.2021,164.9737609
304,"['low', 1, 'low']",1,white,0.814160741,135,right,down,low,low,white_low_45-black_low_45-white_low_135-black_low_135,white_low_135_down,black_low_45_down,23,1.034189559,0.2502694,left,0.6935592,0,23,13,1,1,1,1,TRUE,FALSE,low_1_mask_low,0.75,-1,3,TRUE,10,,,,,,,,,,,,,,,,,,,165,8,3.2.2021,164.9737609
305,"['high', 3, 'high']",3,black,0.668017866,45,right,down,high,high,black_high_45-black_high_135-white_high_135-white_high_135,black_high_45_down,white_high_135_down,21,1.038065573,0.2488451,right,0.0250846,1,21,19,1,1,1,1,TRUE,FALSE,high_3_mask_high,0.75,-1,3,FALSE,10,,,,,,,,,,,,,,,,,,,165,8,3.2.2021,164.9737609
306,"['med', 2, 'low']",2,white,0.138270051,135,right,up,med,low,black_low_135-white_low_45-black_low_45-white_low_135,white_med_135_up,black_med_45_up,22,1.072333078,0.2502947,right,0.140645,1,22,14,0,1,1,1,TRUE,FALSE,med_2_mask_low,0.75,-1,3,TRUE,6,,,,,,,,,,,,,,,,,,,165,8,3.2.2021,164.9737609
307,"['high', 2, 'high']",2,white,0.697696169,45,left,up,high,high,white_high_135-black_high_45-white_high_135-black_high_135,white_high_45_up,black_high_135_up,13,1.793583366,0.2468091,right,0.0773517,0,13,15,0,1,1,1,TRUE,FALSE,high_2_mask_high,0.75,-1,3,FALSE,6,,,,,,,,,,,,,,,,,,,165,8,3.2.2021,164.9737609
308,"['med', 1, 'high']",1,white,0.095600398,45,left,up,med,high,white_high_135-black_high_135-black_high_45-white_high_135,white_med_45_up,black_med_135_up,25,1.871826513,0.2485455,left,0.175671,1,25,23,0,1,1,1,TRUE,FALSE,med_1_mask_high,0.75,-1,3,TRUE,11,,,,,,,,,,,,,,,,,,,165,8,3.2.2021,164.9737609
309,"['med', 3, 'low']",3,black,0.246583954,45,right,up,med,low,black_low_135-black_low_45-white_low_45-white_low_135,black_med_45_up,white_med_135_up,24,1.472939812,0.2485362,right,0.2054542,1,24,12,0,1,1,1,TRUE,FALSE,med_3_mask_low,0.75,-1,3,TRUE,6,,,,,,,,,,,,,,,,,,,165,8,3.2.2021,164.9737609
310,"['low', 2, 'high']",2,white,0.693280965,135,right,down,low,high,white_high_135-white_high_135-black_high_135-black_high_45,white_low_135_down,black_low_45_down,15,1.691897689,0.2485332,left,1.5168971,0,15,24,1,1,1,1,TRUE,FALSE,low_2_mask_high,0.75,-1,3,TRUE,12,,,,,,,,,,,,,,,,,,,165,8,3.2.2021,164.9737609
311,"['low', 3, 'high']",3,black,0.279674604,135,left,down,low,high,white_high_135-white_high_135-black_high_135-black_high_45,black_low_135_down,white_low_45_down,11,1.728200425,0.2485465,right,0.1502128,0,11,12,1,1,1,1,TRUE,FALSE,low_3_mask_high,0.75,-1,3,TRUE,6,,,,,,,,,,,,,,,,,,,165,8,3.2.2021,164.9737609
312,"['high', 1, 'high']",1,white,0.704056157,135,right,down,high,high,white_high_135-black_high_45-black_high_135-white_high_135,white_high_135_down,black_high_45_down,23,1.253988536,0.2485458,left,1.0534512,0,23,21,1,1,1,1,TRUE,FALSE,high_1_mask_high,0.75,-1,3,TRUE,11,,,,,,,,,,,,,,,,,,,165,8,3.2.2021,164.9737609
313,"['high', 1, 'low']",1,black,0.850408044,45,right,up,high,low,white_low_45-white_low_135-black_low_45-black_low_135,black_high_45_up,white_high_135_up,27,1.795136951,0.2485554,right,0.0973839,1,27,17,1,1,1,1,TRUE,FALSE,high_1_mask_low,0.75,-1,3,FALSE,7,,,,,,,,,,,,,,,,,,,165,8,3.2.2021,164.9737609
314,"['med', 1, 'low']",1,black,0.745106684,45,right,up,med,low,white_low_135-black_low_45-black_low_135-white_low_45,black_med_45_up,white_med_135_up,24,1.144828627,0.2485504,right,0.1221138,1,24,12,0,1,1,1,TRUE,FALSE,med_1_mask_low,0.75,-1,3,TRUE,8,,,,,,,,,,,,,,,,,,,165,8,3.2.2021,164.9737609
315,"['low', 3, 'low']",3,white,0.309506613,135,right,down,low,low,white_low_45-white_low_135-black_low_135-black_low_45,white_low_135_down,black_low_45_down,14,1.910167419,0.250654,right,1.1323741,1,14,13,0,1,1,1,TRUE,FALSE,low_3_mask_low,0.75,-1,3,TRUE,8,,,,,,,,,,,,,,,,,,,165,8,3.2.2021,164.9737609
316,"['low', 3, 'high']",3,black,0.496591382,45,right,up,low,high,black_high_135-white_high_135-white_high_135-black_high_45,black_low_45_up,white_low_135_up,14,1.830354479,0.2485419,left,0.107801,0,14,13,0,1,1,1,TRUE,FALSE,low_3_mask_high,0.75,-1,3,FALSE,6,,,,,,,,,,,,,,,,,,,165,8,3.2.2021,164.9737609
317,"['med', 2, 'low']",2,white,0.581648839,45,left,down,med,low,white_low_45-black_low_45-white_low_135-black_low_135,white_med_45_down,black_med_135_down,21,1.012998345,0.2485514,left,0.2130065,1,21,15,1,1,1,1,TRUE,FALSE,med_2_mask_low,0.75,-1,3,FALSE,6,,,,,,,,,,,,,,,,,,,165,8,3.2.2021,164.9737609
318,"['high', 3, 'high']",3,black,0.42216232,135,left,down,high,high,white_high_135-white_high_135-black_high_45-black_high_135,black_high_135_down,white_high_45_down,20,1.38277052,0.2485515,left,0.1868452,1,20,20,1,1,1,1,TRUE,FALSE,high_3_mask_high,0.75,-1,3,FALSE,10,,,,,,,,,,,,,,,,,,,165,8,3.2.2021,164.9737609
319,"['med', 3, 'low']",3,white,0.767867576,135,right,up,med,low,white_low_135-black_low_135-white_low_45-black_low_45,white_med_135_up,black_med_45_up,23,1.396518997,0.2485529,right,0.1136921,1,23,13,1,1,1,1,TRUE,FALSE,med_3_mask_low,0.75,-1,3,FALSE,6,,,,,,,,,,,,,,,,,,,165,8,3.2.2021,164.9737609
320,"['low', 2, 'high']",2,black,0.493357507,45,right,down,low,high,white_high_135-black_high_135-black_high_45-white_high_135,black_low_45_down,white_low_135_down,18,1.644267448,0.2485563,right,0.2510329,1,18,25,0,1,1,1,TRUE,FALSE,low_2_mask_high,0.75,-1,3,TRUE,13,,,,,,,,,,,,,,,,,,,165,8,3.2.2021,164.9737609
321,"['high', 1, 'high']",1,white,0.810500179,135,right,up,high,high,white_high_135-black_high_135-white_high_135-black_high_45,white_high_135_up,black_high_45_up,26,1.457754454,0.248545,right,0.2717129,1,26,22,0,1,1,1,TRUE,FALSE,high_1_mask_high,0.75,-1,3,TRUE,12,,,,,,,,,,,,,,,,,,,165,8,3.2.2021,164.9737609
322,"['med', 3, 'high']",3,white,0.7295964,45,left,up,med,high,black_high_135-white_high_135-black_high_45-white_high_135,white_med_45_up,black_med_135_up,9,1.929300369,0.2485458,left,0.3535188,1,9,15,1,0,1,1,TRUE,FALSE,med_3_mask_high,0.75,-1,3,FALSE,4,,,,,,,,,,,,,,,,,,,165,8,3.2.2021,164.9737609
323,"['low', 1, 'low']",1,white,0.759580684,45,left,down,low,low,black_low_135-white_low_135-white_low_45-black_low_45,white_low_45_down,black_low_135_down,26,1.190273366,0.248557,left,0.4259506,1,26,14,0,1,1,1,TRUE,FALSE,low_1_mask_low,0.75,-1,3,TRUE,11,,,,,,,,,,,,,,,,,,,165,8,3.2.2021,164.9737609
