trial_number,trial_type,cycle_number,first_color,phase,first_orientation,correct_response,visual_field,spatial_frequency,mask_type,mask_images,first_stim,second_stim,stimulus_frame_duration,fixation_duration,mask_duration,answer,rt,accuracy,staircase_dv,staircase_trial_num,staircase_previous_correct,staircase_phase,staircase_step_size,staircase_powers_law,staircase_siam,staircase_over,staircase_name,staircase_conv_p,staircase_step_hit,staircase_step_miss,staircase_reversal,staircase_reversal_num,threshold_low1_mask_low,threshold_low2_mask_low,threshold_low3_mask_low,threshold_high1_mask_low,threshold_high2_mask_low,threshold_high3_mask_low,threshold_low1_mask_high,threshold_low2_mask_high,threshold_low3_mask_high,threshold_high1_mask_high,threshold_high2_mask_high,threshold_high3_mask_high,threshold_med1_mask_low,threshold_med2_mask_low,threshold_med3_mask_low,threshold_med1_mask_high,threshold_med2_mask_high,threshold_med3_mask_high,frame_rate,participant,psychopyVersion,frame_rate_detected
0,"['med', 3, 'low']",3,black,0.694240015,45,right,up,med,low,black_low_45-black_low_135-white_low_135-white_low_45,black_med_45_up,white_med_135_up,8,1.492884426,0.2466974,right,0.474774,1,8,0,None,0,1,1,TRUE,FALSE,med_3_mask_low,0.75,-1,3,FALSE,0,,,,,,,,,,,,,,,,,,,165,4,3.2.2021,166.000176
1,"['high', 3, 'high']",3,black,0.99039382,45,right,down,high,high,black_high_135-white_high_135-black_high_45-white_high_135,black_high_45_down,white_high_135_down,8,1.62910649,0.2485409,left,2.0031422,0,8,0,None,0,1,1,TRUE,FALSE,high_3_mask_high,0.75,-1,3,FALSE,0,,,,,,,,,,,,,,,,,,,165,4,3.2.2021,166.000176
2,"['high', 3, 'low']",3,white,0.693824889,135,right,up,high,low,black_low_135-white_low_135-white_low_45-black_low_45,white_high_135_up,black_high_45_up,8,1.161735076,0.2485665,right,1.3148273,1,8,0,None,0,1,1,TRUE,FALSE,high_3_mask_low,0.75,-1,3,FALSE,0,,,,,,,,,,,,,,,,,,,165,4,3.2.2021,166.000176
3,"['med', 3, 'high']",3,white,0.748427675,135,right,down,med,high,black_high_45-black_high_135-white_high_135-white_high_135,white_med_135_down,black_med_45_down,8,1.712161171,0.248572,right,0.4783078,1,8,0,None,0,1,1,TRUE,FALSE,med_3_mask_high,0.75,-1,3,FALSE,0,,,,,,,,,,,,,,,,,,,165,4,3.2.2021,166.000176
4,"['med', 3, 'high']",3,white,0.260107513,135,right,up,med,high,black_high_45-black_high_135-white_high_135-white_high_135,white_med_135_up,black_med_45_up,7,1.772036758,0.2485483,right,0.2948915,1,7,1,1,0,1,1,TRUE,FALSE,med_3_mask_high,0.75,-1,3,FALSE,0,,,,,,,,,,,,,,,,,,,165,4,3.2.2021,166.000176
5,"['low', 1, 'low']",1,white,0.573277859,135,right,up,low,low,black_low_135-black_low_45-white_low_135-white_low_45,white_low_135_up,black_low_45_up,8,1.290787024,0.250291,right,1.6335226,1,8,0,None,0,1,1,TRUE,FALSE,low_1_mask_low,0.75,-1,3,FALSE,0,,,,,,,,,,,,,,,,,,,165,4,3.2.2021,166.000176
6,"['med', 1, 'high']",1,white,0.956403681,45,left,up,med,high,black_high_45-white_high_135-white_high_135-black_high_135,white_med_45_up,black_med_135_up,12,1.394525221,0.2485436,left,0.8095895,1,12,0,None,0,1,1,TRUE,FALSE,med_1_mask_high,0.75,-1,3,FALSE,0,,,,,,,,,,,,,,,,,,,165,4,3.2.2021,166.000176
7,"['med', 2, 'high']",2,white,0.111401696,45,left,up,med,high,black_high_135-white_high_135-white_high_135-black_high_45,white_med_45_up,black_med_135_up,8,1.951265143,0.2466871,left,1.120076,1,8,0,None,0,1,1,TRUE,FALSE,med_2_mask_high,0.75,-1,3,FALSE,0,,,,,,,,,,,,,,,,,,,165,4,3.2.2021,166.000176
8,"['med', 2, 'high']",2,white,0.265369219,45,left,up,med,high,white_high_135-white_high_135-black_high_45-black_high_135,white_med_45_up,black_med_135_up,7,1.012588046,0.2485411,left,1.0747827,1,7,1,1,0,1,1,TRUE,FALSE,med_2_mask_high,0.75,-1,3,FALSE,0,,,,,,,,,,,,,,,,,,,165,4,3.2.2021,166.000176
9,"['med', 3, 'low']",3,white,0.826115705,45,left,up,med,low,white_low_135-black_low_45-white_low_45-black_low_135,white_med_45_up,black_med_135_up,7,1.431908792,0.2503106,left,4.1441596,1,7,1,1,0,1,1,TRUE,FALSE,med_3_mask_low,0.75,-1,3,FALSE,0,,,,,,,,,,,,,,,,,,,165,4,3.2.2021,166.000176
10,"['med', 3, 'low']",3,black,0.666339898,45,right,up,med,low,white_low_45-black_low_135-white_low_135-black_low_45,black_med_45_up,white_med_135_up,6,1.142739136,0.2485526,right,0.2726098,1,6,2,1,0,1,1,TRUE,FALSE,med_3_mask_low,0.75,-1,3,FALSE,0,,,,,,,,,,,,,,,,,,,165,4,3.2.2021,166.000176
11,"['med', 1, 'low']",1,black,0.666692142,135,left,up,med,low,white_low_45-white_low_135-black_low_45-black_low_135,black_med_135_up,white_med_45_up,12,1.067772873,0.2485444,right,0.820152,0,12,0,None,0,1,1,TRUE,FALSE,med_1_mask_low,0.75,-1,3,FALSE,0,,,,,,,,,,,,,,,,,,,165,4,3.2.2021,166.000176
12,"['med', 3, 'high']",3,black,0.572831114,135,left,down,med,high,black_high_135-black_high_45-white_high_135-white_high_135,black_med_135_down,white_med_45_down,6,1.745362522,0.2485503,left,1.2145367,1,6,2,1,0,1,1,TRUE,FALSE,med_3_mask_high,0.75,-1,3,FALSE,0,,,,,,,,,,,,,,,,,,,165,4,3.2.2021,166.000176
13,"['med', 3, 'high']",3,white,0.093331286,135,right,up,med,high,white_high_135-black_high_45-black_high_135-white_high_135,white_med_135_up,black_med_45_up,5,1.028192273,0.2485327,right,1.0973173,1,5,3,1,0,1,1,TRUE,FALSE,med_3_mask_high,0.75,-1,3,FALSE,0,,,,,,,,,,,,,,,,,,,165,4,3.2.2021,166.000176
14,"['med', 2, 'high']",2,white,0.929891758,45,left,down,med,high,black_high_45-white_high_135-black_high_135-white_high_135,white_med_45_down,black_med_135_down,6,1.841242213,0.2467238,left,1.2141982,1,6,2,1,0,1,1,TRUE,FALSE,med_2_mask_high,0.75,-1,3,FALSE,0,,,,,,,,,,,,,,,,,,,165,4,3.2.2021,166.000176
15,"['low', 1, 'high']",1,white,0.923648375,45,left,up,low,high,white_high_135-black_high_135-white_high_135-black_high_45,white_low_45_up,black_low_135_up,8,1.285957382,0.2485404,left,0.6820863,1,8,0,None,0,1,1,TRUE,FALSE,low_1_mask_high,0.75,-1,3,FALSE,0,,,,,,,,,,,,,,,,,,,165,4,3.2.2021,166.000176
16,"['low', 1, 'low']",1,white,0.643906454,135,right,down,low,low,black_low_45-white_low_45-black_low_135-white_low_135,white_low_135_down,black_low_45_down,7,1.588466744,0.2467489,right,0.7825052,1,7,1,1,0,1,1,TRUE,FALSE,low_1_mask_low,0.75,-1,3,FALSE,0,,,,,,,,,,,,,,,,,,,165,4,3.2.2021,166.000176
17,"['med', 3, 'high']",3,black,0.01603118,135,left,up,med,high,black_high_45-black_high_135-white_high_135-white_high_135,black_med_135_up,white_med_45_up,4,1.132970362,0.2485127,right,2.6169662,0,4,4,1,0,1,1,TRUE,FALSE,med_3_mask_high,0.75,-1,3,TRUE,1,,,,,,,,,,,,,,,,,,,165,4,3.2.2021,166.000176
18,"['med', 1, 'low']",1,black,0.98735359,45,right,down,med,low,black_low_135-black_low_45-white_low_45-white_low_135,black_med_45_down,white_med_135_down,15,1.420578022,0.2450531,left,1.6390073,0,15,1,0,0,1,1,TRUE,FALSE,med_1_mask_low,0.75,-1,3,FALSE,0,,,,,,,,,,,,,,,,,,,165,4,3.2.2021,166.000176
19,"['med', 2, 'high']",2,white,0.897641487,135,right,up,med,high,black_high_45-black_high_135-white_high_135-white_high_135,white_med_135_up,black_med_45_up,5,1.03248997,0.2485309,left,0.9986534,0,5,3,1,0,1,1,TRUE,FALSE,med_2_mask_high,0.75,-1,3,TRUE,1,,,,,,,,,,,,,,,,,,,165,4,3.2.2021,166.000176
20,"['med', 3, 'high']",3,white,0.54182164,45,left,up,med,high,black_high_45-white_high_135-black_high_135-white_high_135,white_med_45_up,black_med_135_up,7,1.449502214,0.2485271,left,0.6484017,1,7,5,0,0,1,1,TRUE,FALSE,med_3_mask_high,0.75,-1,3,TRUE,2,,,,,,,,,,,,,,,,,,,165,4,3.2.2021,166.000176
21,"['high', 3, 'high']",3,black,0.68696789,135,left,down,high,high,black_high_45-black_high_135-white_high_135-white_high_135,black_high_135_down,white_high_45_down,11,1.550292859,0.2482621,left,2.3126622,1,11,1,0,0,1,1,TRUE,FALSE,high_3_mask_high,0.75,-1,3,TRUE,1,,,,,,,,,,,,,,,,,,,165,4,3.2.2021,166.000176
22,"['high', 1, 'high']",1,black,0.07396417,45,right,down,high,high,black_high_45-black_high_135-white_high_135-white_high_135,black_high_45_down,white_high_135_down,12,1.70963853,0.2467668,left,1.5202166,0,12,0,None,0,1,1,TRUE,FALSE,high_1_mask_high,0.75,-1,3,FALSE,0,,,,,,,,,,,,,,,,,,,165,4,3.2.2021,166.000176
23,"['low', 2, 'high']",2,black,0.271088994,135,left,down,low,high,white_high_135-white_high_135-black_high_45-black_high_135,black_low_135_down,white_low_45_down,3,1.177881722,0.2453015,left,0.7561633,1,3,0,None,0,1,1,TRUE,FALSE,low_2_mask_high,0.75,-1,3,FALSE,0,,,,,,,,,,,,,,,,,,,165,4,3.2.2021,166.000176
24,"['med', 3, 'high']",3,white,0.055150755,45,left,down,med,high,white_high_135-white_high_135-black_high_45-black_high_135,white_med_45_down,black_med_135_down,6,1.922584801,0.2485529,left,3.1342136,1,6,6,1,0,1,1,TRUE,FALSE,med_3_mask_high,0.75,-1,3,FALSE,2,,,,,,,,,,,,,,,,,,,165,4,3.2.2021,166.000176
25,"['med', 1, 'high']",1,white,0.430802295,135,right,down,med,high,white_high_135-black_high_135-white_high_135-black_high_45,white_med_135_down,black_med_45_down,11,1.79945531,0.246716,left,2.7128156,0,11,1,1,0,1,1,TRUE,FALSE,med_1_mask_high,0.75,-1,3,TRUE,1,,,,,,,,,,,,,,,,,,,165,4,3.2.2021,166.000176
26,"['low', 2, 'high']",2,black,0.517631293,135,left,down,low,high,black_high_135-black_high_45-white_high_135-white_high_135,black_low_135_down,white_low_45_down,2,1.478359174,0.2485188,left,0.2689711,1,2,1,1,0,1,1,TRUE,FALSE,low_2_mask_high,0.75,-1,3,FALSE,0,,,,,,,,,,,,,,,,,,,165,4,3.2.2021,166.000176
27,"['low', 2, 'low']",2,white,0.265133952,135,right,down,low,low,black_low_135-black_low_45-white_low_135-white_low_45,white_low_135_down,black_low_45_down,3,1.76415525,0.2485526,left,0.9750929,0,3,0,None,0,1,1,TRUE,FALSE,low_2_mask_low,0.75,-1,3,FALSE,0,,,,,,,,,,,,,,,,,,,165,4,3.2.2021,166.000176
28,"['low', 1, 'low']",1,white,0.290421559,45,left,up,low,low,black_low_135-white_low_135-white_low_45-black_low_45,white_low_45_up,black_low_135_up,6,1.623343314,0.2503342,left,0.3743455,1,6,2,1,0,1,1,TRUE,FALSE,low_1_mask_low,0.75,-1,3,FALSE,0,,,,,,,,,,,,,,,,,,,165,4,3.2.2021,166.000176
29,"['med', 3, 'low']",3,white,0.08538973,135,right,down,med,low,black_low_135-white_low_45-white_low_135-black_low_45,white_med_135_down,black_med_45_down,5,1.341786484,0.2485456,left,1.0122571,0,5,3,1,0,1,1,TRUE,FALSE,med_3_mask_low,0.75,-1,3,TRUE,1,,,,,,,,,,,,,,,,,,,165,4,3.2.2021,166.000176
30,"['high', 1, 'high']",1,white,0.762524657,45,left,up,high,high,black_high_45-black_high_135-white_high_135-white_high_135,white_high_45_up,black_high_135_up,15,1.169039398,0.2488291,left,0.9232652,1,15,1,0,0,1,1,TRUE,FALSE,high_1_mask_high,0.75,-1,3,TRUE,1,,,,,,,,,,,,,,,,,,,165,4,3.2.2021,166.000176
31,"['med', 3, 'high']",3,white,0.370883041,45,left,down,med,high,black_high_45-black_high_135-white_high_135-white_high_135,white_med_45_down,black_med_135_down,5,1.428474083,0.2485451,left,0.5640616,1,5,7,1,0,1,1,TRUE,FALSE,med_3_mask_high,0.75,-1,3,FALSE,2,,,,,,,,,,,,,,,,,,,165,4,3.2.2021,166.000176
32,"['high', 2, 'low']",2,black,0.818309411,135,left,down,high,low,white_low_45-white_low_135-black_low_45-black_low_135,black_high_135_down,white_high_45_down,8,1.509576299,0.2488333,right,0.5625734,0,8,0,None,0,1,1,TRUE,FALSE,high_2_mask_low,0.75,-1,3,FALSE,0,,,,,,,,,,,,,,,,,,,165,4,3.2.2021,166.000176
33,"['high', 3, 'low']",3,white,0.532863826,45,left,down,high,low,white_low_45-black_low_135-white_low_135-black_low_45,white_high_45_down,black_high_135_down,7,1.321602261,0.2466134,left,1.8317093,1,7,1,1,0,1,1,TRUE,FALSE,high_3_mask_low,0.75,-1,3,FALSE,0,,,,,,,,,,,,,,,,,,,165,4,3.2.2021,166.000176
34,"['high', 2, 'low']",2,white,0.582745592,45,left,down,high,low,black_low_135-white_low_45-white_low_135-black_low_45,white_high_45_down,black_high_135_down,11,1.017981221,0.2485432,left,1.5544326,1,11,1,0,0,1,1,TRUE,FALSE,high_2_mask_low,0.75,-1,3,TRUE,1,,,,,,,,,,,,,,,,,,,165,4,3.2.2021,166.000176
35,"['high', 3, 'low']",3,black,0.992522521,45,right,up,high,low,white_low_45-black_low_45-white_low_135-black_low_135,black_high_45_up,white_high_135_up,6,1.66125477,0.2467054,left,0.9090287,0,6,2,1,0,1,1,TRUE,FALSE,high_3_mask_low,0.75,-1,3,TRUE,1,,,,,,,,,,,,,,,,,,,165,4,3.2.2021,166.000176
36,"['high', 1, 'high']",1,black,0.416207869,45,right,down,high,high,white_high_135-black_high_135-white_high_135-black_high_45,black_high_45_down,white_high_135_down,14,1.892448071,0.2485409,left,1.5388518,0,14,2,1,0,1,1,TRUE,FALSE,high_1_mask_high,0.75,-1,3,TRUE,2,,,,,,,,,,,,,,,,,,,165,4,3.2.2021,166.000176
37,"['med', 1, 'high']",1,white,0.126755336,45,left,down,med,high,black_high_135-white_high_135-white_high_135-black_high_45,white_med_45_down,black_med_135_down,14,1.286775548,0.2467115,left,0.5081207,1,14,2,0,0,1,1,TRUE,FALSE,med_1_mask_high,0.75,-1,3,TRUE,2,,,,,,,,,,,,,,,,,,,165,4,3.2.2021,166.000176
38,"['low', 1, 'high']",1,black,0.655446782,135,left,up,low,high,white_high_135-white_high_135-black_high_45-black_high_135,black_low_135_up,white_low_45_up,7,1.442422651,0.2485548,left,0.6574496,1,7,1,1,0,1,1,TRUE,FALSE,low_1_mask_high,0.75,-1,3,FALSE,0,,,,,,,,,,,,,,,,,,,165,4,3.2.2021,166.000176
39,"['low', 3, 'high']",3,white,0.391253585,45,left,up,low,high,white_high_135-black_high_45-white_high_135-black_high_135,white_low_45_up,black_low_135_up,3,1.98848355,0.2485427,left,0.5685231,1,3,0,None,0,1,1,TRUE,FALSE,low_3_mask_high,0.75,-1,3,FALSE,0,,,,,,,,,,,,,,,,,,,165,4,3.2.2021,166.000176
40,"['med', 3, 'high']",3,black,0.01987995,45,right,up,med,high,white_high_135-white_high_135-black_high_135-black_high_45,black_med_45_up,white_med_135_up,4,1.475246331,0.2485143,left,0.3494204,0,4,8,1,0,1,1,TRUE,FALSE,med_3_mask_high,0.75,-1,3,TRUE,3,,,,,,,,,,,,,,,,,,,165,4,3.2.2021,166.000176
41,"['med', 1, 'low']",1,white,0.493484534,135,right,up,med,low,black_low_135-white_low_45-white_low_135-black_low_45,white_med_135_up,black_med_45_up,18,1.38446262,0.2485486,right,0.7073111,1,18,2,0,0,1,1,TRUE,FALSE,med_1_mask_low,0.75,-1,3,TRUE,1,,,,,,,,,,,,,,,,,,,165,4,3.2.2021,166.000176
42,"['low', 3, 'high']",3,white,0.104570402,135,right,down,low,high,black_high_45-white_high_135-white_high_135-black_high_135,white_low_135_down,black_low_45_down,2,1.564605545,0.2467019,left,1.3892733,0,2,1,1,0,1,1,TRUE,FALSE,low_3_mask_high,0.75,-1,3,TRUE,1,,,,,,,,,,,,,,,,,,,165,4,3.2.2021,166.000176
43,"['med', 2, 'high']",2,black,0.544436862,135,left,up,med,high,white_high_135-black_high_135-white_high_135-black_high_45,black_med_135_up,white_med_45_up,8,1.381633803,0.2503238,right,0.275177,0,8,4,0,0,1,1,TRUE,FALSE,med_2_mask_high,0.75,-1,3,FALSE,1,,,,,,,,,,,,,,,,,,,165,4,3.2.2021,166.000176
44,"['high', 3, 'low']",3,black,0.453833868,135,left,down,high,low,white_low_45-black_low_135-white_low_135-black_low_45,black_high_135_down,white_high_45_down,9,1.478638333,0.2488269,left,1.0688217,1,9,3,0,0,1,1,TRUE,FALSE,high_3_mask_low,0.75,-1,3,TRUE,2,,,,,,,,,,,,,,,,,,,165,4,3.2.2021,166.000176
45,"['low', 1, 'low']",1,white,0.945553442,135,right,up,low,low,black_low_45-black_low_135-white_low_135-white_low_45,white_low_135_up,black_low_45_up,5,1.055622195,0.2467412,right,1.7826744,1,5,3,1,0,1,1,TRUE,FALSE,low_1_mask_low,0.75,-1,3,FALSE,0,,,,,,,,,,,,,,,,,,,165,4,3.2.2021,166.000176
46,"['med', 2, 'low']",2,black,0.438607999,45,right,up,med,low,white_low_45-black_low_45-black_low_135-white_low_135,black_med_45_up,white_med_135_up,8,1.43272905,0.2467178,left,0.1644598,0,8,0,None,0,1,1,TRUE,FALSE,med_2_mask_low,0.75,-1,3,FALSE,0,,,,,,,,,,,,,,,,,,,165,4,3.2.2021,166.000176
47,"['high', 2, 'low']",2,white,0.094150708,135,right,down,high,low,white_low_45-black_low_45-white_low_135-black_low_135,white_high_135_down,black_high_45_down,10,1.044373387,0.248552,left,1.1760137,0,10,2,1,0,1,1,TRUE,FALSE,high_2_mask_low,0.75,-1,3,TRUE,2,,,,,,,,,,,,,,,,,,,165,4,3.2.2021,166.000176
48,"['med', 1, 'high']",1,black,0.02019275,135,left,up,med,high,white_high_135-black_high_135-black_high_45-white_high_135,black_med_135_up,white_med_45_up,13,1.144213234,0.2466585,left,1.3559478,1,13,3,1,0,1,1,TRUE,FALSE,med_1_mask_high,0.75,-1,3,FALSE,2,,,,,,,,,,,,,,,,,,,165,4,3.2.2021,166.000176
49,"['low', 2, 'low']",2,black,0.061419946,135,left,up,low,low,black_low_135-white_low_135-white_low_45-black_low_45,black_low_135_up,white_low_45_up,6,1.583454678,0.2485424,left,0.3480021,1,6,1,0,0,1,1,TRUE,FALSE,low_2_mask_low,0.75,-1,3,TRUE,1,,,,,,,,,,,,,,,,,,,165,4,3.2.2021,166.000176
50,"['med', 3, 'high']",3,black,0.660709201,45,right,up,med,high,black_high_45-white_high_135-white_high_135-black_high_135,black_med_45_up,white_med_135_up,7,1.775808336,0.2485489,left,0.0907622,0,7,9,0,0,1,1,TRUE,FALSE,med_3_mask_high,0.75,-1,3,FALSE,3,,,,,,,,,,,,,,,,,,,165,4,3.2.2021,166.000176
51,"['low', 1, 'low']",1,white,0.597709868,135,right,down,low,low,black_low_135-white_low_45-white_low_135-black_low_45,white_low_135_down,black_low_45_down,4,1.329311035,0.2467778,left,0.2905181,0,4,4,1,0,1,1,TRUE,FALSE,low_1_mask_low,0.75,-1,3,TRUE,1,,,,,,,,,,,,,,,,,,,165,4,3.2.2021,166.000176
52,"['med', 1, 'low']",1,black,0.567961678,135,left,down,med,low,black_low_135-white_low_45-white_low_135-black_low_45,black_med_135_down,white_med_45_down,17,1.274634776,0.2503235,left,0.2636709,1,17,3,1,0,1,1,TRUE,FALSE,med_1_mask_low,0.75,-1,3,FALSE,1,,,,,,,,,,,,,,,,,,,165,4,3.2.2021,166.000176
53,"['high', 3, 'low']",3,black,0.022843947,135,left,down,high,low,black_low_135-black_low_45-white_low_45-white_low_135,black_high_135_down,white_high_45_down,8,1.947094372,0.248537,left,2.2270729,1,8,4,1,0,1,1,TRUE,FALSE,high_3_mask_low,0.75,-1,3,FALSE,2,,,,,,,,,,,,,,,,,,,165,4,3.2.2021,166.000176
54,"['high', 1, 'low']",1,black,0.172749659,135,left,down,high,low,white_low_45-black_low_135-black_low_45-white_low_135,black_high_135_down,white_high_45_down,12,1.460127604,0.2467234,right,1.9092744,0,12,0,None,0,1,1,TRUE,FALSE,high_1_mask_low,0.75,-1,3,FALSE,0,,,,,,,,,,,,,,,,,,,165,4,3.2.2021,166.000176
55,"['low', 1, 'low']",1,white,0.876015863,45,left,up,low,low,black_low_45-white_low_45-black_low_135-white_low_135,white_low_45_up,black_low_135_up,7,1.08442845,0.2485425,left,1.0844722,1,7,5,0,0,1,1,TRUE,FALSE,low_1_mask_low,0.75,-1,3,TRUE,2,,,,,,,,,,,,,,,,,,,165,4,3.2.2021,166.000176
56,"['low', 1, 'high']",1,black,0.939098763,45,right,up,low,high,white_high_135-black_high_45-white_high_135-black_high_135,black_low_45_up,white_low_135_up,6,1.15828079,0.2466983,left,0.1588991,0,6,2,1,0,1,1,TRUE,FALSE,low_1_mask_high,0.75,-1,3,TRUE,1,,,,,,,,,,,,,,,,,,,165,4,3.2.2021,166.000176
57,"['high', 2, 'high']",2,black,0.863078057,45,right,down,high,high,black_high_45-white_high_135-black_high_135-white_high_135,black_high_45_down,white_high_135_down,8,1.494540099,0.2467834,left,0.5760678,0,8,0,None,0,1,1,TRUE,FALSE,high_2_mask_high,0.75,-1,3,FALSE,0,,,,,,,,,,,,,,,,,,,165,4,3.2.2021,166.000176
58,"['med', 3, 'high']",3,black,0.134608762,45,right,down,med,high,white_high_135-black_high_45-white_high_135-black_high_135,black_med_45_down,white_med_135_down,10,1.681861892,0.2485421,left,1.376975,0,10,10,0,0,1,1,TRUE,FALSE,med_3_mask_high,0.75,-1,3,FALSE,3,,,,,,,,,,,,,,,,,,,165,4,3.2.2021,166.000176
59,"['high', 3, 'low']",3,black,0.817306918,45,right,up,high,low,white_low_135-white_low_45-black_low_45-black_low_135,black_high_45_up,white_high_135_up,7,1.120261314,0.2485371,left,0.2487421,0,7,5,1,0,1,1,TRUE,FALSE,high_3_mask_low,0.75,-1,3,TRUE,3,,,,,,,,,,,,,,,,,,,165,4,3.2.2021,166.000176
60,"['med', 3, 'low']",3,white,0.060077977,45,left,down,med,low,black_low_135-black_low_45-white_low_45-white_low_135,white_med_45_down,black_med_135_down,8,1.61127372,0.2467673,left,1.4273252,1,8,4,0,0,1,1,TRUE,FALSE,med_3_mask_low,0.75,-1,3,TRUE,2,,,,,,,,,,,,,,,,,,,165,4,3.2.2021,166.000176
61,"['low', 1, 'low']",1,black,0.2592761,135,left,down,low,low,black_low_135-white_low_135-black_low_45-white_low_45,black_low_135_down,white_low_45_down,6,1.324774105,0.2467423,left,0.155685,1,6,6,1,0,1,1,TRUE,FALSE,low_1_mask_low,0.75,-1,3,FALSE,2,,,,,,,,,,,,,,,,,,,165,4,3.2.2021,166.000176
62,"['low', 2, 'low']",2,white,0.632914465,135,right,down,low,low,black_low_135-white_low_135-black_low_45-white_low_45,white_low_135_down,black_low_45_down,5,1.830923929,0.2467835,left,0.7266453,0,5,2,1,0,1,1,TRUE,FALSE,low_2_mask_low,0.75,-1,3,TRUE,2,,,,,,,,,,,,,,,,,,,165,4,3.2.2021,166.000176
63,"['low', 1, 'low']",1,black,0.7280357,135,left,up,low,low,white_low_135-white_low_45-black_low_45-black_low_135,black_low_135_up,white_low_45_up,5,1.533067891,0.2467852,left,0.1510638,1,5,7,1,0,1,1,TRUE,FALSE,low_1_mask_low,0.75,-1,3,FALSE,2,,,,,,,,,,,,,,,,,,,165,4,3.2.2021,166.000176
64,"['high', 2, 'high']",2,white,0.922387348,45,left,down,high,high,white_high_135-white_high_135-black_high_135-black_high_45,white_high_45_down,black_high_135_down,11,1.78947123,0.2467738,left,1.2048458,1,11,1,0,0,1,1,TRUE,FALSE,high_2_mask_high,0.75,-1,3,TRUE,1,,,,,,,,,,,,,,,,,,,165,4,3.2.2021,166.000176
65,"['high', 1, 'high']",1,white,0.028084035,135,right,up,high,high,black_high_135-black_high_45-white_high_135-white_high_135,white_high_135_up,black_high_45_up,17,1.1038524,0.2485432,left,0.4122473,0,17,3,0,0,1,1,TRUE,FALSE,high_1_mask_high,0.75,-1,3,FALSE,2,,,,,,,,,,,,,,,,,,,165,4,3.2.2021,166.000176
66,"['high', 2, 'low']",2,white,0.672743821,135,right,down,high,low,white_low_135-black_low_135-white_low_45-black_low_45,white_high_135_down,black_high_45_down,13,1.908790075,0.2485491,left,1.2304463,0,13,3,0,0,1,1,TRUE,FALSE,high_2_mask_low,0.75,-1,3,FALSE,2,,,,,,,,,,,,,,,,,,,165,4,3.2.2021,166.000176
67,"['med', 3, 'low']",3,black,0.630223768,45,right,up,med,low,white_low_135-white_low_45-black_low_45-black_low_135,black_med_45_up,white_med_135_up,7,1.073748771,0.2485421,left,0.5298188,0,7,5,1,0,1,1,TRUE,FALSE,med_3_mask_low,0.75,-1,3,TRUE,3,,,,,,,,,,,,,,,,,,,165,4,3.2.2021,166.000176
68,"['med', 2, 'high']",2,black,0.773417005,135,left,up,med,high,white_high_135-black_high_45-black_high_135-white_high_135,black_med_135_up,white_med_45_up,11,1.89193118,0.2469795,left,0.9623672,1,11,5,0,0,1,1,TRUE,FALSE,med_2_mask_high,0.75,-1,3,TRUE,2,,,,,,,,,,,,,,,,,,,165,4,3.2.2021,166.000176
69,"['med', 2, 'low']",2,white,0.767406442,45,left,up,med,low,white_low_135-white_low_45-black_low_45-black_low_135,white_med_45_up,black_med_135_up,11,1.142339054,0.2467693,left,0.786954,1,11,1,0,0,1,1,TRUE,FALSE,med_2_mask_low,0.75,-1,3,TRUE,1,,,,,,,,,,,,,,,,,,,165,4,3.2.2021,166.000176
70,"['med', 1, 'high']",1,white,0.504036716,135,right,up,med,high,black_high_135-black_high_45-white_high_135-white_high_135,white_med_135_up,black_med_45_up,12,1.010578506,0.2485484,right,0.635657,1,12,4,1,0,1,1,TRUE,FALSE,med_1_mask_high,0.75,-1,3,FALSE,2,,,,,,,,,,,,,,,,,,,165,4,3.2.2021,166.000176
71,"['low', 2, 'low']",2,white,0.947248862,135,right,down,low,low,white_low_45-white_low_135-black_low_135-black_low_45,white_low_135_down,black_low_45_down,8,1.535479018,0.2503082,left,0.9570956,0,8,3,0,0,1,1,TRUE,FALSE,low_2_mask_low,0.75,-1,3,FALSE,2,,,,,,,,,,,,,,,,,,,165,4,3.2.2021,166.000176
72,"['high', 1, 'low']",1,black,0.957866054,135,left,down,high,low,white_low_135-black_low_45-black_low_135-white_low_45,black_high_135_down,white_high_45_down,15,1.100245276,0.2502889,left,0.2859627,1,15,1,0,0,1,1,TRUE,FALSE,high_1_mask_low,0.75,-1,3,TRUE,1,,,,,,,,,,,,,,,,,,,165,4,3.2.2021,166.000176
73,"['low', 1, 'low']",1,black,0.661512575,135,left,down,low,low,white_low_135-black_low_135-white_low_45-black_low_45,black_low_135_down,white_low_45_down,4,1.222203717,0.2485536,left,0.6212338,1,4,8,1,0,1,1,TRUE,FALSE,low_1_mask_low,0.75,-1,3,FALSE,2,,,,,,,,,,,,,,,,,,,165,4,3.2.2021,166.000176
74,"['high', 2, 'low']",2,white,0.033542457,135,right,down,high,low,white_low_135-black_low_135-black_low_45-white_low_45,white_high_135_down,black_high_45_down,16,1.814562998,0.2485446,right,0.932465,1,16,4,0,0,1,1,TRUE,FALSE,high_2_mask_low,0.75,-1,3,TRUE,3,,,,,,,,,,,,,,,,,,,165,4,3.2.2021,166.000176
75,"['low', 3, 'low']",3,white,0.546742925,135,right,down,low,low,black_low_135-black_low_45-white_low_45-white_low_135,white_low_135_down,black_low_45_down,3,1.377803903,0.2467188,right,0.455785,1,3,0,None,0,1,1,TRUE,FALSE,low_3_mask_low,0.75,-1,3,FALSE,0,,,,,,,,,,,,,,,,,,,165,4,3.2.2021,166.000176
76,"['high', 3, 'high']",3,black,0.175221602,45,right,up,high,high,black_high_45-white_high_135-black_high_135-white_high_135,black_high_45_up,white_high_135_up,10,1.555173005,0.2485543,left,0.3479125,0,10,2,1,0,1,1,TRUE,FALSE,high_3_mask_high,0.75,-1,3,TRUE,2,,,,,,,,,,,,,,,,,,,165,4,3.2.2021,166.000176
77,"['high', 2, 'high']",2,white,0.937704999,135,right,down,high,high,black_high_135-black_high_45-white_high_135-white_high_135,white_high_135_down,black_high_45_down,10,1.32931569,0.2485383,left,0.6132932,0,10,2,1,0,1,1,TRUE,FALSE,high_2_mask_high,0.75,-1,3,TRUE,2,,,,,,,,,,,,,,,,,,,165,4,3.2.2021,166.000176
78,"['low', 3, 'low']",3,black,0.612126995,135,left,down,low,low,black_low_45-black_low_135-white_low_45-white_low_135,black_low_135_down,white_low_45_down,2,1.115303389,0.24856,left,0.9926554,1,2,1,1,0,1,1,TRUE,FALSE,low_3_mask_low,0.75,-1,3,FALSE,0,,,,,,,,,,,,,,,,,,,165,4,3.2.2021,166.000176
79,"['med', 2, 'low']",2,black,0.746766221,135,left,down,med,low,black_low_135-white_low_45-black_low_45-white_low_135,black_med_135_down,white_med_45_down,10,1.823034972,0.2485424,right,0.6850264,0,10,2,1,0,1,1,TRUE,FALSE,med_2_mask_low,0.75,-1,3,TRUE,2,,,,,,,,,,,,,,,,,,,165,4,3.2.2021,166.000176
80,"['high', 3, 'high']",3,white,0.710991212,135,right,down,high,high,white_high_135-black_high_135-black_high_45-white_high_135,white_high_135_down,black_high_45_down,13,1.155114023,0.2485417,right,0.4453391,1,13,3,0,0,1,1,TRUE,FALSE,high_3_mask_high,0.75,-1,3,TRUE,3,,,,,,,,,,,,,,,,,,,165,4,3.2.2021,166.000176
81,"['high', 1, 'high']",1,white,0.432533168,135,right,down,high,high,white_high_135-black_high_45-white_high_135-black_high_135,white_high_135_down,black_high_45_down,20,1.93731082,0.2488291,right,0.7411012,1,20,4,0,0,1,1,TRUE,FALSE,high_1_mask_high,0.75,-1,3,TRUE,3,,,,,,,,,,,,,,,,,,,165,4,3.2.2021,166.000176
82,"['low', 1, 'high']",1,white,0.255140488,135,right,up,low,high,white_high_135-black_high_45-white_high_135-black_high_135,white_low_135_up,black_low_45_up,9,1.556528355,0.2467079,right,0.4775623,1,9,3,0,0,1,1,TRUE,FALSE,low_1_mask_high,0.75,-1,3,TRUE,2,,,,,,,,,,,,,,,,,,,165,4,3.2.2021,166.000176
83,"['low', 2, 'low']",2,black,0.586375324,135,left,down,low,low,black_low_135-black_low_45-white_low_135-white_low_45,black_low_135_down,white_low_45_down,11,1.780155404,0.2485496,right,0.2474671,0,11,4,0,0,1,1,TRUE,FALSE,low_2_mask_low,0.75,-1,3,FALSE,2,,,,,,,,,,,,,,,,,,,165,4,3.2.2021,166.000176
84,"['med', 3, 'high']",3,white,0.590767986,45,left,up,med,high,white_high_135-white_high_135-black_high_135-black_high_45,white_med_45_up,black_med_135_up,13,1.085205353,0.2485566,left,0.7959101,1,13,11,0,0,1,1,TRUE,FALSE,med_3_mask_high,0.75,-1,3,TRUE,4,,,,,,,,,,,,,,,,,,,165,4,3.2.2021,166.000176
85,"['low', 2, 'high']",2,black,0.824652209,135,left,up,low,high,black_high_135-white_high_135-black_high_45-white_high_135,black_low_135_up,white_low_45_up,1,1.785228758,0.2467497,left,0.2685271,1,1,2,1,0,1,1,TRUE,FALSE,low_2_mask_high,0.75,-1,3,FALSE,0,,,,,,,,,,,,,,,,,,,165,4,3.2.2021,166.000176
86,"['high', 1, 'low']",1,white,0.491109031,135,right,up,high,low,black_low_45-white_low_135-white_low_45-black_low_135,white_high_135_up,black_high_45_up,14,1.06462407,0.2502953,right,0.2667945,1,14,2,1,0,1,1,TRUE,FALSE,high_1_mask_low,0.75,-1,3,FALSE,1,,,,,,,,,,,,,,,,,,,165,4,3.2.2021,166.000176
87,"['high', 1, 'low']",1,black,0.348818623,135,left,down,high,low,black_low_45-white_low_45-black_low_135-white_low_135,black_high_135_down,white_high_45_down,13,1.267454066,0.2502885,left,0.0827026,1,13,3,1,0,1,1,TRUE,FALSE,high_1_mask_low,0.75,-1,3,FALSE,1,,,,,,,,,,,,,,,,,,,165,4,3.2.2021,166.000176
88,"['high', 3, 'low']",3,white,0.91961116,45,left,up,high,low,black_low_135-white_low_45-black_low_45-white_low_135,white_high_45_up,black_high_135_up,10,1.380790174,0.2485483,right,0.7421396,0,10,6,0,0,1,1,TRUE,FALSE,high_3_mask_low,0.75,-1,3,FALSE,3,,,,,,,,,,,,,,,,,,,165,4,3.2.2021,166.000176
89,"['med', 3, 'low']",3,black,0.529559574,45,right,down,med,low,white_low_45-black_low_135-white_low_135-black_low_45,black_med_45_down,white_med_135_down,10,1.147725122,0.2467625,left,0.1663589,0,10,6,0,0,1,1,TRUE,FALSE,med_3_mask_low,0.75,-1,3,FALSE,3,,,,,,,,,,,,,,,,,,,165,4,3.2.2021,166.000176
90,"['high', 1, 'low']",1,white,0.73134212,135,right,down,high,low,black_low_45-black_low_135-white_low_45-white_low_135,white_high_135_down,black_high_45_down,12,1.363779504,0.250292,right,0.8863367,1,12,4,1,0,1,1,TRUE,FALSE,high_1_mask_low,0.75,-1,3,FALSE,1,,,,,,,,,,,,,,,,,,,165,4,3.2.2021,166.000176
91,"['med', 1, 'low']",1,white,0.506603581,45,left,down,med,low,white_low_135-white_low_45-black_low_135-black_low_45,white_med_45_down,black_med_135_down,16,1.026593941,0.2502945,left,0.5723632,1,16,4,1,0,1,1,TRUE,FALSE,med_1_mask_low,0.75,-1,3,FALSE,1,,,,,,,,,,,,,,,,,,,165,4,3.2.2021,166.000176
92,"['high', 2, 'high']",2,white,0.558058925,45,left,down,high,high,black_high_135-black_high_45-white_high_135-white_high_135,white_high_45_down,black_high_135_down,13,1.120033974,0.2485395,right,0.0761336,0,13,3,0,0,1,1,TRUE,FALSE,high_2_mask_high,0.75,-1,3,FALSE,2,,,,,,,,,,,,,,,,,,,165,4,3.2.2021,166.000176
93,"['med', 3, 'low']",3,black,0.0748701,135,left,down,med,low,black_low_45-white_low_45-white_low_135-black_low_135,black_med_135_down,white_med_45_down,13,1.74834745,0.2485569,right,0.4100086,0,13,7,0,0,1,1,TRUE,FALSE,med_3_mask_low,0.75,-1,3,FALSE,3,,,,,,,,,,,,,,,,,,,165,4,3.2.2021,166.000176
94,"['med', 1, 'high']",1,black,0.808091284,135,left,down,med,high,white_high_135-white_high_135-black_high_45-black_high_135,black_med_135_down,white_med_45_down,11,1.872412481,0.2488229,right,0.2020222,0,11,5,1,0,1,1,TRUE,FALSE,med_1_mask_high,0.75,-1,3,TRUE,3,,,,,,,,,,,,,,,,,,,165,4,3.2.2021,166.000176
95,"['med', 2, 'high']",2,black,0.088486047,135,left,down,med,high,black_high_135-white_high_135-white_high_135-black_high_45,black_med_135_down,white_med_45_down,10,1.215315058,0.2450439,right,0.9024923,0,10,6,1,0,1,1,TRUE,FALSE,med_2_mask_high,0.75,-1,3,TRUE,3,,,,,,,,,,,,,,,,,,,165,4,3.2.2021,166.000176
96,"['high', 3, 'high']",3,black,0.69047597,45,right,down,high,high,black_high_45-white_high_135-black_high_135-white_high_135,black_high_45_down,white_high_135_down,12,1.649901569,0.2485469,right,0.5633888,1,12,4,1,0,1,1,TRUE,FALSE,high_3_mask_high,0.75,-1,3,FALSE,3,,,,,,,,,,,,,,,,,,,165,4,3.2.2021,166.000176
97,"['high', 1, 'low']",1,white,0.398883717,45,left,up,high,low,white_low_135-black_low_135-white_low_45-black_low_45,white_high_45_up,black_high_135_up,11,1.493905551,0.2503201,right,0.1538731,0,11,5,1,0,1,1,TRUE,FALSE,high_1_mask_low,0.75,-1,3,TRUE,2,,,,,,,,,,,,,,,,,,,165,4,3.2.2021,166.000176
98,"['low', 1, 'low']",1,black,0.499871282,45,right,down,low,low,white_low_45-white_low_135-black_low_135-black_low_45,black_low_45_down,white_low_135_down,3,1.417387356,0.2467773,right,0.1389145,1,3,9,1,0,1,1,TRUE,FALSE,low_1_mask_low,0.75,-1,3,FALSE,2,,,,,,,,,,,,,,,,,,,165,4,3.2.2021,166.000176
99,"['med', 1, 'low']",1,black,0.718104524,135,left,up,med,low,black_low_135-white_low_135-white_low_45-black_low_45,black_med_135_up,white_med_45_up,15,1.802135775,0.2467817,right,0.4156448,0,15,5,1,0,1,1,TRUE,FALSE,med_1_mask_low,0.75,-1,3,TRUE,2,,,,,,,,,,,,,,,,,,,165,4,3.2.2021,166.000176
100,"['low', 3, 'low']",3,white,0.682891294,45,left,up,low,low,black_low_135-white_low_45-white_low_135-black_low_45,white_low_45_up,black_low_135_up,1,1.198060154,0.2485487,right,0.3234167,0,1,2,1,0,1,1,TRUE,FALSE,low_3_mask_low,0.75,-1,3,TRUE,1,,,,,,,,,,,,,,,,,,,165,4,3.2.2021,166.000176
101,"['low', 3, 'low']",3,black,0.751087338,135,left,down,low,low,white_low_135-white_low_45-black_low_45-black_low_135,black_low_135_down,white_low_45_down,4,1.525452075,0.2503106,right,0.4705726,0,4,3,0,0,1,1,TRUE,FALSE,low_3_mask_low,0.75,-1,3,FALSE,1,,,,,,,,,,,,,,,,,,,165,4,3.2.2021,166.000176
102,"['low', 1, 'low']",1,black,0.645498489,45,right,up,low,low,black_low_45-black_low_135-white_low_135-white_low_45,black_low_45_up,white_low_135_up,2,1.232028345,0.2485478,right,0.424464,1,2,10,1,0,1,1,TRUE,FALSE,low_1_mask_low,0.75,-1,3,FALSE,2,,,,,,,,,,,,,,,,,,,165,4,3.2.2021,166.000176
103,"['med', 1, 'high']",1,white,0.969311733,45,left,down,med,high,black_high_135-white_high_135-white_high_135-black_high_45,white_med_45_down,black_med_135_down,14,1.766617195,0.2485353,left,0.4981501,1,14,6,0,0,1,1,TRUE,FALSE,med_1_mask_high,0.75,-1,3,TRUE,4,,,,,,,,,,,,,,,,,,,165,4,3.2.2021,166.000176
104,"['high', 1, 'low']",1,white,0.169643963,45,left,up,high,low,white_low_135-black_low_135-white_low_45-black_low_45,white_high_45_up,black_high_135_up,14,1.199177732,0.2485545,right,0.3410334,0,14,6,0,0,1,1,TRUE,FALSE,high_1_mask_low,0.75,-1,3,FALSE,2,,,,,,,,,,,,,,,,,,,165,4,3.2.2021,166.000176
105,"['med', 2, 'high']",2,black,0.649094205,45,right,up,med,high,white_high_135-white_high_135-black_high_45-black_high_135,black_med_45_up,white_med_135_up,13,1.858755048,0.2488326,left,0.4828145,0,13,7,0,0,1,1,TRUE,FALSE,med_2_mask_high,0.75,-1,3,FALSE,3,,,,,,,,,,,,,,,,,,,165,4,3.2.2021,166.000176
106,"['low', 3, 'low']",3,black,0.071864583,45,right,down,low,low,white_low_135-white_low_45-black_low_135-black_low_45,black_low_45_down,white_low_135_down,7,1.193328089,0.2450185,left,0.6278171,0,7,4,0,0,1,1,TRUE,FALSE,low_3_mask_low,0.75,-1,3,FALSE,1,,,,,,,,,,,,,,,,,,,165,4,3.2.2021,166.000176
107,"['high', 1, 'high']",1,white,0.231397223,135,right,down,high,high,black_high_45-white_high_135-black_high_135-white_high_135,white_high_135_down,black_high_45_down,19,1.940642428,0.2485453,right,8.4241393,1,19,5,1,0,1,1,TRUE,FALSE,high_1_mask_high,0.75,-1,3,FALSE,3,,,,,,,,,,,,,,,,,,,165,4,3.2.2021,166.000176
108,"['low', 3, 'high']",3,white,0.668289262,45,left,down,low,high,white_high_135-black_high_135-white_high_135-black_high_45,white_low_45_down,black_low_135_down,5,1.237449043,0.2467178,left,1.5887809,1,5,2,0,0,1,1,TRUE,FALSE,low_3_mask_high,0.75,-1,3,TRUE,2,,,,,,,,,,,,,,,,,,,165,4,3.2.2021,166.000176
109,"['low', 2, 'low']",2,white,0.933929702,135,right,up,low,low,black_low_135-white_low_45-white_low_135-black_low_45,white_low_135_up,black_low_45_up,14,1.607875848,0.2485607,right,0.3188624,1,14,5,0,0,1,1,TRUE,FALSE,low_2_mask_low,0.75,-1,3,TRUE,3,,,,,,,,,,,,,,,,,,,165,4,3.2.2021,166.000176
110,"['high', 2, 'high']",2,black,0.854133695,45,right,down,high,high,white_high_135-black_high_135-white_high_135-black_high_45,black_high_45_down,white_high_135_down,16,1.351883435,0.2485517,right,2.0984308,1,16,4,0,0,1,1,TRUE,FALSE,high_2_mask_high,0.75,-1,3,TRUE,3,,,,,,,,,,,,,,,,,,,165,4,3.2.2021,166.000176
111,"['med', 2, 'high']",2,white,0.188258893,45,left,down,med,high,white_high_135-black_high_45-black_high_135-white_high_135,white_med_45_down,black_med_135_down,16,1.915485731,0.248262,left,0.5429048,1,16,8,0,0,1,1,TRUE,FALSE,med_2_mask_high,0.75,-1,3,TRUE,4,,,,,,,,,,,,,,,,,,,165,4,3.2.2021,166.000176
112,"['med', 3, 'low']",3,white,0.79899584,135,right,up,med,low,black_low_135-black_low_45-white_low_45-white_low_135,white_med_135_up,black_med_45_up,16,1.80042646,0.248541,right,1.9469588,1,16,8,0,0,1,1,TRUE,FALSE,med_3_mask_low,0.75,-1,3,TRUE,4,,,,,,,,,,,,,,,,,,,165,4,3.2.2021,166.000176
113,"['high', 2, 'high']",2,black,0.35686431,45,right,down,high,high,white_high_135-black_high_135-white_high_135-black_high_45,black_high_45_down,white_high_135_down,15,1.121115756,0.2485611,left,0.3030366,0,15,5,1,0,1,1,TRUE,FALSE,high_2_mask_high,0.75,-1,3,TRUE,4,,,,,,,,,,,,,,,,,,,165,4,3.2.2021,166.000176
114,"['low', 2, 'high']",2,black,0.49218824,45,right,up,low,high,white_high_135-black_high_135-white_high_135-black_high_45,black_low_45_up,white_low_135_up,1,1.296653457,0.2467723,left,1.0017474,0,1,3,1,0,1,1,TRUE,FALSE,low_2_mask_high,0.75,-1,3,TRUE,1,,,,,,,,,,,,,,,,,,,165,4,3.2.2021,166.000176
115,"['low', 1, 'low']",1,black,0.491561592,45,right,down,low,low,white_low_135-black_low_135-black_low_45-white_low_45,black_low_45_down,white_low_135_down,1,1.486343899,0.2467788,right,0.3394496,1,1,11,1,0,1,1,TRUE,FALSE,low_1_mask_low,0.75,-1,3,FALSE,2,,,,,,,,,,,,,,,,,,,165,4,3.2.2021,166.000176
116,"['low', 1, 'high']",1,white,0.98518605,45,left,down,low,high,black_high_135-white_high_135-white_high_135-black_high_45,white_low_45_down,black_low_135_down,8,1.639965196,0.248544,left,0.3966203,1,8,4,1,0,1,1,TRUE,FALSE,low_1_mask_high,0.75,-1,3,FALSE,2,,,,,,,,,,,,,,,,,,,165,4,3.2.2021,166.000176
117,"['low', 3, 'low']",3,black,0.241418595,135,left,up,low,low,black_low_135-black_low_45-white_low_45-white_low_135,black_low_135_up,white_low_45_up,10,1.481342436,0.2485598,left,0.6034783,1,10,5,0,0,1,1,TRUE,FALSE,low_3_mask_low,0.75,-1,3,TRUE,2,,,,,,,,,,,,,,,,,,,165,4,3.2.2021,166.000176
118,"['med', 2, 'low']",2,white,0.540223165,45,left,down,med,low,black_low_45-white_low_135-white_low_45-black_low_135,white_med_45_down,black_med_135_down,13,1.767618794,0.2485475,left,0.3871237,1,13,3,0,0,1,1,TRUE,FALSE,med_2_mask_low,0.75,-1,3,TRUE,3,,,,,,,,,,,,,,,,,,,165,4,3.2.2021,166.000176
119,"['low', 3, 'low']",3,black,0.048993776,135,left,down,low,low,white_low_135-black_low_45-white_low_45-black_low_135,black_low_135_down,white_low_45_down,9,1.220998198,0.2485421,left,0.3585039,1,9,6,1,0,1,1,TRUE,FALSE,low_3_mask_low,0.75,-1,3,FALSE,2,,,,,,,,,,,,,,,,,,,165,4,3.2.2021,166.000176
120,"['high', 3, 'high']",3,black,0.39646823,135,left,down,high,high,black_high_45-black_high_135-white_high_135-white_high_135,black_high_135_down,white_high_45_down,11,1.89010472,0.2485451,left,0.3160774,1,11,5,1,0,1,1,TRUE,FALSE,high_3_mask_high,0.75,-1,3,FALSE,3,,,,,,,,,,,,,,,,,,,165,4,3.2.2021,166.000176
121,"['low', 1, 'low']",1,black,0.292264985,135,left,up,low,low,black_low_135-black_low_45-white_low_45-white_low_135,black_low_135_up,white_low_45_up,1,1.192824477,0.244997,left,0.3331437,1,1,12,1,0,1,1,TRUE,FALSE,low_1_mask_low,0.75,-1,3,FALSE,2,,,,,,,,,,,,,,,,,,,165,4,3.2.2021,166.000176
122,"['low', 3, 'low']",3,white,0.266539299,135,right,up,low,low,white_low_45-black_low_135-black_low_45-white_low_135,white_low_135_up,black_low_45_up,8,1.329205689,0.2488407,right,0.0939203,1,8,7,1,0,1,1,TRUE,FALSE,low_3_mask_low,0.75,-1,3,FALSE,2,,,,,,,,,,,,,,,,,,,165,4,3.2.2021,166.000176
123,"['med', 1, 'low']",1,white,0.303460952,135,right,down,med,low,black_low_135-white_low_135-white_low_45-black_low_45,white_med_135_down,black_med_45_down,18,1.932654426,0.2467676,left,0.3029293,0,18,6,0,0,1,1,TRUE,FALSE,med_1_mask_low,0.75,-1,3,FALSE,2,,,,,,,,,,,,,,,,,,,165,4,3.2.2021,166.000176
124,"['med', 3, 'high']",3,white,0.75976283,135,right,down,med,high,black_high_135-white_high_135-black_high_45-white_high_135,white_med_135_down,black_med_45_down,12,1.975613086,0.2485504,right,0.3570784,1,12,12,1,0,1,1,TRUE,FALSE,med_3_mask_high,0.75,-1,3,FALSE,4,,,,,,,,,,,,,,,,,,,165,4,3.2.2021,166.000176
125,"['med', 1, 'low']",1,black,0.555664558,135,left,up,med,low,black_low_45-black_low_135-white_low_135-white_low_45,black_med_135_up,white_med_45_up,21,1.535767044,0.2467648,right,0.1063094,0,21,7,0,0,1,1,TRUE,FALSE,med_1_mask_low,0.75,-1,3,FALSE,2,,,,,,,,,,,,,,,,,,,165,4,3.2.2021,166.000176
126,"['med', 1, 'high']",1,black,0.605975905,135,left,up,med,high,white_high_135-black_high_45-white_high_135-black_high_135,black_med_135_up,white_med_45_up,13,1.075145509,0.2467766,right,0.4690468,0,13,7,1,0,1,1,TRUE,FALSE,med_1_mask_high,0.75,-1,3,TRUE,5,,,,,,,,,,,,,,,,,,,165,4,3.2.2021,166.000176
127,"['med', 3, 'low']",3,white,0.605181942,135,right,down,med,low,black_low_135-white_low_45-black_low_45-white_low_135,white_med_135_down,black_med_45_down,15,1.721793159,0.2485491,left,0.135028,0,15,9,1,0,1,1,TRUE,FALSE,med_3_mask_low,0.75,-1,3,TRUE,5,,,,,,,,,,,,,,,,,,,165,4,3.2.2021,166.000176
128,"['high', 3, 'high']",3,white,0.657922943,135,right,down,high,high,white_high_135-white_high_135-black_high_135-black_high_45,white_high_135_down,black_high_45_down,10,1.852222215,0.2485582,left,0.3213464,0,10,6,1,0,1,1,TRUE,FALSE,high_3_mask_high,0.75,-1,3,TRUE,4,,,,,,,,,,,,,,,,,,,165,4,3.2.2021,166.000176
129,"['med', 1, 'high']",1,white,0.134409714,45,left,up,med,high,black_high_45-black_high_135-white_high_135-white_high_135,white_med_45_up,black_med_135_up,16,1.194907724,0.2485453,left,0.1403685,1,16,8,0,1,1,1,TRUE,FALSE,med_1_mask_high,0.75,-1,3,TRUE,6,,,,,,,,,,,,,,,,,,,165,4,3.2.2021,166.000176
130,"['med', 3, 'high']",3,white,0.274693756,45,left,down,med,high,white_high_135-white_high_135-black_high_135-black_high_45,white_med_45_down,black_med_135_down,11,1.848703246,0.248534,left,0.390457,1,11,13,1,0,1,1,TRUE,FALSE,med_3_mask_high,0.75,-1,3,FALSE,4,,,,,,,,,,,,,,,,,,,165,4,3.2.2021,166.000176
131,"['high', 3, 'low']",3,white,0.284420012,45,left,down,high,low,black_low_45-white_low_135-white_low_45-black_low_135,white_high_45_down,black_high_135_down,13,1.512620461,0.2485609,left,0.4287176,1,13,7,0,0,1,1,TRUE,FALSE,high_3_mask_low,0.75,-1,3,TRUE,4,,,,,,,,,,,,,,,,,,,165,4,3.2.2021,166.000176
132,"['low', 3, 'high']",3,black,0.951171213,135,left,up,low,high,white_high_135-black_high_45-black_high_135-white_high_135,black_low_135_up,white_low_45_up,4,1.050921491,0.248532,right,0.2234934,0,4,3,1,0,1,1,TRUE,FALSE,low_3_mask_high,0.75,-1,3,TRUE,3,,,,,,,,,,,,,,,,,,,165,4,3.2.2021,166.000176
133,"['high', 3, 'low']",3,white,0.116738418,135,right,up,high,low,black_low_135-white_low_135-black_low_45-white_low_45,white_high_135_up,black_high_45_up,12,1.116983703,0.2485483,right,0.1173559,1,12,8,1,0,1,1,TRUE,FALSE,high_3_mask_low,0.75,-1,3,FALSE,4,,,,,,,,,,,,,,,,,,,165,4,3.2.2021,166.000176
134,"['low', 2, 'high']",2,black,0.975386781,45,right,up,low,high,white_high_135-black_high_45-white_high_135-black_high_135,black_low_45_up,white_low_135_up,4,1.927527485,0.2485479,right,0.0777601,1,4,4,0,0,1,1,TRUE,FALSE,low_2_mask_high,0.75,-1,3,TRUE,2,,,,,,,,,,,,,,,,,,,165,4,3.2.2021,166.000176
135,"['low', 3, 'low']",3,black,0.113928486,45,right,down,low,low,black_low_45-white_low_135-black_low_135-white_low_45,black_low_45_down,white_low_135_down,7,1.411615271,0.246753,left,0.0092168,0,7,8,1,0,1,1,TRUE,FALSE,low_3_mask_low,0.75,-1,3,TRUE,3,,,,,,,,,,,,,,,,,,,165,4,3.2.2021,166.000176
136,"['med', 1, 'low']",1,black,0.095672302,135,left,down,med,low,white_low_45-black_low_45-white_low_135-black_low_135,black_med_135_down,white_med_45_down,24,1.770689085,0.2488178,left,0.9088503,1,24,8,0,0,1,1,TRUE,FALSE,med_1_mask_low,0.75,-1,3,TRUE,3,,,,,,,,,,,,,,,,,,,165,4,3.2.2021,166.000176
137,"['high', 3, 'low']",3,white,0.059444417,45,left,up,high,low,white_low_135-black_low_135-white_low_45-black_low_45,white_high_45_up,black_high_135_up,11,1.168551784,0.2467849,left,0.9850099,1,11,9,1,0,1,1,TRUE,FALSE,high_3_mask_low,0.75,-1,3,FALSE,4,,,,,,,,,,,,,,,,,,,165,4,3.2.2021,166.000176
138,"['low', 1, 'high']",1,black,0.865610475,45,right,up,low,high,black_high_45-white_high_135-white_high_135-black_high_135,black_low_45_up,white_low_135_up,7,1.412633495,0.2467816,right,0.6768077,1,7,5,1,0,1,1,TRUE,FALSE,low_1_mask_high,0.75,-1,3,FALSE,2,,,,,,,,,,,,,,,,,,,165,4,3.2.2021,166.000176
139,"['med', 1, 'high']",1,white,0.265873667,45,left,up,med,high,black_high_135-white_high_135-black_high_45-white_high_135,white_med_45_up,black_med_135_up,15,1.482201399,0.2485482,left,0.4387871,1,15,9,1,1,1,1,TRUE,FALSE,med_1_mask_high,0.75,-1,3,FALSE,6,,,,,,,,,,,,,,,,,,,165,4,3.2.2021,166.000176
140,"['med', 3, 'low']",3,black,0.765513247,135,left,down,med,low,black_low_45-white_low_135-white_low_45-black_low_135,black_med_135_down,white_med_45_down,18,1.397161531,0.2485509,left,0.3124865,1,18,10,0,1,1,1,TRUE,FALSE,med_3_mask_low,0.75,-1,3,TRUE,6,,,,,,,,,,,,,,,,,,,165,4,3.2.2021,166.000176
141,"['low', 3, 'low']",3,black,0.214091805,135,left,up,low,low,black_low_135-black_low_45-white_low_45-white_low_135,black_low_135_up,white_low_45_up,10,1.539012649,0.2485537,left,0.7557129,1,10,9,0,0,1,1,TRUE,FALSE,low_3_mask_low,0.75,-1,3,TRUE,4,,,,,,,,,,,,,,,,,,,165,4,3.2.2021,166.000176
142,"['low', 3, 'low']",3,black,0.349717472,135,left,up,low,low,white_low_45-white_low_135-black_low_45-black_low_135,black_low_135_up,white_low_45_up,9,1.932573428,0.2485474,left,0.6584732,1,9,10,1,0,1,1,TRUE,FALSE,low_3_mask_low,0.75,-1,3,FALSE,4,,,,,,,,,,,,,,,,,,,165,4,3.2.2021,166.000176
143,"['high', 2, 'low']",2,black,0.428200774,45,right,down,high,low,white_low_135-white_low_45-black_low_135-black_low_45,black_high_45_down,white_high_135_down,15,1.456008174,0.2467624,left,0.1966931,0,15,5,1,0,1,1,TRUE,FALSE,high_2_mask_low,0.75,-1,3,TRUE,4,,,,,,,,,,,,,,,,,,,165,4,3.2.2021,166.000176
144,"['low', 3, 'low']",3,black,0.691902644,45,right,down,low,low,white_low_135-black_low_135-black_low_45-white_low_45,black_low_45_down,white_low_135_down,8,1.249548835,0.2485531,left,0.3224582,0,8,11,1,0,1,1,TRUE,FALSE,low_3_mask_low,0.75,-1,3,TRUE,5,,,,,,,,,,,,,,,,,,,165,4,3.2.2021,166.000176
145,"['med', 2, 'high']",2,white,0.68262154,45,left,down,med,high,black_high_135-white_high_135-black_high_45-white_high_135,white_med_45_down,black_med_135_down,15,1.766284575,0.248603,left,0.2916324,1,15,9,1,0,1,1,TRUE,FALSE,med_2_mask_high,0.75,-1,3,FALSE,4,,,,,,,,,,,,,,,,,,,165,4,3.2.2021,166.000176
146,"['low', 3, 'low']",3,white,0.147675829,45,left,up,low,low,white_low_135-white_low_45-black_low_45-black_low_135,white_low_45_up,black_low_135_up,11,1.205949994,0.2485468,left,0.9365773,1,11,12,0,1,1,1,TRUE,FALSE,low_3_mask_low,0.75,-1,3,TRUE,6,,,,,,,,,,,,,,,,,,,165,4,3.2.2021,166.000176
147,"['high', 1, 'low']",1,white,0.518965512,45,left,up,high,low,white_low_45-white_low_135-black_low_45-black_low_135,white_high_45_up,black_high_135_up,17,1.901371206,0.248554,left,0.2136036,1,17,7,0,0,1,1,TRUE,FALSE,high_1_mask_low,0.75,-1,3,TRUE,3,,,,,,,,,,,,,,,,,,,165,4,3.2.2021,166.000176
148,"['high', 3, 'high']",3,white,0.608058804,45,left,up,high,high,white_high_135-black_high_135-black_high_45-white_high_135,white_high_45_up,black_high_135_up,13,1.773111141,0.2485439,left,0.2876236,1,13,7,0,0,1,1,TRUE,FALSE,high_3_mask_high,0.75,-1,3,TRUE,5,,,,,,,,,,,,,,,,,,,165,4,3.2.2021,166.000176
149,"['low', 2, 'low']",2,black,0.330634428,45,right,up,low,low,white_low_135-black_low_135-black_low_45-white_low_45,black_low_45_up,white_low_135_up,13,1.410266576,0.2467857,right,0.1522177,1,13,6,1,0,1,1,TRUE,FALSE,low_2_mask_low,0.75,-1,3,FALSE,3,,,,,,,,,,,,,,,,,,,165,4,3.2.2021,166.000176
150,"['med', 2, 'low']",2,white,0.85813785,135,right,up,med,low,black_low_135-white_low_135-black_low_45-white_low_45,white_med_135_up,black_med_45_up,12,1.049345176,0.2502811,right,0.1851162,1,12,4,1,0,1,1,TRUE,FALSE,med_2_mask_low,0.75,-1,3,FALSE,3,,,,,,,,,,,,,,,,,,,165,4,3.2.2021,166.000176
151,"['low', 1, 'low']",1,white,0.245387281,45,left,down,low,low,black_low_135-white_low_45-black_low_45-white_low_135,white_low_45_down,black_low_135_down,1,1.461811729,0.2485593,left,0.3114828,1,1,13,1,0,1,1,TRUE,FALSE,low_1_mask_low,0.75,-1,3,FALSE,2,,,,,,,,,,,,,,,,,,,165,4,3.2.2021,166.000176
152,"['low', 1, 'high']",1,white,0.255400344,135,right,down,low,high,black_high_45-white_high_135-white_high_135-black_high_135,white_low_135_down,black_low_45_down,6,1.680538814,0.2467835,right,0.1534758,1,6,6,1,0,1,1,TRUE,FALSE,low_1_mask_high,0.75,-1,3,FALSE,2,,,,,,,,,,,,,,,,,,,165,4,3.2.2021,166.000176
153,"['low', 2, 'low']",2,white,0.282315433,45,left,up,low,low,black_low_135-white_low_135-black_low_45-white_low_45,white_low_45_up,black_low_135_up,12,1.264077572,0.2485436,left,0.4469687,1,12,7,1,0,1,1,TRUE,FALSE,low_2_mask_low,0.75,-1,3,FALSE,3,,,,,,,,,,,,,,,,,,,165,4,3.2.2021,166.000176
154,"['low', 2, 'high']",2,white,0.783635862,135,right,down,low,high,black_high_45-white_high_135-black_high_135-white_high_135,white_low_135_down,black_low_45_down,3,1.697725563,0.2485363,left,0.1605269,0,3,5,1,0,1,1,TRUE,FALSE,low_2_mask_high,0.75,-1,3,TRUE,3,,,,,,,,,,,,,,,,,,,165,4,3.2.2021,166.000176
155,"['low', 2, 'high']",2,white,0.530559518,135,right,up,low,high,white_high_135-black_high_45-white_high_135-black_high_135,white_low_135_up,black_low_45_up,6,1.522612928,0.2485514,right,0.4129897,1,6,6,0,0,1,1,TRUE,FALSE,low_2_mask_high,0.75,-1,3,TRUE,4,,,,,,,,,,,,,,,,,,,165,4,3.2.2021,166.000176
156,"['low', 3, 'low']",3,white,0.45436261,135,right,up,low,low,white_low_135-black_low_135-white_low_45-black_low_45,white_low_135_up,black_low_45_up,10,1.515467298,0.2485919,right,0.354455,1,10,13,1,1,1,1,TRUE,FALSE,low_3_mask_low,0.75,-1,3,FALSE,6,,,,,,,,,,,,,,,,,,,165,4,3.2.2021,166.000176
157,"['low', 1, 'high']",1,black,0.352115074,45,right,down,low,high,white_high_135-black_high_45-black_high_135-white_high_135,black_low_45_down,white_low_135_down,5,1.516418672,0.2485396,right,0.5575682,1,5,7,1,0,1,1,TRUE,FALSE,low_1_mask_high,0.75,-1,3,FALSE,2,,,,,,,,,,,,,,,,,,,165,4,3.2.2021,166.000176
158,"['high', 2, 'high']",2,white,0.95307607,135,right,up,high,high,white_high_135-black_high_135-white_high_135-black_high_45,white_high_135_up,black_high_45_up,18,1.325927805,0.2503176,right,0.3276328,1,18,6,0,0,1,1,TRUE,FALSE,high_2_mask_high,0.75,-1,3,TRUE,5,,,,,,,,,,,,,,,,,,,165,4,3.2.2021,166.000176
159,"['high', 2, 'low']",2,black,0.597605874,45,right,up,high,low,black_low_45-white_low_135-white_low_45-black_low_135,black_high_45_up,white_high_135_up,18,1.01336467,0.2485455,right,0.3580268,1,18,6,0,0,1,1,TRUE,FALSE,high_2_mask_low,0.75,-1,3,TRUE,5,,,,,,,,,,,,,,,,,,,165,4,3.2.2021,166.000176
160,"['med', 3, 'high']",3,white,0.116645534,45,left,down,med,high,black_high_135-white_high_135-white_high_135-black_high_45,white_med_45_down,black_med_135_down,10,1.29662772,0.2502947,left,0.0340386,1,10,14,1,0,1,1,TRUE,FALSE,med_3_mask_high,0.75,-1,3,FALSE,4,,,,,,,,,,,,,,,,,,,165,4,3.2.2021,166.000176
161,"['low', 3, 'low']",3,white,0.864209448,45,left,up,low,low,black_low_135-black_low_45-white_low_135-white_low_45,white_low_45_up,black_low_135_up,9,1.301105658,0.246754,left,0.3814079,1,9,14,1,1,1,1,TRUE,FALSE,low_3_mask_low,0.75,-1,3,FALSE,6,,,,,,,,,,,,,,,,,,,165,4,3.2.2021,166.000176
162,"['low', 2, 'high']",2,white,0.805591814,45,left,down,low,high,black_high_135-white_high_135-white_high_135-black_high_45,white_low_45_down,black_low_135_down,5,1.911578464,0.248558,left,0.0699351,1,5,7,1,0,1,1,TRUE,FALSE,low_2_mask_high,0.75,-1,3,FALSE,4,,,,,,,,,,,,,,,,,,,165,4,3.2.2021,166.000176
163,"['med', 1, 'high']",1,white,0.432361912,135,right,down,med,high,white_high_135-white_high_135-black_high_45-black_high_135,white_med_135_down,black_med_45_down,14,1.883626897,0.2488185,left,0.1693359,0,14,10,1,1,1,1,TRUE,FALSE,med_1_mask_high,0.75,-1,3,TRUE,7,,,,,,,,,,,,,,,,,,,165,4,3.2.2021,166.000176
164,"['med', 2, 'low']",2,white,0.724789714,45,left,down,med,low,white_low_45-black_low_135-white_low_135-black_low_45,white_med_45_down,black_med_135_down,11,1.021655975,0.2485441,left,0.3804912,1,11,5,1,0,1,1,TRUE,FALSE,med_2_mask_low,0.75,-1,3,FALSE,3,,,,,,,,,,,,,,,,,,,165,4,3.2.2021,166.000176
165,"['low', 3, 'high']",3,white,0.800308121,135,right,down,low,high,white_high_135-black_high_135-white_high_135-black_high_45,white_low_135_down,black_low_45_down,7,1.691880926,0.2485365,right,0.2667903,1,7,4,0,0,1,1,TRUE,FALSE,low_3_mask_high,0.75,-1,3,TRUE,4,,,,,,,,,,,,,,,,,,,165,4,3.2.2021,166.000176
166,"['med', 1, 'low']",1,black,0.129296416,135,left,down,med,low,white_low_45-white_low_135-black_low_135-black_low_45,black_med_135_down,white_med_45_down,23,1.820122406,0.2485086,right,2.0877443,0,23,9,1,0,1,1,TRUE,FALSE,med_1_mask_low,0.75,-1,3,TRUE,4,,,,,,,,,,,,,,,,,,,165,4,3.2.2021,166.000176
167,"['med', 2, 'high']",2,white,0.125637673,135,right,up,med,high,white_high_135-black_high_135-white_high_135-black_high_45,white_med_135_up,black_med_45_up,14,1.378216342,0.2485476,right,0.4119735,1,14,10,1,0,1,1,TRUE,FALSE,med_2_mask_high,0.75,-1,3,FALSE,4,,,,,,,,,,,,,,,,,,,165,4,3.2.2021,166.000176
168,"['med', 1, 'high']",1,white,0.238453779,45,left,down,med,high,black_high_135-black_high_45-white_high_135-white_high_135,white_med_45_down,black_med_135_down,17,1.916312728,0.2449834,left,1.5911272,1,17,11,0,1,1,1,TRUE,FALSE,med_1_mask_high,0.75,-1,3,TRUE,8,,,,,,,,,,,,,,,,,,,165,4,3.2.2021,166.000176
169,"['low', 2, 'low']",2,black,0.209120759,135,left,down,low,low,black_low_135-white_low_135-black_low_45-white_low_45,black_low_135_down,white_low_45_down,11,1.437978005,0.246721,left,0.36324,1,11,8,1,0,1,1,TRUE,FALSE,low_2_mask_low,0.75,-1,3,FALSE,3,,,,,,,,,,,,,,,,,,,165,4,3.2.2021,166.000176
170,"['high', 2, 'low']",2,white,0.451641101,45,left,down,high,low,black_low_135-white_low_45-black_low_45-white_low_135,white_high_45_down,black_high_135_down,17,1.538666099,0.2485554,left,0.5400931,1,17,7,1,1,1,1,TRUE,FALSE,high_2_mask_low,0.75,-1,3,FALSE,5,,,,,,,,,,,,,,,,,,,165,4,3.2.2021,166.000176
171,"['med', 2, 'high']",2,black,0.546084121,135,left,up,med,high,white_high_135-black_high_45-white_high_135-black_high_135,black_med_135_up,white_med_45_up,13,1.672969622,0.2488293,right,0.9406676,0,13,11,1,0,1,1,TRUE,FALSE,med_2_mask_high,0.75,-1,3,TRUE,5,,,,,,,,,,,,,,,,,,,165,4,3.2.2021,166.000176
172,"['low', 1, 'low']",1,white,0.667552015,45,left,up,low,low,white_low_45-white_low_135-black_low_45-black_low_135,white_low_45_up,black_low_135_up,1,1.50733669,0.2485564,right,0.7619292,0,1,14,1,0,1,1,TRUE,FALSE,low_1_mask_low,0.75,-1,3,TRUE,3,,,,,,,,,,,,,,,,,,,165,4,3.2.2021,166.000176
173,"['low', 1, 'low']",1,white,0.762712706,135,right,up,low,low,black_low_45-white_low_135-black_low_135-white_low_45,white_low_135_up,black_low_45_up,4,1.525692103,0.2485443,right,0.2857738,1,4,15,0,0,1,1,TRUE,FALSE,low_1_mask_low,0.75,-1,3,TRUE,4,,,,,,,,,,,,,,,,,,,165,4,3.2.2021,166.000176
174,"['high', 2, 'low']",2,white,0.322206196,135,right,up,high,low,black_low_45-white_low_135-white_low_45-black_low_135,white_high_135_up,black_high_45_up,16,1.045767681,0.2485408,right,0.5960183,1,16,8,1,1,1,1,TRUE,FALSE,high_2_mask_low,0.75,-1,3,FALSE,5,,,,,,,,,,,,,,,,,,,165,4,3.2.2021,166.000176
175,"['low', 3, 'low']",3,black,0.494125396,135,left,down,low,low,black_low_45-white_low_45-white_low_135-black_low_135,black_low_135_down,white_low_45_down,8,1.616190731,0.2485579,left,0.1431573,1,8,15,1,1,1,1,TRUE,FALSE,low_3_mask_low,0.75,-1,3,FALSE,6,,,,,,,,,,,,,,,,,,,165,4,3.2.2021,166.000176
176,"['low', 3, 'high']",3,black,0.903374941,135,left,down,low,high,black_high_135-white_high_135-white_high_135-black_high_45,black_low_135_down,white_low_45_down,6,1.630948766,0.2485407,left,0.8230111,1,6,5,1,0,1,1,TRUE,FALSE,low_3_mask_high,0.75,-1,3,FALSE,4,,,,,,,,,,,,,,,,,,,165,4,3.2.2021,166.000176
177,"['med', 2, 'low']",2,black,0.560509109,45,right,down,med,low,black_low_45-black_low_135-white_low_45-white_low_135,black_med_45_down,white_med_135_down,10,1.582498373,0.2485467,left,0.0049957,0,10,6,1,0,1,1,TRUE,FALSE,med_2_mask_low,0.75,-1,3,TRUE,4,,,,,,,,,,,,,,,,,,,165,4,3.2.2021,166.000176
178,"['low', 3, 'low']",3,white,0.195623825,45,left,up,low,low,black_low_45-white_low_135-black_low_135-white_low_45,white_low_45_up,black_low_135_up,7,1.088132188,0.2502942,right,0.1937684,0,7,16,1,1,1,1,TRUE,FALSE,low_3_mask_low,0.75,-1,3,TRUE,7,,,,,,,,,,,,,,,,,,,165,4,3.2.2021,166.000176
179,"['med', 2, 'high']",2,black,0.368992863,135,left,up,med,high,black_high_135-white_high_135-black_high_45-white_high_135,black_med_135_up,white_med_45_up,16,1.314093813,0.2502968,left,0.4130605,1,16,12,0,1,1,1,TRUE,FALSE,med_2_mask_high,0.75,-1,3,TRUE,6,,,,,,,,,,,,,,,,,,,165,4,3.2.2021,166.000176
180,"['low', 1, 'high']",1,white,0.727113168,135,right,down,low,high,black_high_45-black_high_135-white_high_135-white_high_135,white_low_135_down,black_low_45_down,4,1.321086262,0.2502911,left,0.1884353,0,4,8,1,0,1,1,TRUE,FALSE,low_1_mask_high,0.75,-1,3,TRUE,3,,,,,,,,,,,,,,,,,,,165,4,3.2.2021,166.000176
181,"['high', 1, 'low']",1,white,0.122287016,45,left,down,high,low,black_low_135-white_low_45-white_low_135-black_low_45,white_high_45_down,black_high_135_down,16,1.199034628,0.2485549,left,0.3470913,1,16,8,1,0,1,1,TRUE,FALSE,high_1_mask_low,0.75,-1,3,FALSE,3,,,,,,,,,,,,,,,,,,,165,4,3.2.2021,166.000176
182,"['low', 3, 'low']",3,black,0.944565703,135,left,up,low,low,white_low_135-black_low_135-black_low_45-white_low_45,black_low_135_up,white_low_45_up,10,1.980636742,0.2485331,left,0.3693186,1,10,17,0,1,1,1,TRUE,FALSE,low_3_mask_low,0.75,-1,3,TRUE,8,,,,,,,,,,,,,,,,,,,165,4,3.2.2021,166.000176
183,"['med', 3, 'high']",3,black,0.947259446,135,left,down,med,high,white_high_135-white_high_135-black_high_45-black_high_135,black_med_135_down,white_med_45_down,9,1.124721664,0.2485429,right,0.4755957,0,9,15,1,0,1,1,TRUE,FALSE,med_3_mask_high,0.75,-1,3,TRUE,5,,,,,,,,,,,,,,,,,,,165,4,3.2.2021,166.000176
184,"['high', 1, 'high']",1,black,0.060291137,45,right,down,high,high,black_high_45-white_high_135-white_high_135-black_high_135,black_high_45_down,white_high_135_down,18,1.553640564,0.2485465,left,0.3848671,0,18,6,1,0,1,1,TRUE,FALSE,high_1_mask_high,0.75,-1,3,TRUE,4,,,,,,,,,,,,,,,,,,,165,4,3.2.2021,166.000176
185,"['high', 3, 'low']",3,white,0.475654119,45,left,down,high,low,black_low_45-white_low_135-white_low_45-black_low_135,white_high_45_down,black_high_135_down,10,1.429998848,0.2467827,left,0.3566796,1,10,10,1,0,1,1,TRUE,FALSE,high_3_mask_low,0.75,-1,3,FALSE,4,,,,,,,,,,,,,,,,,,,165,4,3.2.2021,166.000176
186,"['low', 2, 'high']",2,white,0.367745195,45,left,up,low,high,black_high_45-white_high_135-white_high_135-black_high_135,white_low_45_up,black_low_135_up,4,1.40749358,0.2485532,left,0.589738,1,4,8,1,0,1,1,TRUE,FALSE,low_2_mask_high,0.75,-1,3,FALSE,4,,,,,,,,,,,,,,,,,,,165,4,3.2.2021,166.000176
187,"['low', 1, 'low']",1,black,0.748374028,135,left,up,low,low,black_low_135-white_low_45-white_low_135-black_low_45,black_low_135_up,white_low_45_up,3,1.404438104,0.2485505,right,0.0879984,0,3,16,1,0,1,1,TRUE,FALSE,low_1_mask_low,0.75,-1,3,TRUE,5,,,,,,,,,,,,,,,,,,,165,4,3.2.2021,166.000176
188,"['high', 1, 'high']",1,white,0.45166478,45,left,down,high,high,black_high_45-black_high_135-white_high_135-white_high_135,white_high_45_down,black_high_135_down,21,1.818720148,0.2485475,left,0.0766539,1,21,7,0,0,1,1,TRUE,FALSE,high_1_mask_high,0.75,-1,3,TRUE,5,,,,,,,,,,,,,,,,,,,165,4,3.2.2021,166.000176
189,"['med', 1, 'high']",1,black,0.85546204,135,left,down,med,high,black_high_45-black_high_135-white_high_135-white_high_135,black_med_135_down,white_med_45_down,16,1.907487782,0.2450479,left,0.4381087,1,16,12,1,1,1,1,TRUE,FALSE,med_1_mask_high,0.75,-1,3,FALSE,8,,,,,,,,,,,,,,,,,,,165,4,3.2.2021,166.000176
190,"['high', 2, 'low']",2,white,0.715255406,135,right,down,high,low,white_low_45-black_low_135-black_low_45-white_low_135,white_high_135_down,black_high_45_down,15,1.479247629,0.2485428,right,0.0978958,1,15,9,1,1,1,1,TRUE,FALSE,high_2_mask_low,0.75,-1,3,FALSE,5,,,,,,,,,,,,,,,,,,,165,4,3.2.2021,166.000176
191,"['med', 3, 'high']",3,white,0.267534511,45,left,up,med,high,white_high_135-white_high_135-black_high_45-black_high_135,white_med_45_up,black_med_135_up,12,1.541564,0.2485498,left,0.098914,1,12,16,0,1,1,1,TRUE,FALSE,med_3_mask_high,0.75,-1,3,TRUE,6,,,,,,,,,,,,,,,,,,,165,4,3.2.2021,166.000176
192,"['med', 2, 'high']",2,black,0.083525311,135,left,up,med,high,black_high_135-black_high_45-white_high_135-white_high_135,black_med_135_up,white_med_45_up,15,1.08606071,0.2485474,left,0.3075746,1,15,13,1,1,1,1,TRUE,FALSE,med_2_mask_high,0.75,-1,3,FALSE,6,,,,,,,,,,,,,,,,,,,165,4,3.2.2021,166.000176
193,"['med', 3, 'low']",3,black,0.828961696,45,right,down,med,low,black_low_45-white_low_45-white_low_135-black_low_135,black_med_45_down,white_med_135_down,17,1.633110951,0.2485417,right,0.1291024,1,17,11,1,1,1,1,TRUE,FALSE,med_3_mask_low,0.75,-1,3,FALSE,6,,,,,,,,,,,,,,,,,,,165,4,3.2.2021,166.000176
194,"['low', 3, 'low']",3,black,0.474069715,135,left,down,low,low,black_low_45-black_low_135-white_low_45-white_low_135,black_low_135_down,white_low_45_down,9,1.205465937,0.2502885,left,0.3885736,1,9,18,1,1,1,1,TRUE,FALSE,low_3_mask_low,0.75,-1,3,FALSE,8,,,,,,,,,,,,,,,,,,,165,4,3.2.2021,166.000176
195,"['med', 3, 'high']",3,white,0.861789762,135,right,up,med,high,white_high_135-white_high_135-black_high_135-black_high_45,white_med_135_up,black_med_45_up,11,1.717680923,0.248543,right,0.0699599,1,11,17,1,1,1,1,TRUE,FALSE,med_3_mask_high,0.75,-1,3,FALSE,6,,,,,,,,,,,,,,,,,,,165,4,3.2.2021,166.000176
196,"['low', 1, 'high']",1,black,0.92501339,45,right,up,low,high,white_high_135-white_high_135-black_high_45-black_high_135,black_low_45_up,white_low_135_up,7,1.648448566,0.2450408,right,0.9620572,1,7,9,0,0,1,1,TRUE,FALSE,low_1_mask_high,0.75,-1,3,TRUE,4,,,,,,,,,,,,,,,,,,,165,4,3.2.2021,166.000176
197,"['high', 1, 'high']",1,black,0.68458424,135,left,up,high,high,white_high_135-black_high_45-black_high_135-white_high_135,black_high_135_up,white_high_45_up,20,1.494665832,0.2485502,right,0.4134461,0,20,8,1,1,1,1,TRUE,FALSE,high_1_mask_high,0.75,-1,3,TRUE,6,,,,,,,,,,,,,,,,,,,165,4,3.2.2021,166.000176
198,"['med', 1, 'low']",1,white,0.711168496,135,right,up,med,low,black_low_45-white_low_135-black_low_135-white_low_45,white_med_135_up,black_med_45_up,26,1.171552538,0.2485678,right,0.546705,1,26,10,0,0,1,1,TRUE,FALSE,med_1_mask_low,0.75,-1,3,TRUE,5,,,,,,,,,,,,,,,,,,,165,4,3.2.2021,166.000176
199,"['med', 1, 'low']",1,black,0.148623516,45,right,up,med,low,white_low_45-black_low_135-white_low_135-black_low_45,black_med_45_up,white_med_135_up,25,1.54231775,0.2488209,right,1.1015024,1,25,11,1,1,1,1,TRUE,FALSE,med_1_mask_low,0.75,-1,3,FALSE,5,,,,,,,,,,,,,,,,,,,165,4,3.2.2021,166.000176
200,"['low', 2, 'low']",2,black,0.062401437,45,right,down,low,low,black_low_45-white_low_135-black_low_135-white_low_45,black_low_45_down,white_low_135_down,10,1.500482345,0.2503289,left,0.3430408,0,10,9,1,0,1,1,TRUE,FALSE,low_2_mask_low,0.75,-1,3,TRUE,4,,,,,,,,,,,,,,,,,,,165,4,3.2.2021,166.000176
201,"['high', 2, 'low']",2,white,0.816165391,45,left,up,high,low,white_low_45-black_low_45-white_low_135-black_low_135,white_high_45_up,black_high_135_up,14,1.324704089,0.2488166,left,0.3317377,1,14,10,1,1,1,1,TRUE,FALSE,high_2_mask_low,0.75,-1,3,FALSE,5,,,,,,,,,,,,,,,,,,,165,4,3.2.2021,166.000176
202,"['high', 1, 'high']",1,black,0.163443447,135,left,down,high,high,white_high_135-black_high_135-white_high_135-black_high_45,black_high_135_down,white_high_45_down,23,1.032732115,0.2485486,right,0.2885407,0,23,9,0,1,1,1,TRUE,FALSE,high_1_mask_high,0.75,-1,3,FALSE,6,,,,,,,,,,,,,,,,,,,165,4,3.2.2021,166.000176
203,"['low', 3, 'low']",3,black,0.436463966,45,right,down,low,low,black_low_45-white_low_135-white_low_45-black_low_135,black_low_45_down,white_low_135_down,8,1.334880066,0.2485593,right,0.3750591,1,8,19,1,1,1,1,TRUE,FALSE,low_3_mask_low,0.75,-1,3,FALSE,8,,,,,,,,,,,,,,,,,,,165,4,3.2.2021,166.000176
204,"['low', 1, 'low']",1,black,0.823265333,135,left,up,low,low,black_low_135-black_low_45-white_low_135-white_low_45,black_low_135_up,white_low_45_up,6,1.67804414,0.2467769,right,0.3298364,0,6,17,0,1,1,1,TRUE,FALSE,low_1_mask_low,0.75,-1,3,FALSE,5,,,,,,,,,,,,,,,,,,,165,4,3.2.2021,166.000176
205,"['high', 1, 'high']",1,black,0.632378673,45,right,down,high,high,black_high_45-white_high_135-black_high_135-white_high_135,black_high_45_down,white_high_135_down,26,1.976356537,0.2485465,right,3.6508545,1,26,10,0,1,1,1,TRUE,FALSE,high_1_mask_high,0.75,-1,3,TRUE,7,,,,,,,,,,,,,,,,,,,165,4,3.2.2021,166.000176
206,"['low', 2, 'high']",2,white,0.18836059,45,left,up,low,high,white_high_135-white_high_135-black_high_135-black_high_45,white_low_45_up,black_low_135_up,3,1.928921268,0.2466928,right,1.0293247,0,3,9,1,0,1,1,TRUE,FALSE,low_2_mask_high,0.75,-1,3,TRUE,5,,,,,,,,,,,,,,,,,,,165,4,3.2.2021,166.000176
207,"['high', 2, 'low']",2,white,0.994274488,135,right,up,high,low,white_low_135-black_low_135-black_low_45-white_low_45,white_high_135_up,black_high_45_up,13,1.225548433,0.24883,right,0.642209,1,13,11,1,1,1,1,TRUE,FALSE,high_2_mask_low,0.75,-1,3,FALSE,5,,,,,,,,,,,,,,,,,,,165,4,3.2.2021,166.000176
208,"['med', 1, 'high']",1,black,0.601120652,135,left,up,med,high,black_high_135-black_high_45-white_high_135-white_high_135,black_med_135_up,white_med_45_up,15,1.216968953,0.2450444,right,0.2034532,0,15,13,1,1,1,1,TRUE,FALSE,med_1_mask_high,0.75,-1,3,TRUE,9,,,,,,,,,,,,,,,,,,,165,4,3.2.2021,166.000176
209,"['med', 3, 'high']",3,white,0.099848955,135,right,up,med,high,white_high_135-black_high_45-black_high_135-white_high_135,white_med_135_up,black_med_45_up,10,1.483794989,0.2485455,right,0.8503496,1,10,18,1,1,1,1,TRUE,FALSE,med_3_mask_high,0.75,-1,3,FALSE,6,,,,,,,,,,,,,,,,,,,165,4,3.2.2021,166.000176
210,"['high', 2, 'high']",2,white,0.274178331,135,right,up,high,high,black_high_135-white_high_135-black_high_45-white_high_135,white_high_135_up,black_high_45_up,17,1.214451956,0.2485527,right,0.290215,1,17,7,1,1,1,1,TRUE,FALSE,high_2_mask_high,0.75,-1,3,FALSE,5,,,,,,,,,,,,,,,,,,,165,4,3.2.2021,166.000176
211,"['med', 3, 'low']",3,black,0.489951282,135,left,down,med,low,white_low_45-black_low_45-white_low_135-black_low_135,black_med_135_down,white_med_45_down,16,1.725991961,0.2485573,right,0.2083075,0,16,12,1,1,1,1,TRUE,FALSE,med_3_mask_low,0.75,-1,3,TRUE,7,,,,,,,,,,,,,,,,,,,165,4,3.2.2021,166.000176
212,"['high', 1, 'high']",1,black,0.979460324,45,right,up,high,high,white_high_135-black_high_45-white_high_135-black_high_135,black_high_45_up,white_high_135_up,25,1.991798073,0.2488153,right,1.0691814,1,25,11,1,1,1,1,TRUE,FALSE,high_1_mask_high,0.75,-1,3,FALSE,7,,,,,,,,,,,,,,,,,,,165,4,3.2.2021,166.000176
213,"['high', 1, 'high']",1,white,0.03746657,135,right,up,high,high,black_high_135-white_high_135-black_high_45-white_high_135,white_high_135_up,black_high_45_up,24,1.477349414,0.2485335,right,0.3141867,1,24,12,1,1,1,1,TRUE,FALSE,high_1_mask_high,0.75,-1,3,FALSE,7,,,,,,,,,,,,,,,,,,,165,4,3.2.2021,166.000176
214,"['high', 3, 'high']",3,black,0.93046535,135,left,up,high,high,black_high_135-black_high_45-white_high_135-white_high_135,black_high_135_up,white_high_45_up,12,1.984945038,0.2482933,right,0.3240814,0,12,8,1,1,1,1,TRUE,FALSE,high_3_mask_high,0.75,-1,3,TRUE,6,,,,,,,,,,,,,,,,,,,165,4,3.2.2021,166.000176
215,"['high', 3, 'low']",3,white,0.488855056,45,left,up,high,low,white_low_45-black_low_135-black_low_45-white_low_135,white_high_45_up,black_high_135_up,9,1.787179574,0.2485464,left,0.0955881,1,9,11,1,0,1,1,TRUE,FALSE,high_3_mask_low,0.75,-1,3,FALSE,4,,,,,,,,,,,,,,,,,,,165,4,3.2.2021,166.000176
216,"['high', 1, 'low']",1,white,0.450430806,45,left,down,high,low,white_low_45-white_low_135-black_low_135-black_low_45,white_high_45_down,black_high_135_down,15,1.658361775,0.2467691,left,0.5156832,1,15,9,1,0,1,1,TRUE,FALSE,high_1_mask_low,0.75,-1,3,FALSE,3,,,,,,,,,,,,,,,,,,,165,4,3.2.2021,166.000176
217,"['med', 2, 'low']",2,white,0.21278663,135,right,down,med,low,white_low_45-black_low_135-white_low_135-black_low_45,white_med_135_down,black_med_45_down,13,1.949419375,0.248554,right,0.0548152,1,13,7,0,0,1,1,TRUE,FALSE,med_2_mask_low,0.75,-1,3,TRUE,5,,,,,,,,,,,,,,,,,,,165,4,3.2.2021,166.000176
218,"['high', 1, 'high']",1,white,0.492993817,135,right,down,high,high,white_high_135-black_high_135-black_high_45-white_high_135,white_high_135_down,black_high_45_down,23,1.422337097,0.2485482,right,0.4228095,1,23,13,1,1,1,1,TRUE,FALSE,high_1_mask_high,0.75,-1,3,FALSE,7,,,,,,,,,,,,,,,,,,,165,4,3.2.2021,166.000176
219,"['med', 1, 'low']",1,black,0.334109618,135,left,down,med,low,black_low_135-white_low_45-black_low_45-white_low_135,black_med_135_down,white_med_45_down,24,1.597354884,0.2485107,right,1.728979,0,24,12,1,1,1,1,TRUE,FALSE,med_1_mask_low,0.75,-1,3,TRUE,6,,,,,,,,,,,,,,,,,,,165,4,3.2.2021,166.000176
220,"['high', 3, 'high']",3,white,0.060262107,45,left,up,high,high,white_high_135-black_high_45-black_high_135-white_high_135,white_high_45_up,black_high_135_up,15,1.743846232,0.2485451,left,0.5908555,1,15,9,0,1,1,1,TRUE,FALSE,high_3_mask_high,0.75,-1,3,TRUE,7,,,,,,,,,,,,,,,,,,,165,4,3.2.2021,166.000176
221,"['high', 1, 'high']",1,white,0.536871933,135,right,up,high,high,white_high_135-black_high_135-white_high_135-black_high_45,white_high_135_up,black_high_45_up,22,1.042634448,0.2488213,right,0.1784902,1,22,14,1,1,1,1,TRUE,FALSE,high_1_mask_high,0.75,-1,3,FALSE,7,,,,,,,,,,,,,,,,,,,165,4,3.2.2021,166.000176
222,"['high', 1, 'high']",1,black,0.053387955,135,left,up,high,high,white_high_135-black_high_135-black_high_45-white_high_135,black_high_135_up,white_high_45_up,21,1.493702051,0.2485464,right,0.130096,0,21,15,1,1,1,1,TRUE,FALSE,high_1_mask_high,0.75,-1,3,TRUE,8,,,,,,,,,,,,,,,,,,,165,4,3.2.2021,166.000176
223,"['high', 3, 'high']",3,white,0.946365401,45,left,up,high,high,white_high_135-white_high_135-black_high_135-black_high_45,white_high_45_up,black_high_135_up,14,1.011072035,0.2485497,left,0.342644,1,14,10,1,1,1,1,TRUE,FALSE,high_3_mask_high,0.75,-1,3,FALSE,7,,,,,,,,,,,,,,,,,,,165,4,3.2.2021,166.000176
224,"['med', 3, 'low']",3,white,0.380509319,135,right,down,med,low,white_low_135-black_low_135-black_low_45-white_low_45,white_med_135_down,black_med_45_down,19,1.287219666,0.2502844,right,0.2365047,1,19,13,0,1,1,1,TRUE,FALSE,med_3_mask_low,0.75,-1,3,TRUE,8,,,,,,,,,,,,,,,,,,,165,4,3.2.2021,166.000176
225,"['high', 1, 'low']",1,black,0.958728386,135,left,up,high,low,black_low_135-white_low_45-black_low_45-white_low_135,black_high_135_up,white_high_45_up,14,1.214845033,0.2485454,right,0.1221392,0,14,10,1,0,1,1,TRUE,FALSE,high_1_mask_low,0.75,-1,3,TRUE,4,,,,,,,,,,,,,,,,,,,165,4,3.2.2021,166.000176
226,"['med', 2, 'high']",2,white,0.371869141,135,right,down,med,high,white_high_135-black_high_135-white_high_135-black_high_45,white_med_135_down,black_med_45_down,14,1.746077125,0.2485493,right,0.2456542,1,14,14,1,1,1,1,TRUE,FALSE,med_2_mask_high,0.75,-1,3,FALSE,6,,,,,,,,,,,,,,,,,,,165,4,3.2.2021,166.000176
227,"['high', 3, 'low']",3,white,0.873187779,135,right,down,high,low,white_low_45-white_low_135-black_low_45-black_low_135,white_high_135_down,black_high_45_down,8,1.537966729,0.2465534,right,0.0937074,1,8,12,1,0,1,1,TRUE,FALSE,high_3_mask_low,0.75,-1,3,FALSE,4,,,,,,,,,,,,,,,,,,,165,4,3.2.2021,166.000176
228,"['high', 2, 'low']",2,black,0.774149031,45,right,down,high,low,white_low_45-white_low_135-black_low_135-black_low_45,black_high_45_down,white_high_135_down,12,1.955948219,0.2485474,right,0.0928203,1,12,12,1,1,1,1,TRUE,FALSE,high_2_mask_low,0.75,-1,3,FALSE,5,,,,,,,,,,,,,,,,,,,165,4,3.2.2021,166.000176
229,"['med', 3, 'low']",3,black,0.678227411,135,left,up,med,low,white_low_135-white_low_45-black_low_135-black_low_45,black_med_135_up,white_med_45_up,18,1.341338965,0.2485392,left,0.2394507,1,18,14,1,1,1,1,TRUE,FALSE,med_3_mask_low,0.75,-1,3,FALSE,8,,,,,,,,,,,,,,,,,,,165,4,3.2.2021,166.000176
230,"['high', 1, 'low']",1,white,0.62717159,135,right,down,high,low,white_low_45-black_low_45-black_low_135-white_low_135,white_high_135_down,black_high_45_down,17,1.957722566,0.2485527,right,0.0499474,1,17,11,0,0,1,1,TRUE,FALSE,high_1_mask_low,0.75,-1,3,TRUE,5,,,,,,,,,,,,,,,,,,,165,4,3.2.2021,166.000176
231,"['high', 1, 'low']",1,black,0.839083039,135,left,up,high,low,white_low_135-white_low_45-black_low_135-black_low_45,black_high_135_up,white_high_45_up,16,1.7354106,0.2488232,right,0.047126,0,16,12,1,1,1,1,TRUE,FALSE,high_1_mask_low,0.75,-1,3,TRUE,6,,,,,,,,,,,,,,,,,,,165,4,3.2.2021,166.000176
232,"['high', 3, 'high']",3,white,0.042991064,45,left,down,high,high,black_high_135-white_high_135-black_high_45-white_high_135,white_high_45_down,black_high_135_down,13,1.985802262,0.2467741,left,0.5494219,1,13,11,1,1,1,1,TRUE,FALSE,high_3_mask_high,0.75,-1,3,FALSE,7,,,,,,,,,,,,,,,,,,,165,4,3.2.2021,166.000176
233,"['med', 1, 'high']",1,black,0.893996774,135,left,up,med,high,white_high_135-black_high_45-white_high_135-black_high_135,black_med_135_up,white_med_45_up,18,1.865695029,0.248546,right,0.0262201,0,18,14,0,1,1,1,TRUE,FALSE,med_1_mask_high,0.75,-1,3,FALSE,9,,,,,,,,,,,,,,,,,,,165,4,3.2.2021,166.000176
234,"['med', 3, 'high']",3,black,0.061624427,45,right,up,med,high,black_high_45-white_high_135-black_high_135-white_high_135,black_med_45_up,white_med_135_up,9,1.774319324,0.2485601,right,0.1021814,1,9,19,1,1,1,1,TRUE,FALSE,med_3_mask_high,0.75,-1,3,FALSE,6,,,,,,,,,,,,,,,,,,,165,4,3.2.2021,166.000176
235,"['high', 1, 'high']",1,black,0.932376436,45,right,down,high,high,black_high_135-black_high_45-white_high_135-white_high_135,black_high_45_down,white_high_135_down,24,1.413565003,0.2485556,left,0.3983504,0,24,16,0,1,1,1,TRUE,FALSE,high_1_mask_high,0.75,-1,3,FALSE,8,,,,,,,,,,,,,,,,,,,165,4,3.2.2021,166.000176
236,"['high', 3, 'low']",3,white,0.559240996,45,left,down,high,low,black_low_135-white_low_45-white_low_135-black_low_45,white_high_45_down,black_high_135_down,7,1.75606307,0.2485488,left,0.1246876,1,7,13,1,0,1,1,TRUE,FALSE,high_3_mask_low,0.75,-1,3,FALSE,4,,,,,,,,,,,,,,,,,,,165,4,3.2.2021,166.000176
237,"['high', 3, 'high']",3,white,0.626233999,135,right,up,high,high,black_high_45-white_high_135-black_high_135-white_high_135,white_high_135_up,black_high_45_up,12,1.306738898,0.2467735,right,0.5254279,1,12,12,1,1,1,1,TRUE,FALSE,high_3_mask_high,0.75,-1,3,FALSE,7,,,,,,,,,,,,,,,,,,,165,4,3.2.2021,166.000176
238,"['med', 2, 'high']",2,white,0.048117651,45,left,up,med,high,black_high_45-white_high_135-black_high_135-white_high_135,white_med_45_up,black_med_135_up,13,1.336594617,0.2467783,left,0.0263217,1,13,15,1,1,1,1,TRUE,FALSE,med_2_mask_high,0.75,-1,3,FALSE,6,,,,,,,,,,,,,,,,,,,165,4,3.2.2021,166.000176
239,"['high', 3, 'low']",3,black,0.396071983,135,left,up,high,low,black_low_135-white_low_45-black_low_45-white_low_135,black_high_135_up,white_high_45_up,6,1.880042363,0.2485523,right,0.0531331,0,6,14,1,0,1,1,TRUE,FALSE,high_3_mask_low,0.75,-1,3,TRUE,5,,,,,,,,,,,,,,,,,,,165,4,3.2.2021,166.000176
240,"['high', 2, 'high']",2,black,0.932716491,45,right,down,high,high,black_high_135-white_high_135-black_high_45-white_high_135,black_high_45_down,white_high_135_down,16,1.809034875,0.2485422,right,0.2748217,1,16,8,1,1,1,1,TRUE,FALSE,high_2_mask_high,0.75,-1,3,FALSE,5,,,,,,,,,,,,,,,,,,,165,4,3.2.2021,166.000176
241,"['med', 2, 'high']",2,white,0.377908492,45,left,down,med,high,white_high_135-white_high_135-black_high_45-black_high_135,white_med_45_down,black_med_135_down,12,1.541446667,0.2485475,left,0.4887339,1,12,16,1,1,1,1,TRUE,FALSE,med_2_mask_high,0.75,-1,3,FALSE,6,,,,,,,,,,,,,,,,,,,165,4,3.2.2021,166.000176
242,"['med', 2, 'high']",2,black,0.586446678,45,right,down,med,high,white_high_135-black_high_135-white_high_135-black_high_45,black_med_45_down,white_med_135_down,11,1.327714998,0.2488373,right,0.3460295,1,11,17,1,1,1,1,TRUE,FALSE,med_2_mask_high,0.75,-1,3,FALSE,6,,,,,,,,,,,,,,,,,,,165,4,3.2.2021,166.000176
243,"['high', 2, 'high']",2,black,0.72581012,45,right,up,high,high,white_high_135-black_high_135-white_high_135-black_high_45,black_high_45_up,white_high_135_up,15,1.877964546,0.2485493,right,0.2782244,1,15,9,1,1,1,1,TRUE,FALSE,high_2_mask_high,0.75,-1,3,FALSE,5,,,,,,,,,,,,,,,,,,,165,4,3.2.2021,166.000176
244,"['low', 1, 'high']",1,white,0.458178625,45,left,down,low,high,white_high_135-black_high_135-white_high_135-black_high_45,white_low_45_down,black_low_135_down,6,1.628962022,0.2485457,left,0.1484517,1,6,10,1,0,1,1,TRUE,FALSE,low_1_mask_high,0.75,-1,3,FALSE,4,,,,,,,,,,,,,,,,,,,165,4,3.2.2021,166.000176
245,"['low', 1, 'low']",1,black,0.671393328,135,left,up,low,low,black_low_45-black_low_135-white_low_135-white_low_45,black_low_135_up,white_low_45_up,9,1.541137583,0.2470342,left,0.3377024,1,9,18,0,1,1,1,TRUE,FALSE,low_1_mask_low,0.75,-1,3,TRUE,6,,,,,,,,,,,,,,,,,,,165,4,3.2.2021,166.000176
246,"['high', 2, 'low']",2,black,0.364500302,135,left,up,high,low,black_low_45-white_low_135-black_low_135-white_low_45,black_high_135_up,white_high_45_up,11,1.151654696,0.2485514,right,0.5998191,0,11,13,1,1,1,1,TRUE,FALSE,high_2_mask_low,0.75,-1,3,TRUE,6,,,,,,,,,,,,,,,,,,,165,4,3.2.2021,166.000176
247,"['med', 2, 'high']",2,white,0.629034755,45,left,down,med,high,white_high_135-black_high_45-black_high_135-white_high_135,white_med_45_down,black_med_135_down,10,1.859769091,0.2485435,left,0.4568035,1,10,18,1,1,1,1,TRUE,FALSE,med_2_mask_high,0.75,-1,3,FALSE,6,,,,,,,,,,,,,,,,,,,165,4,3.2.2021,166.000176
248,"['low', 2, 'high']",2,black,0.872374559,135,left,up,low,high,black_high_45-white_high_135-white_high_135-black_high_135,black_low_135_up,white_low_45_up,6,1.057480679,0.2485466,left,0.1721147,1,6,10,0,1,1,1,TRUE,FALSE,low_2_mask_high,0.75,-1,3,TRUE,6,,,,,,,,,,,,,,,,,,,165,4,3.2.2021,166.000176
249,"['low', 3, 'high']",3,white,0.127176366,45,left,down,low,high,black_high_45-black_high_135-white_high_135-white_high_135,white_low_45_down,black_low_135_down,5,1.703594355,0.2467858,left,0.367611,1,5,6,1,0,1,1,TRUE,FALSE,low_3_mask_high,0.75,-1,3,FALSE,4,,,,,,,,,,,,,,,,,,,165,4,3.2.2021,166.000176
250,"['high', 1, 'low']",1,white,0.34088625,135,right,up,high,low,black_low_45-black_low_135-white_low_45-white_low_135,white_high_135_up,black_high_45_up,19,1.387370391,0.2503004,right,0.2203299,1,19,13,0,1,1,1,TRUE,FALSE,high_1_mask_low,0.75,-1,3,TRUE,7,,,,,,,,,,,,,,,,,,,165,4,3.2.2021,166.000176
251,"['high', 1, 'low']",1,black,0.101496428,45,right,down,high,low,black_low_45-white_low_135-black_low_135-white_low_45,black_high_45_down,white_high_135_down,18,1.374108238,0.2485241,left,0.7749616,0,18,14,1,1,1,1,TRUE,FALSE,high_1_mask_low,0.75,-1,3,TRUE,8,,,,,,,,,,,,,,,,,,,165,4,3.2.2021,166.000176
252,"['med', 2, 'high']",2,black,0.48029349,135,left,down,med,high,black_high_135-white_high_135-black_high_45-white_high_135,black_med_135_down,white_med_45_down,9,1.743210426,0.2485124,right,0.080228,0,9,19,1,1,1,1,TRUE,FALSE,med_2_mask_high,0.75,-1,3,TRUE,7,,,,,,,,,,,,,,,,,,,165,4,3.2.2021,166.000176
253,"['med', 3, 'high']",3,white,0.43580918,45,left,down,med,high,black_high_135-white_high_135-white_high_135-black_high_45,white_med_45_down,black_med_135_down,8,1.414782653,0.2485493,left,0.009162,1,8,20,1,1,1,1,TRUE,FALSE,med_3_mask_high,0.75,-1,3,FALSE,6,,,,,,,,,,,,,,,,,,,165,4,3.2.2021,166.000176
254,"['high', 3, 'low']",3,black,0.061613693,135,left,down,high,low,white_low_45-white_low_135-black_low_45-black_low_135,black_high_135_down,white_high_45_down,9,1.0957604,0.2485463,left,0.3660844,1,9,15,0,1,1,1,TRUE,FALSE,high_3_mask_low,0.75,-1,3,TRUE,6,,,,,,,,,,,,,,,,,,,165,4,3.2.2021,166.000176
255,"['low', 1, 'high']",1,black,0.973239135,45,right,up,low,high,black_high_45-white_high_135-white_high_135-black_high_135,black_low_45_up,white_low_135_up,5,1.710089261,0.2485484,left,0.2126881,0,5,11,1,0,1,1,TRUE,FALSE,low_1_mask_high,0.75,-1,3,TRUE,5,,,,,,,,,,,,,,,,,,,165,4,3.2.2021,166.000176
256,"['med', 3, 'low']",3,white,0.232803787,135,right,down,med,low,black_low_135-black_low_45-white_low_135-white_low_45,white_med_135_down,black_med_45_down,17,1.696073263,0.2485371,left,0.2639502,0,17,15,1,1,1,1,TRUE,FALSE,med_3_mask_low,0.75,-1,3,TRUE,9,,,,,,,,,,,,,,,,,,,165,4,3.2.2021,166.000176
257,"['med', 3, 'high']",3,white,0.117530143,45,left,up,med,high,black_high_135-black_high_45-white_high_135-white_high_135,white_med_45_up,black_med_135_up,7,1.020371055,0.248553,left,0.4779797,1,7,21,1,1,1,1,TRUE,FALSE,med_3_mask_high,0.75,-1,3,FALSE,6,,,,,,,,,,,,,,,,,,,165,4,3.2.2021,166.000176
258,"['med', 1, 'low']",1,black,0.549275412,45,right,down,med,low,white_low_135-black_low_45-white_low_45-black_low_135,black_med_45_down,white_med_135_down,27,1.434063381,0.250293,left,0.794927,0,27,13,0,1,1,1,TRUE,FALSE,med_1_mask_low,0.75,-1,3,FALSE,6,,,,,,,,,,,,,,,,,,,165,4,3.2.2021,166.000176
259,"['low', 2, 'low']",2,black,0.109267605,45,right,up,low,low,black_low_45-black_low_135-white_low_45-white_low_135,black_low_45_up,white_low_135_up,13,1.36906858,0.2485483,left,0.3521666,0,13,10,0,0,1,1,TRUE,FALSE,low_2_mask_low,0.75,-1,3,FALSE,4,,,,,,,,,,,,,,,,,,,165,4,3.2.2021,166.000176
260,"['high', 3, 'high']",3,white,0.648539416,45,left,down,high,high,white_high_135-black_high_135-white_high_135-black_high_45,white_high_45_down,black_high_135_down,11,1.834110259,0.2485408,left,0.3506618,1,11,13,1,1,1,1,TRUE,FALSE,high_3_mask_high,0.75,-1,3,FALSE,7,,,,,,,,,,,,,,,,,,,165,4,3.2.2021,166.000176
261,"['high', 2, 'high']",2,black,0.777300346,45,right,down,high,high,white_high_135-white_high_135-black_high_135-black_high_45,black_high_45_down,white_high_135_down,14,1.054964407,0.2467825,left,0.110225,0,14,10,1,1,1,1,TRUE,FALSE,high_2_mask_high,0.75,-1,3,TRUE,6,,,,,,,,,,,,,,,,,,,165,4,3.2.2021,166.000176
262,"['low', 3, 'high']",3,black,0.442563319,135,left,up,low,high,black_high_135-white_high_135-black_high_45-white_high_135,black_low_135_up,white_low_45_up,4,1.35957974,0.2485515,right,0.3876302,0,4,7,1,0,1,1,TRUE,FALSE,low_3_mask_high,0.75,-1,3,TRUE,5,,,,,,,,,,,,,,,,,,,165,4,3.2.2021,166.000176
263,"['med', 1, 'high']",1,white,0.995224488,45,left,up,med,high,black_high_135-white_high_135-black_high_45-white_high_135,white_med_45_up,black_med_135_up,21,1.888464448,0.2485427,left,0.530232,1,21,15,0,1,1,1,TRUE,FALSE,med_1_mask_high,0.75,-1,3,TRUE,10,,,,,,,,,,,,,,,,,,,165,4,3.2.2021,166.000176
264,"['low', 1, 'high']",1,black,0.266766225,45,right,up,low,high,white_high_135-white_high_135-black_high_45-black_high_135,black_low_45_up,white_low_135_up,8,1.016154874,0.2469399,right,0.5782621,1,8,12,0,1,1,1,TRUE,FALSE,low_1_mask_high,0.75,-1,3,TRUE,6,,,,,,,,,,,,,,,,,,,165,4,3.2.2021,166.000176
265,"['med', 3, 'high']",3,white,0.509556429,45,left,up,med,high,white_high_135-black_high_135-white_high_135-black_high_45,white_med_45_up,black_med_135_up,6,1.249475258,0.2488211,right,0.8793999,0,6,22,1,1,1,1,TRUE,FALSE,med_3_mask_high,0.75,-1,3,TRUE,7,,,,,,,,,,,,,,,,,,,165,4,3.2.2021,166.000176
266,"['high', 1, 'high']",1,white,0.112362525,45,left,down,high,high,black_high_135-white_high_135-white_high_135-black_high_45,white_high_45_down,black_high_135_down,27,1.765550179,0.2485648,left,0.3894561,1,27,17,0,1,1,1,TRUE,FALSE,high_1_mask_high,0.75,-1,3,TRUE,9,,,,,,,,,,,,,,,,,,,165,4,3.2.2021,166.000176
267,"['med', 1, 'low']",1,white,0.834040324,45,left,down,med,low,black_low_135-white_low_135-black_low_45-white_low_45,white_med_45_down,black_med_135_down,30,1.402965499,0.2467846,left,0.213881,1,30,14,0,1,1,1,TRUE,FALSE,med_1_mask_low,0.75,-1,3,TRUE,7,,,,,,,,,,,,,,,,,,,165,4,3.2.2021,166.000176
268,"['high', 3, 'high']",3,black,0.703652659,135,left,down,high,high,white_high_135-black_high_135-white_high_135-black_high_45,black_high_135_down,white_high_45_down,10,1.659500068,0.2485425,left,0.2578268,1,10,14,1,1,1,1,TRUE,FALSE,high_3_mask_high,0.75,-1,3,FALSE,7,,,,,,,,,,,,,,,,,,,165,4,3.2.2021,166.000176
269,"['high', 3, 'low']",3,white,0.357832228,45,left,down,high,low,white_low_45-black_low_135-white_low_135-black_low_45,white_high_45_down,black_high_135_down,8,1.272871702,0.2485399,left,0.4382968,1,8,16,1,1,1,1,TRUE,FALSE,high_3_mask_low,0.75,-1,3,FALSE,6,,,,,,,,,,,,,,,,,,,165,4,3.2.2021,166.000176
270,"['low', 3, 'low']",3,black,0.562043977,45,right,down,low,low,black_low_45-black_low_135-white_low_45-white_low_135,black_low_45_down,white_low_135_down,7,1.268577619,0.2485575,right,0.7372911,1,7,20,1,1,1,1,TRUE,FALSE,low_3_mask_low,0.75,-1,3,FALSE,8,,,,,,,,,,,,,,,,,,,165,4,3.2.2021,166.000176
271,"['high', 2, 'low']",2,black,0.993836916,135,left,down,high,low,black_low_135-white_low_135-white_low_45-black_low_45,black_high_135_down,white_high_45_down,14,1.554844391,0.2485516,left,0.6102729,1,14,14,0,1,1,1,TRUE,FALSE,high_2_mask_low,0.75,-1,3,TRUE,7,,,,,,,,,,,,,,,,,,,165,4,3.2.2021,166.000176
272,"['med', 1, 'high']",1,black,0.772173638,45,right,down,med,high,black_high_135-black_high_45-white_high_135-white_high_135,black_med_45_down,white_med_135_down,20,1.429825991,0.2485472,right,0.4801996,1,20,16,1,1,1,1,TRUE,FALSE,med_1_mask_high,0.75,-1,3,FALSE,10,,,,,,,,,,,,,,,,,,,165,4,3.2.2021,166.000176
273,"['low', 2, 'high']",2,white,0.075737622,135,right,up,low,high,white_high_135-black_high_135-white_high_135-black_high_45,white_low_135_up,black_low_45_up,5,1.863412303,0.2467487,right,0.2248581,1,5,11,1,1,1,1,TRUE,FALSE,low_2_mask_high,0.75,-1,3,FALSE,6,,,,,,,,,,,,,,,,,,,165,4,3.2.2021,166.000176
274,"['low', 1, 'low']",1,white,0.356377654,45,left,down,low,low,white_low_135-black_low_135-white_low_45-black_low_45,white_low_45_down,black_low_135_down,8,1.693901698,0.2485507,right,0.6990044,0,8,19,1,1,1,1,TRUE,FALSE,low_1_mask_low,0.75,-1,3,TRUE,7,,,,,,,,,,,,,,,,,,,165,4,3.2.2021,166.000176
275,"['med', 1, 'low']",1,white,0.886051484,45,left,down,med,low,black_low_45-white_low_45-white_low_135-black_low_135,white_med_45_down,black_med_135_down,29,1.049036181,0.2485435,left,0.1424263,1,29,15,1,1,1,1,TRUE,FALSE,med_1_mask_low,0.75,-1,3,FALSE,7,,,,,,,,,,,,,,,,,,,165,4,3.2.2021,166.000176
276,"['low', 3, 'high']",3,black,0.605280512,45,right,down,low,high,white_high_135-white_high_135-black_high_45-black_high_135,black_low_45_down,white_low_135_down,7,1.611732357,0.2467473,right,1.3672957,1,7,8,0,1,1,1,TRUE,FALSE,low_3_mask_high,0.75,-1,3,TRUE,6,,,,,,,,,,,,,,,,,,,165,4,3.2.2021,166.000176
277,"['low', 3, 'low']",3,white,0.335907754,45,left,up,low,low,white_low_45-white_low_135-black_low_45-black_low_135,white_low_45_up,black_low_135_up,6,1.115273195,0.2485491,left,0.1291355,1,6,21,1,1,1,1,TRUE,FALSE,low_3_mask_low,0.75,-1,3,FALSE,8,,,,,,,,,,,,,,,,,,,165,4,3.2.2021,166.000176
278,"['med', 1, 'low']",1,black,0.815615602,135,left,down,med,low,white_low_45-black_low_45-white_low_135-black_low_135,black_med_135_down,white_med_45_down,28,1.778937096,0.2485505,right,0.7056506,0,28,16,1,1,1,1,TRUE,FALSE,med_1_mask_low,0.75,-1,3,TRUE,8,,,,,,,,,,,,,,,,,,,165,4,3.2.2021,166.000176
279,"['low', 3, 'high']",3,white,0.91721936,135,right,up,low,high,white_high_135-white_high_135-black_high_135-black_high_45,white_low_135_up,black_low_45_up,6,1.289923233,0.2450384,right,0.2651427,1,6,9,1,1,1,1,TRUE,FALSE,low_3_mask_high,0.75,-1,3,FALSE,6,,,,,,,,,,,,,,,,,,,165,4,3.2.2021,166.000176
280,"['low', 1, 'low']",1,white,0.609075501,135,right,up,low,low,black_low_45-white_low_135-black_low_135-white_low_45,white_low_135_up,black_low_45_up,11,1.986202628,0.2485496,right,0.154724,1,11,20,0,1,1,1,TRUE,FALSE,low_1_mask_low,0.75,-1,3,TRUE,8,,,,,,,,,,,,,,,,,,,165,4,3.2.2021,166.000176
281,"['high', 2, 'high']",2,black,0.191729431,45,right,up,high,high,black_high_45-white_high_135-white_high_135-black_high_135,black_high_45_up,white_high_135_up,17,1.069814601,0.2485594,right,0.2660525,1,17,11,0,1,1,1,TRUE,FALSE,high_2_mask_high,0.75,-1,3,TRUE,7,,,,,,,,,,,,,,,,,,,165,4,3.2.2021,166.000176
282,"['med', 1, 'low']",1,black,0.570933529,135,left,down,med,low,white_low_45-black_low_135-black_low_45-white_low_135,black_med_135_down,white_med_45_down,31,1.14348763,0.2502847,left,1.7533109,1,31,17,0,1,1,1,TRUE,FALSE,med_1_mask_low,0.75,-1,3,TRUE,9,,,,,,,,,,,,,,,,,,,165,4,3.2.2021,166.000176
283,"['low', 3, 'high']",3,white,0.162743194,135,right,up,low,high,black_high_45-black_high_135-white_high_135-white_high_135,white_low_135_up,black_low_45_up,5,1.653415803,0.2472534,right,0.2752281,1,5,10,1,1,1,1,TRUE,FALSE,low_3_mask_high,0.75,-1,3,FALSE,6,,,,,,,,,,,,,,,,,,,165,4,3.2.2021,166.000176
284,"['high', 3, 'low']",3,white,0.926937126,45,left,up,high,low,white_low_45-black_low_135-black_low_45-white_low_135,white_high_45_up,black_high_135_up,7,1.244218425,0.2485578,right,0.140504,0,7,17,1,1,1,1,TRUE,FALSE,high_3_mask_low,0.75,-1,3,TRUE,7,,,,,,,,,,,,,,,,,,,165,4,3.2.2021,166.000176
285,"['low', 3, 'low']",3,white,0.753010665,135,right,down,low,low,black_low_45-white_low_45-white_low_135-black_low_135,white_low_135_down,black_low_45_down,5,1.822480425,0.2485476,right,0.1045419,1,5,22,1,1,1,1,TRUE,FALSE,low_3_mask_low,0.75,-1,3,FALSE,8,,,,,,,,,,,,,,,,,,,165,4,3.2.2021,166.000176
286,"['high', 3, 'low']",3,black,0.748294632,45,right,up,high,low,white_low_135-white_low_45-black_low_45-black_low_135,black_high_45_up,white_high_135_up,10,1.179357572,0.2467504,right,0.9598655,1,10,18,0,1,1,1,TRUE,FALSE,high_3_mask_low,0.75,-1,3,TRUE,8,,,,,,,,,,,,,,,,,,,165,4,3.2.2021,166.000176
287,"['low', 3, 'high']",3,black,0.146951332,135,left,up,low,high,black_high_135-black_high_45-white_high_135-white_high_135,black_low_135_up,white_low_45_up,4,1.605085513,0.2467368,right,0.0983558,0,4,11,1,1,1,1,TRUE,FALSE,low_3_mask_high,0.75,-1,3,TRUE,7,,,,,,,,,,,,,,,,,,,165,4,3.2.2021,166.000176
288,"['med', 3, 'high']",3,black,0.866419229,45,right,up,med,high,black_high_135-black_high_45-white_high_135-white_high_135,black_med_45_up,white_med_135_up,9,1.577494772,0.2502959,right,0.6524086,1,9,23,0,1,1,1,TRUE,FALSE,med_3_mask_high,0.75,-1,3,TRUE,8,,,,,,,,,,,,,,,,,,,165,4,3.2.2021,166.000176
289,"['high', 2, 'low']",2,white,0.416441589,135,right,down,high,low,white_low_45-black_low_45-black_low_135-white_low_135,white_high_135_down,black_high_45_down,13,1.334826525,0.2485473,right,0.3966842,1,13,15,1,1,1,1,TRUE,FALSE,high_2_mask_low,0.75,-1,3,FALSE,7,,,,,,,,,,,,,,,,,,,165,4,3.2.2021,166.000176
290,"['low', 2, 'high']",2,black,0.579907223,135,left,up,low,high,white_high_135-white_high_135-black_high_135-black_high_45,black_low_135_up,white_low_45_up,4,1.287498619,0.2502894,right,0.0339544,0,4,12,1,1,1,1,TRUE,FALSE,low_2_mask_high,0.75,-1,3,TRUE,7,,,,,,,,,,,,,,,,,,,165,4,3.2.2021,166.000176
291,"['high', 2, 'low']",2,black,0.714668655,45,right,down,high,low,white_low_45-black_low_135-white_low_135-black_low_45,black_high_45_down,white_high_135_down,12,1.18145705,0.2485467,right,0.3895463,1,12,16,1,1,1,1,TRUE,FALSE,high_2_mask_low,0.75,-1,3,FALSE,7,,,,,,,,,,,,,,,,,,,165,4,3.2.2021,166.000176
292,"['med', 3, 'low']",3,white,0.760440514,135,right,up,med,low,white_low_135-white_low_45-black_low_135-black_low_45,white_med_135_up,black_med_45_up,20,1.467350659,0.2485459,right,0.1045553,1,20,16,0,1,1,1,TRUE,FALSE,med_3_mask_low,0.75,-1,3,TRUE,10,,,,,,,,,,,,,,,,,,,165,4,3.2.2021,166.000176
293,"['med', 2, 'high']",2,black,0.533658798,45,right,down,med,high,white_high_135-black_high_45-black_high_135-white_high_135,black_med_45_down,white_med_135_down,12,1.470010459,0.2485491,right,0.1254192,1,12,20,0,1,1,1,TRUE,FALSE,med_2_mask_high,0.75,-1,3,TRUE,8,,,,,,,,,,,,,,,,,,,165,4,3.2.2021,166.000176
294,"['med', 1, 'high']",1,white,0.929846164,135,right,up,med,high,black_high_135-white_high_135-white_high_135-black_high_45,white_med_135_up,black_med_45_up,19,1.596144387,0.2456421,right,0.6768364,1,19,17,1,1,1,1,TRUE,FALSE,med_1_mask_high,0.75,-1,3,FALSE,10,,,,,,,,,,,,,,,,,,,165,4,3.2.2021,166.000176
295,"['low', 1, 'low']",1,black,0.771473923,45,right,down,low,low,white_low_135-white_low_45-black_low_135-black_low_45,black_low_45_down,white_low_135_down,10,1.853624371,0.2485519,right,0.0104377,1,10,21,1,1,1,1,TRUE,FALSE,low_1_mask_low,0.75,-1,3,FALSE,8,,,,,,,,,,,,,,,,,,,165,4,3.2.2021,166.000176
296,"['high', 2, 'high']",2,white,0.148629938,45,left,up,high,high,white_high_135-white_high_135-black_high_45-black_high_135,white_high_45_up,black_high_135_up,16,1.290266522,0.2485524,left,0.4129765,1,16,12,1,1,1,1,TRUE,FALSE,high_2_mask_high,0.75,-1,3,FALSE,7,,,,,,,,,,,,,,,,,,,165,4,3.2.2021,166.000176
297,"['low', 2, 'low']",2,white,0.54945151,45,left,down,low,low,black_low_135-black_low_45-white_low_135-white_low_45,white_low_45_down,black_low_135_down,16,1.84723444,0.2485531,left,0.3213964,1,16,11,0,0,1,1,TRUE,FALSE,low_2_mask_low,0.75,-1,3,TRUE,5,,,,,,,,,,,,,,,,,,,165,4,3.2.2021,166.000176
298,"['high', 1, 'low']",1,black,0.455878331,45,right,up,high,low,white_low_45-white_low_135-black_low_45-black_low_135,black_high_45_up,white_high_135_up,21,1.004771651,0.2467795,left,0.4551697,0,21,15,0,1,1,1,TRUE,FALSE,high_1_mask_low,0.75,-1,3,FALSE,8,,,,,,,,,,,,,,,,,,,165,4,3.2.2021,166.000176
299,"['low', 3, 'high']",3,white,0.389793676,45,left,up,low,high,black_high_135-white_high_135-black_high_45-white_high_135,white_low_45_up,black_low_135_up,7,1.05691013,0.2503029,left,0.0706903,1,7,12,0,1,1,1,TRUE,FALSE,low_3_mask_high,0.75,-1,3,TRUE,8,,,,,,,,,,,,,,,,,,,165,4,3.2.2021,166.000176
300,"['low', 2, 'high']",2,black,0.563959274,135,left,down,low,high,black_high_45-white_high_135-white_high_135-black_high_135,black_low_135_down,white_low_45_down,7,1.326872894,0.248536,left,0.1058486,1,7,13,0,1,1,1,TRUE,FALSE,low_2_mask_high,0.75,-1,3,TRUE,8,,,,,,,,,,,,,,,,,,,165,4,3.2.2021,166.000176
301,"['low', 2, 'low']",2,black,0.100553162,45,right,down,low,low,white_low_135-white_low_45-black_low_45-black_low_135,black_low_45_down,white_low_135_down,15,1.348561841,0.2503102,right,0.4036342,1,15,12,1,1,1,1,TRUE,FALSE,low_2_mask_low,0.75,-1,3,FALSE,5,,,,,,,,,,,,,,,,,,,165,4,3.2.2021,166.000176
302,"['med', 3, 'high']",3,black,0.133171919,135,left,down,med,high,black_high_45-black_high_135-white_high_135-white_high_135,black_med_135_down,white_med_45_down,8,1.988410044,0.2485517,left,0.1765085,1,8,24,1,1,1,1,TRUE,FALSE,med_3_mask_high,0.75,-1,3,FALSE,8,,,,,,,,,,,,,,,,,,,165,4,3.2.2021,166.000176
303,"['low', 2, 'high']",2,white,0.046505714,135,right,up,low,high,white_high_135-black_high_45-white_high_135-black_high_135,white_low_135_up,black_low_45_up,6,1.523919804,0.245046,right,0.0225403,1,6,14,1,1,1,1,TRUE,FALSE,low_2_mask_high,0.75,-1,3,FALSE,8,,,,,,,,,,,,,,,,,,,165,4,3.2.2021,166.000176
304,"['med', 2, 'high']",2,black,0.023989456,135,left,down,med,high,black_high_45-white_high_135-white_high_135-black_high_135,black_med_135_down,white_med_45_down,11,1.811911868,0.248558,left,0.5023085,1,11,21,1,1,1,1,TRUE,FALSE,med_2_mask_high,0.75,-1,3,FALSE,8,,,,,,,,,,,,,,,,,,,165,4,3.2.2021,166.000176
305,"['med', 3, 'low']",3,black,0.494009539,135,left,down,med,low,black_low_135-white_low_135-white_low_45-black_low_45,black_med_135_down,white_med_45_down,19,1.289928787,0.2485416,left,0.0872155,1,19,17,1,1,1,1,TRUE,FALSE,med_3_mask_low,0.75,-1,3,FALSE,10,,,,,,,,,,,,,,,,,,,165,4,3.2.2021,166.000176
306,"['high', 2, 'low']",2,white,0.139089738,45,left,down,high,low,white_low_45-white_low_135-black_low_135-black_low_45,white_high_45_down,black_high_135_down,11,1.448406184,0.2485396,left,0.4958081,1,11,17,1,1,1,1,TRUE,FALSE,high_2_mask_low,0.75,-1,3,FALSE,7,,,,,,,,,,,,,,,,,,,165,4,3.2.2021,166.000176
307,"['med', 1, 'low']",1,black,0.511613978,45,right,down,med,low,black_low_45-black_low_135-white_low_45-white_low_135,black_med_45_down,white_med_135_down,30,1.343930958,0.2485447,right,0.5025141,1,30,18,1,1,1,1,TRUE,FALSE,med_1_mask_low,0.75,-1,3,FALSE,9,,,,,,,,,,,,,,,,,,,165,4,3.2.2021,166.000176
308,"['high', 2, 'low']",2,black,0.284825854,45,right,up,high,low,black_low_135-white_low_45-black_low_45-white_low_135,black_high_45_up,white_high_135_up,10,1.060216747,0.2485361,right,0.9549483,1,10,18,1,1,1,1,TRUE,FALSE,high_2_mask_low,0.75,-1,3,FALSE,7,,,,,,,,,,,,,,,,,,,165,4,3.2.2021,166.000176
309,"['low', 3, 'high']",3,black,0.442983521,45,right,up,low,high,black_high_135-black_high_45-white_high_135-white_high_135,black_low_45_up,white_low_135_up,6,1.000516438,0.2485398,right,0.5310971,1,6,13,1,1,1,1,TRUE,FALSE,low_3_mask_high,0.75,-1,3,FALSE,8,,,,,,,,,,,,,,,,,,,165,4,3.2.2021,166.000176
310,"['high', 1, 'high']",1,black,0.066653102,135,left,up,high,high,black_high_135-black_high_45-white_high_135-white_high_135,black_high_135_up,white_high_45_up,26,1.341030876,0.2485594,left,0.6775858,1,26,18,1,1,1,1,TRUE,FALSE,high_1_mask_high,0.75,-1,3,FALSE,9,,,,,,,,,,,,,,,,,,,165,4,3.2.2021,166.000176
311,"['med', 1, 'high']",1,white,0.783786143,45,left,down,med,high,white_high_135-white_high_135-black_high_45-black_high_135,white_med_45_down,black_med_135_down,18,1.663917174,0.2488201,left,0.2363118,1,18,18,1,1,1,1,TRUE,FALSE,med_1_mask_high,0.75,-1,3,FALSE,10,,,,,,,,,,,,,,,,,,,165,4,3.2.2021,166.000176
312,"['med', 1, 'low']",1,white,0.848238476,135,right,up,med,low,black_low_45-black_low_135-white_low_45-white_low_135,white_med_135_up,black_med_45_up,29,1.721994248,0.2485505,right,0.1044473,1,29,19,1,1,1,1,TRUE,FALSE,med_1_mask_low,0.75,-1,3,FALSE,9,,,,,,,,,,,,,,,,,,,165,4,3.2.2021,166.000176
313,"['high', 3, 'high']",3,white,0.909623447,45,left,down,high,high,black_high_135-white_high_135-white_high_135-black_high_45,white_high_45_down,black_high_135_down,9,1.515214747,0.2485408,left,0.3447494,1,9,15,1,1,1,1,TRUE,FALSE,high_3_mask_high,0.75,-1,3,FALSE,7,,,,,,,,,,,,,,,,,,,165,4,3.2.2021,166.000176
314,"['high', 2, 'high']",2,black,0.820427365,135,left,down,high,high,white_high_135-black_high_45-black_high_135-white_high_135,black_high_135_down,white_high_45_down,15,1.228474818,0.2503082,left,0.1161521,1,15,13,1,1,1,1,TRUE,FALSE,high_2_mask_high,0.75,-1,3,FALSE,7,,,,,,,,,,,,,,,,,,,165,4,3.2.2021,166.000176
315,"['med', 3, 'low']",3,white,0.546077794,45,left,up,med,low,black_low_45-white_low_135-black_low_135-white_low_45,white_med_45_up,black_med_135_up,18,1.58165646,0.2485324,left,0.0268598,1,18,18,1,1,1,1,TRUE,FALSE,med_3_mask_low,0.75,-1,3,FALSE,10,,,,,,,,,,,,,,,,,,,165,4,3.2.2021,166.000176
316,"['high', 3, 'high']",3,black,0.685450895,45,right,up,high,high,white_high_135-black_high_135-white_high_135-black_high_45,black_high_45_up,white_high_135_up,8,1.03704714,0.2488247,left,0.260423,0,8,16,1,1,1,1,TRUE,FALSE,high_3_mask_high,0.75,-1,3,TRUE,8,,,,,,,,,,,,,,,,,,,165,4,3.2.2021,166.000176
317,"['low', 2, 'low']",2,black,0.19045774,45,right,down,low,low,white_low_45-black_low_135-white_low_135-black_low_45,black_low_45_down,white_low_135_down,14,1.990748564,0.248553,right,0.3097797,1,14,13,1,1,1,1,TRUE,FALSE,low_2_mask_low,0.75,-1,3,FALSE,5,,,,,,,,,,,,,,,,,,,165,4,3.2.2021,166.000176
318,"['low', 3, 'low']",3,black,0.567998047,45,right,down,low,low,black_low_135-black_low_45-white_low_135-white_low_45,black_low_45_down,white_low_135_down,4,1.772265906,0.2485595,right,0.2539338,1,4,23,1,1,1,1,TRUE,FALSE,low_3_mask_low,0.75,-1,3,FALSE,8,,,,,,,,,,,,,,,,,,,165,4,3.2.2021,166.000176
319,"['low', 3, 'high']",3,black,0.467842846,135,left,down,low,high,white_high_135-black_high_45-white_high_135-black_high_135,black_low_135_down,white_low_45_down,5,1.459162629,0.2470448,left,0.4061913,1,5,14,1,1,1,1,TRUE,FALSE,low_3_mask_high,0.75,-1,3,FALSE,8,,,,,,,,,,,,,,,,,,,165,4,3.2.2021,166.000176
320,"['low', 2, 'low']",2,white,0.101184608,45,left,down,low,low,white_low_45-white_low_135-black_low_135-black_low_45,white_low_45_down,black_low_135_down,13,1.518826009,0.2467779,left,0.3806724,1,13,14,1,1,1,1,TRUE,FALSE,low_2_mask_low,0.75,-1,3,FALSE,5,,,,,,,,,,,,,,,,,,,165,4,3.2.2021,166.000176
321,"['high', 3, 'high']",3,white,0.971866777,135,right,up,high,high,white_high_135-white_high_135-black_high_45-black_high_135,white_high_135_up,black_high_45_up,11,1.485433267,0.2485416,left,0.4053176,0,11,17,0,1,1,1,TRUE,FALSE,high_3_mask_high,0.75,-1,3,FALSE,8,,,,,,,,,,,,,,,,,,,165,4,3.2.2021,166.000176
322,"['low', 2, 'high']",2,black,0.535275115,45,right,down,low,high,black_high_45-white_high_135-black_high_135-white_high_135,black_low_45_down,white_low_135_down,5,1.104142919,0.2485514,right,0.3319144,1,5,15,1,1,1,1,TRUE,FALSE,low_2_mask_high,0.75,-1,3,FALSE,8,,,,,,,,,,,,,,,,,,,165,4,3.2.2021,166.000176
323,"['low', 1, 'low']",1,white,0.646450273,135,right,down,low,low,white_low_45-black_low_45-black_low_135-white_low_135,white_low_135_down,black_low_45_down,9,1.794504991,0.2467697,left,1.0558341,0,9,22,1,1,1,1,TRUE,FALSE,low_1_mask_low,0.75,-1,3,TRUE,9,,,,,,,,,,,,,,,,,,,165,4,3.2.2021,166.000176
324,"['low', 2, 'high']",2,white,0.731327509,45,left,up,low,high,white_high_135-black_high_135-white_high_135-black_high_45,white_low_45_up,black_low_135_up,4,1.168930379,0.24855,left,0.0580488,1,4,16,1,1,1,1,TRUE,FALSE,low_2_mask_high,0.75,-1,3,FALSE,8,,,,,,,,,,,,,,,,,,,165,4,3.2.2021,166.000176
325,"['low', 1, 'low']",1,black,0.332113047,135,left,up,low,low,white_low_135-black_low_45-white_low_45-black_low_135,black_low_135_up,white_low_45_up,12,1.86316626,0.2485499,left,0.8796828,1,12,23,0,1,1,1,TRUE,FALSE,low_1_mask_low,0.75,-1,3,TRUE,10,,,,,,,,,,,,,,,,,,,165,4,3.2.2021,166.000176
326,"['med', 2, 'high']",2,black,0.014813493,45,right,up,med,high,white_high_135-black_high_45-black_high_135-white_high_135,black_med_45_up,white_med_135_up,10,1.362384066,0.2488205,right,0.1157121,1,10,22,1,1,1,1,TRUE,FALSE,med_2_mask_high,0.75,-1,3,FALSE,8,,,,,,,,,,,,,,,,,,,165,4,3.2.2021,166.000176
