trial_number,trial_type,cycle_number,first_color,phase,first_orientation,correct_response,visual_field,spatial_frequency,mask_type,mask_images,first_stim,second_stim,stimulus_frame_duration,fixation_duration,mask_duration,answer,rt,accuracy,staircase_dv,staircase_trial_num,staircase_previous_correct,staircase_phase,staircase_step_size,staircase_powers_law,staircase_siam,staircase_over,staircase_name,staircase_conv_p,staircase_step_hit,staircase_step_miss,staircase_reversal,staircase_reversal_num,threshold_low1_mask_low,threshold_low2_mask_low,threshold_low3_mask_low,threshold_high1_mask_low,threshold_high2_mask_low,threshold_high3_mask_low,threshold_low1_mask_high,threshold_low2_mask_high,threshold_low3_mask_high,threshold_high1_mask_high,threshold_high2_mask_high,threshold_high3_mask_high,threshold_med1_mask_low,threshold_med2_mask_low,threshold_med3_mask_low,threshold_med1_mask_high,threshold_med2_mask_high,threshold_med3_mask_high,frame_rate,participant,psychopyVersion,frame_rate_detected
0,"['med', 3, 'high']",3,white,0.433485218,45,left,up,med,high,black_high_45-white_high_135-black_high_135-white_high_135,white_med_45_up,black_med_135_up,8,1.278423229,0.2485556,left,0.3010316,1,8,0,None,0,1,1,TRUE,FALSE,med_3_mask_high,0.75,-1,3,FALSE,0,,,,,,,,,,,,,,,,,,,165,7,3.2.2021,164.9547117
1,"['low', 2, 'high']",2,white,0.183408762,135,right,up,low,high,black_high_45-black_high_135-white_high_135-white_high_135,white_low_135_up,black_low_45_up,3,1.485976409,0.2485402,right,0.286535,1,3,0,None,0,1,1,TRUE,FALSE,low_2_mask_high,0.75,-1,3,FALSE,0,,,,,,,,,,,,,,,,,,,165,7,3.2.2021,164.9547117
2,"['med', 2, 'low']",2,white,0.899335994,45,left,down,med,low,black_low_45-white_low_135-white_low_45-black_low_135,white_med_45_down,black_med_135_down,8,1.578651537,0.2467067,right,0.2687291,0,8,0,None,0,1,1,TRUE,FALSE,med_2_mask_low,0.75,-1,3,FALSE,0,,,,,,,,,,,,,,,,,,,165,7,3.2.2021,164.9547117
3,"['high', 2, 'high']",2,black,0.390673275,135,left,up,high,high,black_high_45-black_high_135-white_high_135-white_high_135,black_high_135_up,white_high_45_up,8,1.929356813,0.2502813,left,0.3378494,1,8,0,None,0,1,1,TRUE,FALSE,high_2_mask_high,0.75,-1,3,FALSE,0,,,,,,,,,,,,,,,,,,,165,7,3.2.2021,164.9547117
4,"['low', 3, 'low']",3,white,0.574368525,45,left,down,low,low,black_low_135-white_low_45-white_low_135-black_low_45,white_low_45_down,black_low_135_down,3,1.034759965,0.2485644,right,0.3046888,0,3,0,None,0,1,1,TRUE,FALSE,low_3_mask_low,0.75,-1,3,FALSE,0,,,,,,,,,,,,,,,,,,,165,7,3.2.2021,164.9547117
5,"['med', 1, 'high']",1,black,0.784533156,45,right,down,med,high,white_high_135-black_high_135-black_high_45-white_high_135,black_med_45_down,white_med_135_down,12,1.864615693,0.2485362,right,0.4781909,1,12,0,None,0,1,1,TRUE,FALSE,med_1_mask_high,0.75,-1,3,FALSE,0,,,,,,,,,,,,,,,,,,,165,7,3.2.2021,164.9547117
6,"['high', 1, 'low']",1,black,0.720010834,135,left,down,high,low,white_low_45-white_low_135-black_low_45-black_low_135,black_high_135_down,white_high_45_down,12,1.262424462,0.2485468,left,0.3803798,1,12,0,None,0,1,1,TRUE,FALSE,high_1_mask_low,0.75,-1,3,FALSE,0,,,,,,,,,,,,,,,,,,,165,7,3.2.2021,164.9547117
7,"['med', 3, 'high']",3,white,0.919844445,135,right,down,med,high,white_high_135-black_high_45-white_high_135-black_high_135,white_med_135_down,black_med_45_down,7,1.546159738,0.2485418,left,0.60172,0,7,1,1,0,1,1,TRUE,FALSE,med_3_mask_high,0.75,-1,3,TRUE,1,,,,,,,,,,,,,,,,,,,165,7,3.2.2021,164.9547117
8,"['high', 3, 'high']",3,black,0.972765586,135,left,down,high,high,black_high_135-white_high_135-white_high_135-black_high_45,black_high_135_down,white_high_45_down,8,1.553323912,0.2485489,right,0.0884694,0,8,0,None,0,1,1,TRUE,FALSE,high_3_mask_high,0.75,-1,3,FALSE,0,,,,,,,,,,,,,,,,,,,165,7,3.2.2021,164.9547117
9,"['med', 1, 'high']",1,white,0.12156652,135,right,up,med,high,white_high_135-black_high_135-black_high_45-white_high_135,white_med_135_up,black_med_45_up,11,1.150818481,0.2485441,left,0.2813091,0,11,1,1,0,1,1,TRUE,FALSE,med_1_mask_high,0.75,-1,3,TRUE,1,,,,,,,,,,,,,,,,,,,165,7,3.2.2021,164.9547117
10,"['low', 1, 'low']",1,black,0.113791982,45,right,up,low,low,black_low_135-white_low_135-black_low_45-white_low_45,black_low_45_up,white_low_135_up,8,1.094358036,0.2467152,left,0.2429466,0,8,0,None,0,1,1,TRUE,FALSE,low_1_mask_low,0.75,-1,3,FALSE,0,,,,,,,,,,,,,,,,,,,165,7,3.2.2021,164.9547117
11,"['med', 2, 'high']",2,white,0.727026758,45,left,up,med,high,black_high_135-white_high_135-white_high_135-black_high_45,white_med_45_up,black_med_135_up,8,1.338104424,0.2485448,left,0.3200979,1,8,0,None,0,1,1,TRUE,FALSE,med_2_mask_high,0.75,-1,3,FALSE,0,,,,,,,,,,,,,,,,,,,165,7,3.2.2021,164.9547117
12,"['low', 3, 'high']",3,black,0.845475709,45,right,up,low,high,black_high_135-white_high_135-white_high_135-black_high_45,black_low_45_up,white_low_135_up,3,1.655418956,0.2503132,left,0.33479,0,3,0,None,0,1,1,TRUE,FALSE,low_3_mask_high,0.75,-1,3,FALSE,0,,,,,,,,,,,,,,,,,,,165,7,3.2.2021,164.9547117
13,"['med', 3, 'low']",3,white,0.659855551,135,right,up,med,low,black_low_135-white_low_45-white_low_135-black_low_45,white_med_135_up,black_med_45_up,8,1.041552508,0.2485469,right,0.5777021,1,8,0,None,0,1,1,TRUE,FALSE,med_3_mask_low,0.75,-1,3,FALSE,0,,,,,,,,,,,,,,,,,,,165,7,3.2.2021,164.9547117
14,"['low', 1, 'low']",1,black,0.184854078,135,left,down,low,low,white_low_45-black_low_135-black_low_45-white_low_135,black_low_135_down,white_low_45_down,11,1.724593712,0.2485526,right,0.8729466,0,11,1,0,0,1,1,TRUE,FALSE,low_1_mask_low,0.75,-1,3,FALSE,0,,,,,,,,,,,,,,,,,,,165,7,3.2.2021,164.9547117
15,"['high', 3, 'low']",3,black,0.398905782,45,right,up,high,low,black_low_135-white_low_45-white_low_135-black_low_45,black_high_45_up,white_high_135_up,8,1.271647007,0.2485507,right,0.7933879,1,8,0,None,0,1,1,TRUE,FALSE,high_3_mask_low,0.75,-1,3,FALSE,0,,,,,,,,,,,,,,,,,,,165,7,3.2.2021,164.9547117
16,"['med', 3, 'low']",3,black,0.487124679,135,left,up,med,low,black_low_135-black_low_45-white_low_135-white_low_45,black_med_135_up,white_med_45_up,7,1.727234859,0.2485431,left,0.8243883,1,7,1,1,0,1,1,TRUE,FALSE,med_3_mask_low,0.75,-1,3,FALSE,0,,,,,,,,,,,,,,,,,,,165,7,3.2.2021,164.9547117
17,"['med', 3, 'high']",3,white,0.306034656,135,right,down,med,high,white_high_135-white_high_135-black_high_135-black_high_45,white_med_135_down,black_med_45_down,10,1.322131688,0.2503145,left,0.519751,0,10,2,0,0,1,1,TRUE,FALSE,med_3_mask_high,0.75,-1,3,FALSE,1,,,,,,,,,,,,,,,,,,,165,7,3.2.2021,164.9547117
18,"['low', 3, 'low']",3,black,0.129552091,135,left,down,low,low,black_low_45-black_low_135-white_low_135-white_low_45,black_low_135_down,white_low_45_down,6,1.441686449,0.248846,left,0.2613055,1,6,1,0,0,1,1,TRUE,FALSE,low_3_mask_low,0.75,-1,3,TRUE,1,,,,,,,,,,,,,,,,,,,165,7,3.2.2021,164.9547117
19,"['low', 2, 'high']",2,white,0.736038459,45,left,down,low,high,white_high_135-black_high_45-white_high_135-black_high_135,white_low_45_down,black_low_135_down,2,1.546464557,0.246719,left,0.2564256,1,2,1,1,0,1,1,TRUE,FALSE,low_2_mask_high,0.75,-1,3,FALSE,0,,,,,,,,,,,,,,,,,,,165,7,3.2.2021,164.9547117
20,"['high', 1, 'high']",1,black,0.91613808,45,right,up,high,high,black_high_135-black_high_45-white_high_135-white_high_135,black_high_45_up,white_high_135_up,12,1.9416835,0.2467838,left,0.3154673,0,12,0,None,0,1,1,TRUE,FALSE,high_1_mask_high,0.75,-1,3,FALSE,0,,,,,,,,,,,,,,,,,,,165,7,3.2.2021,164.9547117
21,"['high', 3, 'high']",3,black,0.446085298,135,left,up,high,high,black_high_135-white_high_135-white_high_135-black_high_45,black_high_135_up,white_high_45_up,11,1.862506602,0.2485462,left,0.2064691,1,11,1,0,0,1,1,TRUE,FALSE,high_3_mask_high,0.75,-1,3,TRUE,1,,,,,,,,,,,,,,,,,,,165,7,3.2.2021,164.9547117
22,"['high', 1, 'low']",1,white,0.68884357,45,left,down,high,low,black_low_45-white_low_135-white_low_45-black_low_135,white_high_45_down,black_high_135_down,11,1.025254631,0.2485488,left,0.6028453,1,11,1,1,0,1,1,TRUE,FALSE,high_1_mask_low,0.75,-1,3,FALSE,0,,,,,,,,,,,,,,,,,,,165,7,3.2.2021,164.9547117
23,"['high', 2, 'high']",2,white,0.323653897,45,left,down,high,high,black_high_45-white_high_135-white_high_135-black_high_135,white_high_45_down,black_high_135_down,7,1.437985731,0.2485557,left,0.2973094,1,7,1,1,0,1,1,TRUE,FALSE,high_2_mask_high,0.75,-1,3,FALSE,0,,,,,,,,,,,,,,,,,,,165,7,3.2.2021,164.9547117
24,"['low', 2, 'low']",2,black,0.211239944,135,left,up,low,low,black_low_135-white_low_135-white_low_45-black_low_45,black_low_135_up,white_low_45_up,3,1.473910202,0.2485491,left,0.8369842,1,3,0,None,0,1,1,TRUE,FALSE,low_2_mask_low,0.75,-1,3,FALSE,0,,,,,,,,,,,,,,,,,,,165,7,3.2.2021,164.9547117
25,"['med', 3, 'low']",3,white,0.726384438,135,right,down,med,low,black_low_45-black_low_135-white_low_45-white_low_135,white_med_135_down,black_med_45_down,6,1.133334199,0.2485518,left,0.1956103,0,6,2,1,0,1,1,TRUE,FALSE,med_3_mask_low,0.75,-1,3,TRUE,1,,,,,,,,,,,,,,,,,,,165,7,3.2.2021,164.9547117
26,"['med', 2, 'high']",2,white,0.531740081,45,left,down,med,high,black_high_45-white_high_135-white_high_135-black_high_135,white_med_45_down,black_med_135_down,7,1.409651876,0.2485459,left,0.6572574,1,7,1,1,0,1,1,TRUE,FALSE,med_2_mask_high,0.75,-1,3,FALSE,0,,,,,,,,,,,,,,,,,,,165,7,3.2.2021,164.9547117
27,"['high', 2, 'high']",2,black,0.990359395,135,left,up,high,high,white_high_135-black_high_135-black_high_45-white_high_135,black_high_135_up,white_high_45_up,6,1.71870977,0.2485218,right,0.2550728,0,6,2,1,0,1,1,TRUE,FALSE,high_2_mask_high,0.75,-1,3,TRUE,1,,,,,,,,,,,,,,,,,,,165,7,3.2.2021,164.9547117
28,"['med', 3, 'low']",3,black,0.309739431,135,left,up,med,low,white_low_135-white_low_45-black_low_45-black_low_135,black_med_135_up,white_med_45_up,9,1.807125174,0.2485491,right,0.2897508,0,9,3,0,0,1,1,TRUE,FALSE,med_3_mask_low,0.75,-1,3,FALSE,1,,,,,,,,,,,,,,,,,,,165,7,3.2.2021,164.9547117
29,"['low', 3, 'high']",3,black,0.756479388,45,right,down,low,high,white_high_135-black_high_135-white_high_135-black_high_45,black_low_45_down,white_low_135_down,6,1.754558205,0.2485492,right,0.3456142,1,6,1,0,0,1,1,TRUE,FALSE,low_3_mask_high,0.75,-1,3,TRUE,1,,,,,,,,,,,,,,,,,,,165,7,3.2.2021,164.9547117
30,"['low', 2, 'low']",2,white,0.894414541,45,left,down,low,low,white_low_45-black_low_45-white_low_135-black_low_135,white_low_45_down,black_low_135_down,2,1.426768912,0.2485438,left,0.5283108,1,2,1,1,0,1,1,TRUE,FALSE,low_2_mask_low,0.75,-1,3,FALSE,0,,,,,,,,,,,,,,,,,,,165,7,3.2.2021,164.9547117
31,"['high', 1, 'low']",1,white,0.906314796,45,left,up,high,low,white_low_135-white_low_45-black_low_45-black_low_135,white_high_45_up,black_high_135_up,10,1.723140228,0.2485373,right,0.3322918,0,10,2,1,0,1,1,TRUE,FALSE,high_1_mask_low,0.75,-1,3,TRUE,1,,,,,,,,,,,,,,,,,,,165,7,3.2.2021,164.9547117
32,"['high', 1, 'low']",1,white,0.946476866,135,right,down,high,low,black_low_45-white_low_45-black_low_135-white_low_135,white_high_135_down,black_high_45_down,13,1.874659815,0.248544,right,0.2339102,1,13,3,0,0,1,1,TRUE,FALSE,high_1_mask_low,0.75,-1,3,TRUE,2,,,,,,,,,,,,,,,,,,,165,7,3.2.2021,164.9547117
33,"['low', 1, 'high']",1,white,0.107996856,135,right,down,low,high,white_high_135-black_high_135-white_high_135-black_high_45,white_low_135_down,black_low_45_down,8,1.074224818,0.2485352,left,0.216488,0,8,0,None,0,1,1,TRUE,FALSE,low_1_mask_high,0.75,-1,3,FALSE,0,,,,,,,,,,,,,,,,,,,165,7,3.2.2021,164.9547117
34,"['med', 1, 'high']",1,white,0.434275821,135,right,down,med,high,white_high_135-white_high_135-black_high_135-black_high_45,white_med_135_down,black_med_45_down,14,1.109122873,0.2485456,right,0.2068374,1,14,2,0,0,1,1,TRUE,FALSE,med_1_mask_high,0.75,-1,3,TRUE,2,,,,,,,,,,,,,,,,,,,165,7,3.2.2021,164.9547117
35,"['med', 1, 'high']",1,black,0.113336955,45,right,up,med,high,black_high_45-white_high_135-white_high_135-black_high_135,black_med_45_up,white_med_135_up,13,1.286451385,0.2485396,left,0.2713267,0,13,3,1,0,1,1,TRUE,FALSE,med_1_mask_high,0.75,-1,3,TRUE,3,,,,,,,,,,,,,,,,,,,165,7,3.2.2021,164.9547117
36,"['high', 2, 'high']",2,white,0.696537758,135,right,down,high,high,white_high_135-white_high_135-black_high_45-black_high_135,white_high_135_down,black_high_45_down,9,1.864830254,0.2485421,right,0.2216458,1,9,3,0,0,1,1,TRUE,FALSE,high_2_mask_high,0.75,-1,3,TRUE,2,,,,,,,,,,,,,,,,,,,165,7,3.2.2021,164.9547117
37,"['high', 3, 'low']",3,white,0.599927825,135,right,up,high,low,white_low_45-black_low_45-white_low_135-black_low_135,white_high_135_up,black_high_45_up,7,1.088845063,0.2485461,right,0.2577648,1,7,1,1,0,1,1,TRUE,FALSE,high_3_mask_low,0.75,-1,3,FALSE,0,,,,,,,,,,,,,,,,,,,165,7,3.2.2021,164.9547117
38,"['low', 3, 'low']",3,white,0.611962164,135,right,up,low,low,white_low_45-black_low_45-white_low_135-black_low_135,white_low_135_up,black_low_45_up,5,1.17465054,0.248513,right,0.3013023,1,5,2,1,0,1,1,TRUE,FALSE,low_3_mask_low,0.75,-1,3,FALSE,1,,,,,,,,,,,,,,,,,,,165,7,3.2.2021,164.9547117
39,"['low', 1, 'high']",1,white,0.007076608,45,left,up,low,high,black_high_135-white_high_135-white_high_135-black_high_45,white_low_45_up,black_low_135_up,11,1.509886319,0.2467393,left,0.209167,1,11,1,0,0,1,1,TRUE,FALSE,low_1_mask_high,0.75,-1,3,TRUE,1,,,,,,,,,,,,,,,,,,,165,7,3.2.2021,164.9547117
40,"['high', 3, 'high']",3,white,0.684611486,45,left,down,high,high,white_high_135-white_high_135-black_high_135-black_high_45,white_high_45_down,black_high_135_down,10,1.82691706,0.2502702,right,0.2124321,0,10,2,1,0,1,1,TRUE,FALSE,high_3_mask_high,0.75,-1,3,TRUE,2,,,,,,,,,,,,,,,,,,,165,7,3.2.2021,164.9547117
41,"['low', 1, 'high']",1,white,0.921044643,45,left,down,low,high,white_high_135-white_high_135-black_high_135-black_high_45,white_low_45_down,black_low_135_down,10,1.555016749,0.250325,left,0.2385566,1,10,2,1,0,1,1,TRUE,FALSE,low_1_mask_high,0.75,-1,3,FALSE,1,,,,,,,,,,,,,,,,,,,165,7,3.2.2021,164.9547117
42,"['med', 2, 'high']",2,black,0.401569051,135,left,up,med,high,white_high_135-white_high_135-black_high_135-black_high_45,black_med_135_up,white_med_45_up,6,1.081768778,0.2485612,right,0.254365,0,6,2,1,0,1,1,TRUE,FALSE,med_2_mask_high,0.75,-1,3,TRUE,1,,,,,,,,,,,,,,,,,,,165,7,3.2.2021,164.9547117
43,"['low', 3, 'high']",3,white,0.242687588,45,left,down,low,high,white_high_135-black_high_45-white_high_135-black_high_135,white_low_45_down,black_low_135_down,5,1.709039046,0.2467813,left,0.1112496,1,5,2,1,0,1,1,TRUE,FALSE,low_3_mask_high,0.75,-1,3,FALSE,1,,,,,,,,,,,,,,,,,,,165,7,3.2.2021,164.9547117
44,"['med', 1, 'low']",1,black,0.051693411,135,left,up,med,low,black_low_45-white_low_45-white_low_135-black_low_135,black_med_135_up,white_med_45_up,12,1.626426817,0.2503074,right,0.2569941,0,12,0,None,0,1,1,TRUE,FALSE,med_1_mask_low,0.75,-1,3,FALSE,0,,,,,,,,,,,,,,,,,,,165,7,3.2.2021,164.9547117
45,"['low', 2, 'low']",2,white,0.745145118,45,left,down,low,low,black_low_45-white_low_135-black_low_135-white_low_45,white_low_45_down,black_low_135_down,1,1.280025754,0.2485396,left,0.306045,1,1,2,1,0,1,1,TRUE,FALSE,low_2_mask_low,0.75,-1,3,FALSE,0,,,,,,,,,,,,,,,,,,,165,7,3.2.2021,164.9547117
46,"['low', 2, 'high']",2,black,0.789204284,45,right,down,low,high,black_high_135-white_high_135-black_high_45-white_high_135,black_low_45_down,white_low_135_down,1,1.847401786,0.246758,left,0.2274644,0,1,2,1,0,1,1,TRUE,FALSE,low_2_mask_high,0.75,-1,3,TRUE,1,,,,,,,,,,,,,,,,,,,165,7,3.2.2021,164.9547117
47,"['med', 2, 'low']",2,white,0.996033283,135,right,down,med,low,white_low_135-black_low_45-white_low_45-black_low_135,white_med_135_down,black_med_45_down,11,1.214966226,0.2488515,right,0.1985778,1,11,1,0,0,1,1,TRUE,FALSE,med_2_mask_low,0.75,-1,3,TRUE,1,,,,,,,,,,,,,,,,,,,165,7,3.2.2021,164.9547117
48,"['high', 3, 'high']",3,black,0.065113116,45,right,down,high,high,black_high_135-white_high_135-white_high_135-black_high_45,black_high_45_down,white_high_135_down,13,1.472720877,0.2485545,right,0.2832946,1,13,3,0,0,1,1,TRUE,FALSE,high_3_mask_high,0.75,-1,3,TRUE,3,,,,,,,,,,,,,,,,,,,165,7,3.2.2021,164.9547117
49,"['low', 2, 'high']",2,black,0.212770128,45,right,down,low,high,black_high_45-white_high_135-white_high_135-black_high_135,black_low_45_down,white_low_135_down,4,1.345714978,0.2502916,right,0.212039,1,4,3,0,0,1,1,TRUE,FALSE,low_2_mask_high,0.75,-1,3,TRUE,2,,,,,,,,,,,,,,,,,,,165,7,3.2.2021,164.9547117
50,"['low', 1, 'low']",1,white,0.754706709,135,right,up,low,low,white_low_45-black_low_45-black_low_135-white_low_135,white_low_135_up,black_low_45_up,14,1.213874099,0.2485242,right,0.2387361,1,14,2,0,0,1,1,TRUE,FALSE,low_1_mask_low,0.75,-1,3,TRUE,1,,,,,,,,,,,,,,,,,,,165,7,3.2.2021,164.9547117
51,"['med', 2, 'low']",2,black,0.584853782,135,left,up,med,low,black_low_135-white_low_45-black_low_45-white_low_135,black_med_135_up,white_med_45_up,10,1.736069245,0.2467591,right,0.2697953,0,10,2,1,0,1,1,TRUE,FALSE,med_2_mask_low,0.75,-1,3,TRUE,2,,,,,,,,,,,,,,,,,,,165,7,3.2.2021,164.9547117
52,"['low', 1, 'low']",1,white,0.718213208,135,right,up,low,low,white_low_135-black_low_135-white_low_45-black_low_45,white_low_135_up,black_low_45_up,13,1.647675575,0.2488513,right,0.092081,1,13,3,1,0,1,1,TRUE,FALSE,low_1_mask_low,0.75,-1,3,FALSE,1,,,,,,,,,,,,,,,,,,,165,7,3.2.2021,164.9547117
53,"['med', 3, 'low']",3,white,0.897538085,135,right,down,med,low,white_low_135-black_low_45-white_low_45-black_low_135,white_med_135_down,black_med_45_down,12,1.687620154,0.2485531,right,0.2081276,1,12,4,0,0,1,1,TRUE,FALSE,med_3_mask_low,0.75,-1,3,TRUE,2,,,,,,,,,,,,,,,,,,,165,7,3.2.2021,164.9547117
54,"['high', 3, 'high']",3,white,0.117409003,45,left,down,high,high,black_high_135-white_high_135-black_high_45-white_high_135,white_high_45_down,black_high_135_down,12,1.628810922,0.2488498,left,0.3549615,1,12,4,1,0,1,1,TRUE,FALSE,high_3_mask_high,0.75,-1,3,FALSE,3,,,,,,,,,,,,,,,,,,,165,7,3.2.2021,164.9547117
55,"['high', 1, 'high']",1,white,0.91910814,45,left,down,high,high,black_high_135-white_high_135-white_high_135-black_high_45,white_high_45_down,black_high_135_down,15,1.740268044,0.248544,left,0.2725868,1,15,1,0,0,1,1,TRUE,FALSE,high_1_mask_high,0.75,-1,3,TRUE,1,,,,,,,,,,,,,,,,,,,165,7,3.2.2021,164.9547117
56,"['low', 2, 'high']",2,black,0.166132835,135,left,up,low,high,black_high_135-white_high_135-white_high_135-black_high_45,black_low_135_up,white_low_45_up,3,1.505798976,0.2467274,right,0.1779431,0,3,4,1,0,1,1,TRUE,FALSE,low_2_mask_high,0.75,-1,3,TRUE,3,,,,,,,,,,,,,,,,,,,165,7,3.2.2021,164.9547117
57,"['low', 1, 'low']",1,white,0.294012857,45,left,up,low,low,white_low_135-black_low_45-white_low_45-black_low_135,white_low_45_up,black_low_135_up,12,1.648492615,0.2485442,left,0.2468232,1,12,4,1,0,1,1,TRUE,FALSE,low_1_mask_low,0.75,-1,3,FALSE,1,,,,,,,,,,,,,,,,,,,165,7,3.2.2021,164.9547117
58,"['low', 3, 'high']",3,black,0.149111183,135,left,down,low,high,black_high_135-white_high_135-white_high_135-black_high_45,black_low_135_down,white_low_45_down,4,1.888257478,0.2466882,left,0.2396192,1,4,3,1,0,1,1,TRUE,FALSE,low_3_mask_high,0.75,-1,3,FALSE,1,,,,,,,,,,,,,,,,,,,165,7,3.2.2021,164.9547117
59,"['high', 3, 'low']",3,white,0.613744103,135,right,up,high,low,white_low_135-white_low_45-black_low_135-black_low_45,white_high_135_up,black_high_45_up,6,1.342687165,0.2485553,right,0.1985196,1,6,2,1,0,1,1,TRUE,FALSE,high_3_mask_low,0.75,-1,3,FALSE,0,,,,,,,,,,,,,,,,,,,165,7,3.2.2021,164.9547117
60,"['med', 2, 'low']",2,white,0.488941984,45,left,up,med,low,white_low_45-white_low_135-black_low_135-black_low_45,white_med_45_up,black_med_135_up,13,1.859873561,0.2485487,left,0.2122673,1,13,3,0,0,1,1,TRUE,FALSE,med_2_mask_low,0.75,-1,3,TRUE,3,,,,,,,,,,,,,,,,,,,165,7,3.2.2021,164.9547117
61,"['med', 2, 'low']",2,white,0.804555624,135,right,up,med,low,white_low_45-black_low_45-black_low_135-white_low_135,white_med_135_up,black_med_45_up,12,1.835342278,0.2467806,right,0.0529217,1,12,4,1,0,1,1,TRUE,FALSE,med_2_mask_low,0.75,-1,3,FALSE,3,,,,,,,,,,,,,,,,,,,165,7,3.2.2021,164.9547117
62,"['med', 2, 'high']",2,black,0.197889602,45,right,up,med,high,black_high_135-white_high_135-black_high_45-white_high_135,black_med_45_up,white_med_135_up,9,1.852137711,0.2467812,right,0.1897514,1,9,3,0,0,1,1,TRUE,FALSE,med_2_mask_high,0.75,-1,3,TRUE,2,,,,,,,,,,,,,,,,,,,165,7,3.2.2021,164.9547117
63,"['low', 1, 'low']",1,white,0.769198787,135,right,up,low,low,black_low_45-white_low_45-white_low_135-black_low_135,white_low_135_up,black_low_45_up,11,1.560205961,0.2502892,right,0.0768054,1,11,5,1,0,1,1,TRUE,FALSE,low_1_mask_low,0.75,-1,3,FALSE,1,,,,,,,,,,,,,,,,,,,165,7,3.2.2021,164.9547117
64,"['high', 3, 'low']",3,white,0.082818617,45,left,up,high,low,white_low_45-white_low_135-black_low_45-black_low_135,white_high_45_up,black_high_135_up,5,1.636240193,0.2503008,right,0.1746721,0,5,3,1,0,1,1,TRUE,FALSE,high_3_mask_low,0.75,-1,3,TRUE,1,,,,,,,,,,,,,,,,,,,165,7,3.2.2021,164.9547117
65,"['low', 3, 'high']",3,white,0.200335652,45,left,up,low,high,white_high_135-black_high_45-white_high_135-black_high_135,white_low_45_up,black_low_135_up,3,1.935902799,0.2485463,right,0.526955,0,3,4,1,0,1,1,TRUE,FALSE,low_3_mask_high,0.75,-1,3,TRUE,2,,,,,,,,,,,,,,,,,,,165,7,3.2.2021,164.9547117
66,"['low', 1, 'low']",1,black,0.417215633,135,left,up,low,low,white_low_45-black_low_45-white_low_135-black_low_135,black_low_135_up,white_low_45_up,10,1.201444741,0.2485416,right,0.1200338,0,10,6,1,0,1,1,TRUE,FALSE,low_1_mask_low,0.75,-1,3,TRUE,2,,,,,,,,,,,,,,,,,,,165,7,3.2.2021,164.9547117
67,"['high', 2, 'low']",2,black,0.08658663,135,left,up,high,low,black_low_135-white_low_135-black_low_45-white_low_45,black_high_135_up,white_high_45_up,8,1.925345565,0.2470374,right,0.1937288,0,8,0,None,0,1,1,TRUE,FALSE,high_2_mask_low,0.75,-1,3,FALSE,0,,,,,,,,,,,,,,,,,,,165,7,3.2.2021,164.9547117
68,"['low', 2, 'low']",2,white,0.841007332,45,left,up,low,low,white_low_135-black_low_45-white_low_45-black_low_135,white_low_45_up,black_low_135_up,1,1.509593041,0.2485455,right,0.0702296,0,1,3,1,0,1,1,TRUE,FALSE,low_2_mask_low,0.75,-1,3,TRUE,1,,,,,,,,,,,,,,,,,,,165,7,3.2.2021,164.9547117
69,"['med', 3, 'low']",3,white,0.380695392,45,left,down,med,low,white_low_45-black_low_45-black_low_135-white_low_135,white_med_45_down,black_med_135_down,11,1.499699015,0.2467556,left,0.5073841,1,11,5,1,0,1,1,TRUE,FALSE,med_3_mask_low,0.75,-1,3,FALSE,2,,,,,,,,,,,,,,,,,,,165,7,3.2.2021,164.9547117
70,"['med', 3, 'low']",3,black,0.989767565,135,left,up,med,low,white_low_135-black_low_45-white_low_45-black_low_135,black_med_135_up,white_med_45_up,10,1.232378455,0.2467853,right,0.2055361,0,10,6,1,0,1,1,TRUE,FALSE,med_3_mask_low,0.75,-1,3,TRUE,3,,,,,,,,,,,,,,,,,,,165,7,3.2.2021,164.9547117
71,"['low', 3, 'low']",3,black,0.774110658,45,right,up,low,low,white_low_45-black_low_45-black_low_135-white_low_135,black_low_45_up,white_low_135_up,4,1.466441148,0.2485461,right,0.2140042,1,4,3,1,0,1,1,TRUE,FALSE,low_3_mask_low,0.75,-1,3,FALSE,1,,,,,,,,,,,,,,,,,,,165,7,3.2.2021,164.9547117
72,"['med', 3, 'low']",3,white,0.999399527,135,right,down,med,low,white_low_135-black_low_45-white_low_45-black_low_135,white_med_135_down,black_med_45_down,13,1.870718175,0.2485494,right,0.2251604,1,13,7,0,0,1,1,TRUE,FALSE,med_3_mask_low,0.75,-1,3,TRUE,4,,,,,,,,,,,,,,,,,,,165,7,3.2.2021,164.9547117
73,"['med', 3, 'high']",3,white,0.116230847,135,right,down,med,high,white_high_135-black_high_45-black_high_135-white_high_135,white_med_135_down,black_med_45_down,13,1.283253183,0.2482568,right,0.206703,1,13,3,0,0,1,1,TRUE,FALSE,med_3_mask_high,0.75,-1,3,TRUE,2,,,,,,,,,,,,,,,,,,,165,7,3.2.2021,164.9547117
74,"['high', 3, 'high']",3,black,0.961259566,45,right,up,high,high,white_high_135-white_high_135-black_high_135-black_high_45,black_high_45_up,white_high_135_up,11,1.06048691,0.2485328,left,0.3572247,0,11,5,1,0,1,1,TRUE,FALSE,high_3_mask_high,0.75,-1,3,TRUE,4,,,,,,,,,,,,,,,,,,,165,7,3.2.2021,164.9547117
75,"['high', 2, 'high']",2,black,0.235693679,135,left,down,high,high,black_high_45-black_high_135-white_high_135-white_high_135,black_high_135_down,white_high_45_down,8,1.044238164,0.2485515,right,0.3888331,0,8,4,1,0,1,1,TRUE,FALSE,high_2_mask_high,0.75,-1,3,TRUE,3,,,,,,,,,,,,,,,,,,,165,7,3.2.2021,164.9547117
76,"['high', 1, 'low']",1,black,0.090596873,135,left,up,high,low,black_low_45-black_low_135-white_low_45-white_low_135,black_high_135_up,white_high_45_up,12,1.327581501,0.2485519,right,0.1830578,0,12,4,1,0,1,1,TRUE,FALSE,high_1_mask_low,0.75,-1,3,TRUE,3,,,,,,,,,,,,,,,,,,,165,7,3.2.2021,164.9547117
77,"['med', 3, 'high']",3,black,0.561314016,45,right,down,med,high,black_high_45-black_high_135-white_high_135-white_high_135,black_med_45_down,white_med_135_down,12,1.943329811,0.2485523,right,0.4258423,1,12,4,1,0,1,1,TRUE,FALSE,med_3_mask_high,0.75,-1,3,FALSE,2,,,,,,,,,,,,,,,,,,,165,7,3.2.2021,164.9547117
78,"['low', 1, 'low']",1,black,0.202680208,45,right,up,low,low,black_low_45-white_low_45-white_low_135-black_low_135,black_low_45_up,white_low_135_up,13,1.763093106,0.2449846,left,0.1650744,0,13,7,0,0,1,1,TRUE,FALSE,low_1_mask_low,0.75,-1,3,FALSE,2,,,,,,,,,,,,,,,,,,,165,7,3.2.2021,164.9547117
79,"['med', 2, 'high']",2,black,0.060498456,45,right,up,med,high,white_high_135-black_high_45-black_high_135-white_high_135,black_med_45_up,white_med_135_up,8,1.473843527,0.2488589,right,0.119862,1,8,4,1,0,1,1,TRUE,FALSE,med_2_mask_high,0.75,-1,3,FALSE,2,,,,,,,,,,,,,,,,,,,165,7,3.2.2021,164.9547117
80,"['low', 2, 'high']",2,white,0.103026747,135,right,up,low,high,black_high_135-black_high_45-white_high_135-white_high_135,white_low_135_up,black_low_45_up,6,1.097482035,0.2485484,right,0.0940946,1,6,5,0,0,1,1,TRUE,FALSE,low_2_mask_high,0.75,-1,3,TRUE,4,,,,,,,,,,,,,,,,,,,165,7,3.2.2021,164.9547117
81,"['high', 1, 'low']",1,white,0.415182432,135,right,down,high,low,black_low_135-white_low_45-white_low_135-black_low_45,white_high_135_down,black_high_45_down,15,1.625678157,0.2485508,right,0.0416377,1,15,5,0,0,1,1,TRUE,FALSE,high_1_mask_low,0.75,-1,3,TRUE,4,,,,,,,,,,,,,,,,,,,165,7,3.2.2021,164.9547117
82,"['high', 3, 'low']",3,black,0.518810079,45,right,up,high,low,black_low_135-white_low_135-black_low_45-white_low_45,black_high_45_up,white_high_135_up,8,1.07032035,0.248544,right,0.0728543,1,8,4,0,0,1,1,TRUE,FALSE,high_3_mask_low,0.75,-1,3,TRUE,2,,,,,,,,,,,,,,,,,,,165,7,3.2.2021,164.9547117
83,"['med', 3, 'low']",3,black,0.3862779,135,left,up,med,low,black_low_45-white_low_45-black_low_135-white_low_135,black_med_135_up,white_med_45_up,12,1.022498625,0.2467914,right,0.3194993,0,12,8,1,0,1,1,TRUE,FALSE,med_3_mask_low,0.75,-1,3,TRUE,5,,,,,,,,,,,,,,,,,,,165,7,3.2.2021,164.9547117
84,"['low', 1, 'low']",1,white,0.330744005,135,right,down,low,low,white_low_45-black_low_45-black_low_135-white_low_135,white_low_135_down,black_low_45_down,16,1.59564981,0.2467735,right,0.1311045,1,16,8,0,0,1,1,TRUE,FALSE,low_1_mask_low,0.75,-1,3,TRUE,3,,,,,,,,,,,,,,,,,,,165,7,3.2.2021,164.9547117
85,"['med', 3, 'high']",3,white,0.234861601,135,right,up,med,high,black_high_135-white_high_135-black_high_45-white_high_135,white_med_135_up,black_med_45_up,11,1.00124465,0.2488675,right,0.1250717,1,11,5,1,0,1,1,TRUE,FALSE,med_3_mask_high,0.75,-1,3,FALSE,2,,,,,,,,,,,,,,,,,,,165,7,3.2.2021,164.9547117
86,"['low', 1, 'low']",1,white,0.420868934,45,left,up,low,low,white_low_135-black_low_45-white_low_45-black_low_135,white_low_45_up,black_low_135_up,15,1.776814211,0.248548,left,0.227069,1,15,9,1,0,1,1,TRUE,FALSE,low_1_mask_low,0.75,-1,3,FALSE,3,,,,,,,,,,,,,,,,,,,165,7,3.2.2021,164.9547117
87,"['high', 2, 'high']",2,black,0.191216689,135,left,up,high,high,white_high_135-black_high_135-black_high_45-white_high_135,black_high_135_up,white_high_45_up,11,1.600978245,0.2467533,right,0.1805861,0,11,5,0,0,1,1,TRUE,FALSE,high_2_mask_high,0.75,-1,3,FALSE,3,,,,,,,,,,,,,,,,,,,165,7,3.2.2021,164.9547117
88,"['high', 3, 'high']",3,black,0.59684345,45,right,up,high,high,white_high_135-black_high_135-white_high_135-black_high_45,black_high_45_up,white_high_135_up,14,1.039905332,0.2485487,right,0.3510877,1,14,6,0,0,1,1,TRUE,FALSE,high_3_mask_high,0.75,-1,3,TRUE,5,,,,,,,,,,,,,,,,,,,165,7,3.2.2021,164.9547117
89,"['med', 3, 'high']",3,black,0.872406872,45,right,down,med,high,white_high_135-black_high_45-black_high_135-white_high_135,black_med_45_down,white_med_135_down,10,1.226374714,0.2467756,right,0.0533397,1,10,6,1,0,1,1,TRUE,FALSE,med_3_mask_high,0.75,-1,3,FALSE,2,,,,,,,,,,,,,,,,,,,165,7,3.2.2021,164.9547117
90,"['high', 1, 'high']",1,black,0.925225521,45,right,down,high,high,black_high_135-white_high_135-white_high_135-black_high_45,black_high_45_down,white_high_135_down,14,1.057675118,0.2485481,left,0.0434248,0,14,2,1,0,1,1,TRUE,FALSE,high_1_mask_high,0.75,-1,3,TRUE,2,,,,,,,,,,,,,,,,,,,165,7,3.2.2021,164.9547117
91,"['high', 1, 'high']",1,black,0.236400552,135,left,up,high,high,black_high_135-white_high_135-white_high_135-black_high_45,black_high_135_up,white_high_45_up,17,1.699019287,0.2485463,right,0.0698285,0,17,3,0,0,1,1,TRUE,FALSE,high_1_mask_high,0.75,-1,3,FALSE,2,,,,,,,,,,,,,,,,,,,165,7,3.2.2021,164.9547117
92,"['med', 2, 'high']",2,white,0.906036375,45,left,down,med,high,white_high_135-black_high_135-black_high_45-white_high_135,white_med_45_down,black_med_135_down,7,1.580254708,0.2502937,left,0.1890007,1,7,5,1,0,1,1,TRUE,FALSE,med_2_mask_high,0.75,-1,3,FALSE,2,,,,,,,,,,,,,,,,,,,165,7,3.2.2021,164.9547117
93,"['high', 3, 'high']",3,white,0.144451556,135,right,down,high,high,white_high_135-black_high_135-black_high_45-white_high_135,white_high_135_down,black_high_45_down,13,1.052209173,0.248543,right,0.1025093,1,13,7,1,1,1,1,TRUE,FALSE,high_3_mask_high,0.75,-1,3,FALSE,5,,,,,,,,,,,,,,,,,,,165,7,3.2.2021,164.9547117
94,"['med', 2, 'high']",2,black,0.599001675,45,right,down,med,high,black_high_45-white_high_135-white_high_135-black_high_135,black_med_45_down,white_med_135_down,6,1.204387717,0.2485448,left,0.4906897,0,6,6,1,0,1,1,TRUE,FALSE,med_2_mask_high,0.75,-1,3,TRUE,3,,,,,,,,,,,,,,,,,,,165,7,3.2.2021,164.9547117
95,"['high', 3, 'high']",3,black,0.405608476,45,right,down,high,high,black_high_45-white_high_135-black_high_135-white_high_135,black_high_45_down,white_high_135_down,12,1.101779569,0.248562,right,0.1641808,1,12,8,1,1,1,1,TRUE,FALSE,high_3_mask_high,0.75,-1,3,FALSE,5,,,,,,,,,,,,,,,,,,,165,7,3.2.2021,164.9547117
96,"['med', 3, 'high']",3,white,0.551206865,135,right,down,med,high,white_high_135-black_high_135-white_high_135-black_high_45,white_med_135_down,black_med_45_down,9,1.408481638,0.2503365,right,0.6260414,1,9,7,1,0,1,1,TRUE,FALSE,med_3_mask_high,0.75,-1,3,FALSE,2,,,,,,,,,,,,,,,,,,,165,7,3.2.2021,164.9547117
97,"['high', 2, 'low']",2,white,0.115043977,45,left,down,high,low,white_low_45-black_low_135-black_low_45-white_low_135,white_high_45_down,black_high_135_down,11,1.661333089,0.2488446,right,0.2986144,0,11,1,0,0,1,1,TRUE,FALSE,high_2_mask_low,0.75,-1,3,FALSE,0,,,,,,,,,,,,,,,,,,,165,7,3.2.2021,164.9547117
98,"['low', 1, 'high']",1,white,0.357579301,135,right,down,low,high,black_high_45-white_high_135-black_high_135-white_high_135,white_low_135_down,black_low_45_down,9,1.354029752,0.2488475,right,0.164001,1,9,3,1,0,1,1,TRUE,FALSE,low_1_mask_high,0.75,-1,3,FALSE,1,,,,,,,,,,,,,,,,,,,165,7,3.2.2021,164.9547117
99,"['high', 1, 'high']",1,white,0.29573313,45,left,down,high,high,black_high_45-white_high_135-black_high_135-white_high_135,white_high_45_down,black_high_135_down,20,1.17746133,0.2485436,left,0.0541984,1,20,4,0,0,1,1,TRUE,FALSE,high_1_mask_high,0.75,-1,3,TRUE,3,,,,,,,,,,,,,,,,,,,165,7,3.2.2021,164.9547117
100,"['med', 1, 'high']",1,white,0.021973866,45,left,up,med,high,white_high_135-black_high_45-black_high_135-white_high_135,white_med_45_up,black_med_135_up,16,1.081234485,0.2485449,left,0.0775578,1,16,4,0,0,1,1,TRUE,FALSE,med_1_mask_high,0.75,-1,3,TRUE,4,,,,,,,,,,,,,,,,,,,165,7,3.2.2021,164.9547117
101,"['med', 2, 'low']",2,black,0.494879439,135,left,down,med,low,white_low_135-black_low_135-black_low_45-white_low_45,black_med_135_down,white_med_45_down,11,1.625074645,0.2485505,right,0.4849426,0,11,5,1,0,1,1,TRUE,FALSE,med_2_mask_low,0.75,-1,3,TRUE,4,,,,,,,,,,,,,,,,,,,165,7,3.2.2021,164.9547117
102,"['med', 3, 'low']",3,white,0.079248037,45,left,up,med,low,black_low_135-white_low_135-white_low_45-black_low_45,white_med_45_up,black_med_135_up,15,1.056084062,0.2485534,left,0.2012425,1,15,9,0,1,1,1,TRUE,FALSE,med_3_mask_low,0.75,-1,3,TRUE,6,,,,,,,,,,,,,,,,,,,165,7,3.2.2021,164.9547117
103,"['low', 2, 'low']",2,white,0.966770598,45,left,up,low,low,white_low_45-black_low_45-black_low_135-white_low_135,white_low_45_up,black_low_135_up,4,1.693402289,0.2485452,left,0.6272496,1,4,4,0,0,1,1,TRUE,FALSE,low_2_mask_low,0.75,-1,3,TRUE,2,,,,,,,,,,,,,,,,,,,165,7,3.2.2021,164.9547117
104,"['low', 2, 'high']",2,black,0.239855299,135,left,down,low,high,white_high_135-white_high_135-black_high_45-black_high_135,black_low_135_down,white_low_45_down,5,1.486871478,0.2503073,right,0.1830413,0,5,6,1,0,1,1,TRUE,FALSE,low_2_mask_high,0.75,-1,3,TRUE,5,,,,,,,,,,,,,,,,,,,165,7,3.2.2021,164.9547117
105,"['low', 1, 'high']",1,white,0.340659797,45,left,down,low,high,white_high_135-white_high_135-black_high_45-black_high_135,white_low_45_down,black_low_135_down,8,1.896568249,0.2485429,right,0.1673231,0,8,4,1,0,1,1,TRUE,FALSE,low_1_mask_high,0.75,-1,3,TRUE,2,,,,,,,,,,,,,,,,,,,165,7,3.2.2021,164.9547117
106,"['high', 2, 'high']",2,white,0.910768634,135,right,down,high,high,black_high_135-black_high_45-white_high_135-white_high_135,white_high_135_down,black_high_45_down,14,1.134270385,0.2485845,right,0.0378426,1,14,6,0,0,1,1,TRUE,FALSE,high_2_mask_high,0.75,-1,3,TRUE,4,,,,,,,,,,,,,,,,,,,165,7,3.2.2021,164.9547117
107,"['high', 1, 'high']",1,black,0.101456284,135,left,down,high,high,white_high_135-white_high_135-black_high_135-black_high_45,black_high_135_down,white_high_45_down,19,1.043887055,0.2485429,right,0.2057116,0,19,5,1,0,1,1,TRUE,FALSE,high_1_mask_high,0.75,-1,3,TRUE,4,,,,,,,,,,,,,,,,,,,165,7,3.2.2021,164.9547117
108,"['high', 2, 'low']",2,black,0.882949595,135,left,down,high,low,black_low_45-black_low_135-white_low_135-white_low_45,black_high_135_down,white_high_45_down,14,1.234709764,0.2485507,right,0.2038091,0,14,2,0,0,1,1,TRUE,FALSE,high_2_mask_low,0.75,-1,3,FALSE,0,,,,,,,,,,,,,,,,,,,165,7,3.2.2021,164.9547117
109,"['high', 1, 'high']",1,black,0.456092185,135,left,down,high,high,white_high_135-white_high_135-black_high_135-black_high_45,black_high_135_down,white_high_45_down,22,1.602297684,0.2485422,right,0.2406579,0,22,6,0,0,1,1,TRUE,FALSE,high_1_mask_high,0.75,-1,3,FALSE,4,,,,,,,,,,,,,,,,,,,165,7,3.2.2021,164.9547117
110,"['low', 1, 'low']",1,white,0.202341718,135,right,down,low,low,black_low_45-white_low_45-white_low_135-black_low_135,white_low_135_down,black_low_45_down,14,1.681820547,0.2467147,right,0.0728941,1,14,10,1,0,1,1,TRUE,FALSE,low_1_mask_low,0.75,-1,3,FALSE,3,,,,,,,,,,,,,,,,,,,165,7,3.2.2021,164.9547117
111,"['med', 3, 'low']",3,white,0.518111193,45,left,up,med,low,black_low_45-black_low_135-white_low_45-white_low_135,white_med_45_up,black_med_135_up,14,1.213158289,0.2485457,left,0.2589882,1,14,10,1,1,1,1,TRUE,FALSE,med_3_mask_low,0.75,-1,3,FALSE,6,,,,,,,,,,,,,,,,,,,165,7,3.2.2021,164.9547117
112,"['low', 2, 'low']",2,white,0.352356039,135,right,up,low,low,white_low_45-white_low_135-black_low_45-black_low_135,white_low_135_up,black_low_45_up,3,1.485320963,0.2503093,left,0.4838366,0,3,5,1,0,1,1,TRUE,FALSE,low_2_mask_low,0.75,-1,3,TRUE,3,,,,,,,,,,,,,,,,,,,165,7,3.2.2021,164.9547117
113,"['med', 3, 'high']",3,black,0.197673222,135,left,up,med,high,white_high_135-black_high_45-white_high_135-black_high_135,black_med_135_up,white_med_45_up,8,1.472574267,0.2485425,right,0.1636254,0,8,8,1,0,1,1,TRUE,FALSE,med_3_mask_high,0.75,-1,3,TRUE,3,,,,,,,,,,,,,,,,,,,165,7,3.2.2021,164.9547117
114,"['med', 1, 'high']",1,black,0.515011638,135,left,down,med,high,black_high_135-white_high_135-black_high_45-white_high_135,black_med_135_down,white_med_45_down,15,1.71834839,0.248543,right,0.1104255,0,15,5,1,0,1,1,TRUE,FALSE,med_1_mask_high,0.75,-1,3,TRUE,5,,,,,,,,,,,,,,,,,,,165,7,3.2.2021,164.9547117
115,"['low', 2, 'low']",2,black,0.740723727,135,left,up,low,low,white_low_45-white_low_135-black_low_135-black_low_45,black_low_135_up,white_low_45_up,6,1.105411692,0.2485482,right,0.2050223,0,6,6,0,0,1,1,TRUE,FALSE,low_2_mask_low,0.75,-1,3,FALSE,3,,,,,,,,,,,,,,,,,,,165,7,3.2.2021,164.9547117
116,"['med', 2, 'low']",2,white,0.100359862,45,left,up,med,low,white_low_135-black_low_45-white_low_45-black_low_135,white_med_45_up,black_med_135_up,14,1.984080979,0.2485455,left,0.1985102,1,14,6,0,0,1,1,TRUE,FALSE,med_2_mask_low,0.75,-1,3,TRUE,5,,,,,,,,,,,,,,,,,,,165,7,3.2.2021,164.9547117
117,"['high', 3, 'high']",3,white,0.577833555,45,left,down,high,high,black_high_45-white_high_135-white_high_135-black_high_135,white_high_45_down,black_high_135_down,11,1.90657358,0.2488442,left,0.2189125,1,11,9,1,1,1,1,TRUE,FALSE,high_3_mask_high,0.75,-1,3,FALSE,5,,,,,,,,,,,,,,,,,,,165,7,3.2.2021,164.9547117
118,"['med', 2, 'low']",2,black,0.243129477,135,left,down,med,low,white_low_45-black_low_135-black_low_45-white_low_135,black_med_135_down,white_med_45_down,13,1.179177898,0.2485413,right,0.8383257,0,13,7,1,1,1,1,TRUE,FALSE,med_2_mask_low,0.75,-1,3,TRUE,6,,,,,,,,,,,,,,,,,,,165,7,3.2.2021,164.9547117
119,"['high', 3, 'low']",3,white,0.48120433,45,left,up,high,low,white_low_135-black_low_135-black_low_45-white_low_45,white_high_45_up,black_high_135_up,7,1.688730161,0.2467665,left,0.2078778,1,7,5,1,0,1,1,TRUE,FALSE,high_3_mask_low,0.75,-1,3,FALSE,2,,,,,,,,,,,,,,,,,,,165,7,3.2.2021,164.9547117
120,"['high', 1, 'high']",1,white,0.172552321,45,left,down,high,high,black_high_45-white_high_135-white_high_135-black_high_135,white_high_45_down,black_high_135_down,25,1.852406287,0.2485416,left,0.2064004,1,25,7,0,0,1,1,TRUE,FALSE,high_1_mask_high,0.75,-1,3,TRUE,5,,,,,,,,,,,,,,,,,,,165,7,3.2.2021,164.9547117
121,"['low', 2, 'low']",2,black,0.633765372,135,left,up,low,low,black_low_45-white_low_135-black_low_135-white_low_45,black_low_135_up,white_low_45_up,9,1.071787397,0.2485567,left,0.4110069,1,9,7,0,0,1,1,TRUE,FALSE,low_2_mask_low,0.75,-1,3,TRUE,4,,,,,,,,,,,,,,,,,,,165,7,3.2.2021,164.9547117
122,"['med', 2, 'high']",2,white,0.993354762,45,left,down,med,high,black_high_135-black_high_45-white_high_135-white_high_135,white_med_45_down,black_med_135_down,9,1.778678232,0.2488498,left,0.2519869,1,9,7,0,0,1,1,TRUE,FALSE,med_2_mask_high,0.75,-1,3,TRUE,4,,,,,,,,,,,,,,,,,,,165,7,3.2.2021,164.9547117
123,"['high', 3, 'low']",3,black,0.415203537,45,right,up,high,low,white_low_45-black_low_45-white_low_135-black_low_135,black_high_45_up,white_high_135_up,6,1.875821187,0.2485504,right,0.300464,1,6,6,1,0,1,1,TRUE,FALSE,high_3_mask_low,0.75,-1,3,FALSE,2,,,,,,,,,,,,,,,,,,,165,7,3.2.2021,164.9547117
124,"['med', 3, 'low']",3,black,0.404510643,135,left,down,med,low,black_low_45-white_low_135-white_low_45-black_low_135,black_med_135_down,white_med_45_down,13,1.160475782,0.2485557,left,0.2065024,1,13,11,1,1,1,1,TRUE,FALSE,med_3_mask_low,0.75,-1,3,FALSE,6,,,,,,,,,,,,,,,,,,,165,7,3.2.2021,164.9547117
125,"['med', 1, 'high']",1,black,0.109927161,135,left,down,med,high,white_high_135-black_high_135-white_high_135-black_high_45,black_med_135_down,white_med_45_down,18,1.175953492,0.2449422,left,1.0314847,1,18,6,0,1,1,1,TRUE,FALSE,med_1_mask_high,0.75,-1,3,TRUE,6,,,,,,,,,,,,,,,,,,,165,7,3.2.2021,164.9547117
126,"['low', 2, 'high']",2,white,0.073772478,45,left,up,low,high,black_high_45-white_high_135-black_high_135-white_high_135,white_low_45_up,black_low_135_up,8,1.259196311,0.2485454,left,0.2402618,1,8,7,0,1,1,1,TRUE,FALSE,low_2_mask_high,0.75,-1,3,TRUE,6,,,,,,,,,,,,,,,,,,,165,7,3.2.2021,164.9547117
127,"['high', 3, 'low']",3,black,0.396112094,45,right,down,high,low,black_low_135-white_low_135-black_low_45-white_low_45,black_high_45_down,white_high_135_down,5,1.932362685,0.2449782,left,0.1789772,0,5,7,1,0,1,1,TRUE,FALSE,high_3_mask_low,0.75,-1,3,TRUE,3,,,,,,,,,,,,,,,,,,,165,7,3.2.2021,164.9547117
128,"['high', 1, 'low']",1,white,0.752318239,135,right,up,high,low,black_low_45-black_low_135-white_low_45-white_low_135,white_high_135_up,black_high_45_up,14,1.663093431,0.2485509,left,0.083495,0,14,6,1,0,1,1,TRUE,FALSE,high_1_mask_low,0.75,-1,3,TRUE,5,,,,,,,,,,,,,,,,,,,165,7,3.2.2021,164.9547117
129,"['high', 1, 'low']",1,white,0.0880094,135,right,up,high,low,black_low_135-black_low_45-white_low_45-white_low_135,white_high_135_up,black_high_45_up,17,1.228522149,0.2503076,right,0.0703852,1,17,7,0,1,1,1,TRUE,FALSE,high_1_mask_low,0.75,-1,3,TRUE,6,,,,,,,,,,,,,,,,,,,165,7,3.2.2021,164.9547117
130,"['med', 3, 'low']",3,black,0.139308298,45,right,down,med,low,white_low_45-white_low_135-black_low_45-black_low_135,black_med_45_down,white_med_135_down,12,1.119208928,0.2467828,right,0.4182327,1,12,12,1,1,1,1,TRUE,FALSE,med_3_mask_low,0.75,-1,3,FALSE,6,,,,,,,,,,,,,,,,,,,165,7,3.2.2021,164.9547117
131,"['high', 2, 'high']",2,white,0.996442538,45,left,down,high,high,white_high_135-black_high_45-black_high_135-white_high_135,white_high_45_down,black_high_135_down,13,1.494302173,0.2485358,left,0.2228856,1,13,7,1,0,1,1,TRUE,FALSE,high_2_mask_high,0.75,-1,3,FALSE,4,,,,,,,,,,,,,,,,,,,165,7,3.2.2021,164.9547117
132,"['high', 2, 'high']",2,white,0.107684238,135,right,down,high,high,white_high_135-black_high_45-white_high_135-black_high_135,white_high_135_down,black_high_45_down,12,1.77429344,0.2485469,right,0.200004,1,12,8,1,0,1,1,TRUE,FALSE,high_2_mask_high,0.75,-1,3,FALSE,4,,,,,,,,,,,,,,,,,,,165,7,3.2.2021,164.9547117
133,"['med', 1, 'low']",1,black,0.460818255,45,right,up,med,low,black_low_135-black_low_45-white_low_45-white_low_135,black_med_45_up,white_med_135_up,15,1.923835089,0.2485439,left,0.1569659,0,15,1,0,0,1,1,TRUE,FALSE,med_1_mask_low,0.75,-1,3,FALSE,0,,,,,,,,,,,,,,,,,,,165,7,3.2.2021,164.9547117
134,"['low', 2, 'low']",2,white,0.076918408,135,right,up,low,low,white_low_45-black_low_135-white_low_135-black_low_45,white_low_135_up,black_low_45_up,8,1.552148404,0.2503206,right,0.2355132,1,8,8,1,0,1,1,TRUE,FALSE,low_2_mask_low,0.75,-1,3,FALSE,4,,,,,,,,,,,,,,,,,,,165,7,3.2.2021,164.9547117
135,"['high', 3, 'high']",3,white,0.045969134,135,right,down,high,high,white_high_135-white_high_135-black_high_45-black_high_135,white_high_135_down,black_high_45_down,10,1.873777629,0.2485436,right,0.2066277,1,10,10,1,1,1,1,TRUE,FALSE,high_3_mask_high,0.75,-1,3,FALSE,5,,,,,,,,,,,,,,,,,,,165,7,3.2.2021,164.9547117
136,"['low', 3, 'high']",3,black,0.319304335,135,left,down,low,high,white_high_135-white_high_135-black_high_135-black_high_45,black_low_135_down,white_low_45_down,6,1.243226629,0.2485424,left,0.1719047,1,6,5,0,0,1,1,TRUE,FALSE,low_3_mask_high,0.75,-1,3,TRUE,3,,,,,,,,,,,,,,,,,,,165,7,3.2.2021,164.9547117
137,"['low', 3, 'high']",3,white,0.56248076,135,right,down,low,high,white_high_135-white_high_135-black_high_135-black_high_45,white_low_135_down,black_low_45_down,5,1.651633243,0.2485478,left,0.3503067,0,5,6,1,0,1,1,TRUE,FALSE,low_3_mask_high,0.75,-1,3,TRUE,4,,,,,,,,,,,,,,,,,,,165,7,3.2.2021,164.9547117
138,"['low', 2, 'high']",2,black,0.530575275,45,right,up,low,high,white_high_135-black_high_45-white_high_135-black_high_135,black_low_45_up,white_low_135_up,7,1.15170833,0.2485495,left,0.3998509,0,7,8,1,1,1,1,TRUE,FALSE,low_2_mask_high,0.75,-1,3,TRUE,7,,,,,,,,,,,,,,,,,,,165,7,3.2.2021,164.9547117
139,"['med', 3, 'high']",3,black,0.014573849,45,right,down,med,high,black_high_45-white_high_135-black_high_135-white_high_135,black_med_45_down,white_med_135_down,11,1.235240093,0.2503207,right,0.2943786,1,11,9,0,0,1,1,TRUE,FALSE,med_3_mask_high,0.75,-1,3,TRUE,4,,,,,,,,,,,,,,,,,,,165,7,3.2.2021,164.9547117
140,"['high', 3, 'high']",3,black,0.169856172,45,right,down,high,high,white_high_135-white_high_135-black_high_135-black_high_45,black_high_45_down,white_high_135_down,9,1.668870586,0.2485475,left,0.1587532,0,9,11,1,1,1,1,TRUE,FALSE,high_3_mask_high,0.75,-1,3,TRUE,6,,,,,,,,,,,,,,,,,,,165,7,3.2.2021,164.9547117
141,"['high', 3, 'low']",3,black,0.597925463,135,left,up,high,low,white_low_45-black_low_135-black_low_45-white_low_135,black_high_135_up,white_high_45_up,8,1.788932358,0.2485454,right,0.1619471,0,8,8,0,0,1,1,TRUE,FALSE,high_3_mask_low,0.75,-1,3,FALSE,3,,,,,,,,,,,,,,,,,,,165,7,3.2.2021,164.9547117
142,"['high', 1, 'low']",1,black,0.877349069,135,left,up,high,low,black_low_135-white_low_45-black_low_45-white_low_135,black_high_135_up,white_high_45_up,16,1.998776146,0.2485448,right,0.1854655,0,16,8,1,1,1,1,TRUE,FALSE,high_1_mask_low,0.75,-1,3,TRUE,7,,,,,,,,,,,,,,,,,,,165,7,3.2.2021,164.9547117
143,"['low', 1, 'high']",1,white,0.267311769,45,left,up,low,high,white_high_135-white_high_135-black_high_135-black_high_45,white_low_45_up,black_low_135_up,11,1.076632018,0.2485455,left,0.0656643,1,11,5,0,0,1,1,TRUE,FALSE,low_1_mask_high,0.75,-1,3,TRUE,3,,,,,,,,,,,,,,,,,,,165,7,3.2.2021,164.9547117
144,"['low', 1, 'high']",1,white,0.969978539,135,right,down,low,high,white_high_135-white_high_135-black_high_135-black_high_45,white_low_135_down,black_low_45_down,10,1.554464359,0.2503252,right,0.2365218,1,10,6,1,0,1,1,TRUE,FALSE,low_1_mask_high,0.75,-1,3,FALSE,3,,,,,,,,,,,,,,,,,,,165,7,3.2.2021,164.9547117
145,"['low', 2, 'high']",2,white,0.731179009,45,left,up,low,high,white_high_135-black_high_45-white_high_135-black_high_135,white_low_45_up,black_low_135_up,10,1.65323678,0.2485425,left,0.1259363,1,10,9,0,1,1,1,TRUE,FALSE,low_2_mask_high,0.75,-1,3,TRUE,8,,,,,,,,,,,,,,,,,,,165,7,3.2.2021,164.9547117
146,"['low', 3, 'high']",3,white,0.829833355,45,left,down,low,high,black_high_45-black_high_135-white_high_135-white_high_135,white_low_45_down,black_low_135_down,8,1.283487117,0.2502967,left,0.3102621,1,8,7,0,0,1,1,TRUE,FALSE,low_3_mask_high,0.75,-1,3,TRUE,5,,,,,,,,,,,,,,,,,,,165,7,3.2.2021,164.9547117
147,"['low', 1, 'high']",1,black,0.051235445,135,left,down,low,high,white_high_135-black_high_45-white_high_135-black_high_135,black_low_135_down,white_low_45_down,9,1.40235974,0.2485459,right,0.2711914,0,9,7,1,0,1,1,TRUE,FALSE,low_1_mask_high,0.75,-1,3,TRUE,4,,,,,,,,,,,,,,,,,,,165,7,3.2.2021,164.9547117
148,"['med', 2, 'high']",2,white,0.372068658,45,left,up,med,high,white_high_135-white_high_135-black_high_45-black_high_135,white_med_45_up,black_med_135_up,8,1.085689856,0.2485389,left,0.1917728,1,8,8,1,0,1,1,TRUE,FALSE,med_2_mask_high,0.75,-1,3,FALSE,4,,,,,,,,,,,,,,,,,,,165,7,3.2.2021,164.9547117
149,"['high', 3, 'low']",3,black,0.274369752,135,left,down,high,low,white_low_135-black_low_45-black_low_135-white_low_45,black_high_135_down,white_high_45_down,11,1.887140587,0.2488439,left,0.3523326,1,11,9,0,0,1,1,TRUE,FALSE,high_3_mask_low,0.75,-1,3,TRUE,4,,,,,,,,,,,,,,,,,,,165,7,3.2.2021,164.9547117
150,"['high', 1, 'low']",1,black,0.479731992,45,right,up,high,low,white_low_45-black_low_135-white_low_135-black_low_45,black_high_45_up,white_high_135_up,19,1.276249865,0.2502755,left,0.2394459,0,19,9,0,1,1,1,TRUE,FALSE,high_1_mask_low,0.75,-1,3,FALSE,7,,,,,,,,,,,,,,,,,,,165,7,3.2.2021,164.9547117
151,"['high', 1, 'low']",1,black,0.5511655,135,left,up,high,low,black_low_135-black_low_45-white_low_135-white_low_45,black_high_135_up,white_high_45_up,22,1.429277062,0.2503051,left,0.3780854,1,22,10,0,1,1,1,TRUE,FALSE,high_1_mask_low,0.75,-1,3,TRUE,8,,,,,,,,,,,,,,,,,,,165,7,3.2.2021,164.9547117
152,"['med', 1, 'low']",1,black,0.855032626,135,left,down,med,low,black_low_45-black_low_135-white_low_135-white_low_45,black_med_135_down,white_med_45_down,18,1.265531056,0.2485382,left,0.2470651,1,18,2,0,0,1,1,TRUE,FALSE,med_1_mask_low,0.75,-1,3,TRUE,1,,,,,,,,,,,,,,,,,,,165,7,3.2.2021,164.9547117
153,"['high', 1, 'low']",1,black,0.23599491,45,right,down,high,low,white_low_135-white_low_45-black_low_135-black_low_45,black_high_45_down,white_high_135_down,21,1.01183395,0.2503009,right,1.1280329,1,21,11,1,1,1,1,TRUE,FALSE,high_1_mask_low,0.75,-1,3,FALSE,8,,,,,,,,,,,,,,,,,,,165,7,3.2.2021,164.9547117
154,"['low', 3, 'high']",3,white,0.68651579,135,right,up,low,high,black_high_135-white_high_135-white_high_135-black_high_45,white_low_135_up,black_low_45_up,7,1.366217755,0.2485278,right,0.2343538,1,7,8,1,1,1,1,TRUE,FALSE,low_3_mask_high,0.75,-1,3,FALSE,5,,,,,,,,,,,,,,,,,,,165,7,3.2.2021,164.9547117
155,"['high', 3, 'low']",3,black,0.256650951,135,left,up,high,low,white_low_135-white_low_45-black_low_135-black_low_45,black_high_135_up,white_high_45_up,10,1.4033593,0.2467708,left,0.2944271,1,10,10,1,0,1,1,TRUE,FALSE,high_3_mask_low,0.75,-1,3,FALSE,4,,,,,,,,,,,,,,,,,,,165,7,3.2.2021,164.9547117
156,"['low', 3, 'high']",3,black,0.675797536,45,right,up,low,high,black_high_45-white_high_135-black_high_135-white_high_135,black_low_45_up,white_low_135_up,6,1.683969887,0.2485338,right,0.4378045,1,6,9,1,1,1,1,TRUE,FALSE,low_3_mask_high,0.75,-1,3,FALSE,5,,,,,,,,,,,,,,,,,,,165,7,3.2.2021,164.9547117
157,"['low', 3, 'low']",3,white,0.310123891,135,right,up,low,low,black_low_45-black_low_135-white_low_45-white_low_135,white_low_135_up,black_low_45_up,3,1.710952478,0.2485341,right,0.4167227,1,3,4,1,0,1,1,TRUE,FALSE,low_3_mask_low,0.75,-1,3,FALSE,1,,,,,,,,,,,,,,,,,,,165,7,3.2.2021,164.9547117
158,"['high', 2, 'low']",2,white,0.976563274,45,left,down,high,low,white_low_45-black_low_45-white_low_135-black_low_135,white_high_45_down,black_high_135_down,17,1.182918378,0.2506262,left,0.6434986,1,17,3,0,0,1,1,TRUE,FALSE,high_2_mask_low,0.75,-1,3,TRUE,1,,,,,,,,,,,,,,,,,,,165,7,3.2.2021,164.9547117
159,"['low', 2, 'high']",2,black,0.022469127,45,right,up,low,high,black_high_135-black_high_45-white_high_135-white_high_135,black_low_45_up,white_low_135_up,9,1.577478446,0.2467781,right,0.2925596,1,9,10,1,1,1,1,TRUE,FALSE,low_2_mask_high,0.75,-1,3,FALSE,8,,,,,,,,,,,,,,,,,,,165,7,3.2.2021,164.9547117
160,"['high', 1, 'high']",1,white,0.159105777,135,right,down,high,high,black_high_45-black_high_135-white_high_135-white_high_135,white_high_135_down,black_high_45_down,24,1.589541797,0.2503021,right,1.0645801,1,24,8,1,1,1,1,TRUE,FALSE,high_1_mask_high,0.75,-1,3,FALSE,5,,,,,,,,,,,,,,,,,,,165,7,3.2.2021,164.9547117
161,"['med', 2, 'high']",2,white,0.087973801,135,right,up,med,high,black_high_45-black_high_135-white_high_135-white_high_135,white_med_135_up,black_med_45_up,7,1.76534326,0.2488388,left,0.2792927,0,7,9,1,0,1,1,TRUE,FALSE,med_2_mask_high,0.75,-1,3,TRUE,5,,,,,,,,,,,,,,,,,,,165,7,3.2.2021,164.9547117
162,"['med', 1, 'low']",1,black,0.701289207,135,left,up,med,low,white_low_45-black_low_135-white_low_135-black_low_45,black_med_135_up,white_med_45_up,17,1.924158272,0.2485531,right,0.6885686,0,17,3,1,0,1,1,TRUE,FALSE,med_1_mask_low,0.75,-1,3,TRUE,2,,,,,,,,,,,,,,,,,,,165,7,3.2.2021,164.9547117
163,"['med', 1, 'high']",1,white,0.683894283,45,left,down,med,high,black_high_45-white_high_135-white_high_135-black_high_135,white_med_45_down,black_med_135_down,17,1.687069442,0.2485533,left,0.1865136,1,17,7,1,1,1,1,TRUE,FALSE,med_1_mask_high,0.75,-1,3,FALSE,6,,,,,,,,,,,,,,,,,,,165,7,3.2.2021,164.9547117
164,"['high', 3, 'low']",3,white,0.71635352,135,right,down,high,low,black_low_45-white_low_135-black_low_135-white_low_45,white_high_135_down,black_high_45_down,9,1.381453783,0.2485403,right,0.4466738,1,9,11,1,0,1,1,TRUE,FALSE,high_3_mask_low,0.75,-1,3,FALSE,4,,,,,,,,,,,,,,,,,,,165,7,3.2.2021,164.9547117
165,"['med', 2, 'low']",2,black,0.295187394,45,right,up,med,low,white_low_45-black_low_135-black_low_45-white_low_135,black_med_45_up,white_med_135_up,16,1.899886934,0.2503167,right,0.3801771,1,16,8,0,1,1,1,TRUE,FALSE,med_2_mask_low,0.75,-1,3,TRUE,7,,,,,,,,,,,,,,,,,,,165,7,3.2.2021,164.9547117
166,"['high', 1, 'high']",1,black,0.164338573,135,left,up,high,high,white_high_135-black_high_135-white_high_135-black_high_45,black_high_135_up,white_high_45_up,23,1.085333057,0.2485464,left,1.0774536,1,23,9,1,1,1,1,TRUE,FALSE,high_1_mask_high,0.75,-1,3,FALSE,5,,,,,,,,,,,,,,,,,,,165,7,3.2.2021,164.9547117
167,"['high', 3, 'high']",3,black,0.900439722,135,left,down,high,high,black_high_135-black_high_45-white_high_135-white_high_135,black_high_135_down,white_high_45_down,12,1.486388029,0.2467626,left,0.9499404,1,12,12,0,1,1,1,TRUE,FALSE,high_3_mask_high,0.75,-1,3,TRUE,7,,,,,,,,,,,,,,,,,,,165,7,3.2.2021,164.9547117
168,"['low', 1, 'high']",1,black,0.445496565,135,left,up,low,high,white_high_135-black_high_135-white_high_135-black_high_45,black_low_135_up,white_low_45_up,12,1.945842282,0.2485311,right,0.3289678,0,12,8,0,0,1,1,TRUE,FALSE,low_1_mask_high,0.75,-1,3,FALSE,4,,,,,,,,,,,,,,,,,,,165,7,3.2.2021,164.9547117
169,"['high', 1, 'low']",1,black,0.91151165,135,left,up,high,low,black_low_135-white_low_45-black_low_45-white_low_135,black_high_135_up,white_high_45_up,20,1.372749477,0.2485544,left,0.8638095,1,20,12,1,1,1,1,TRUE,FALSE,high_1_mask_low,0.75,-1,3,FALSE,8,,,,,,,,,,,,,,,,,,,165,7,3.2.2021,164.9547117
170,"['med', 2, 'low']",2,black,0.430322657,135,left,up,med,low,black_low_45-black_low_135-white_low_45-white_low_135,black_med_135_up,white_med_45_up,15,1.546303628,0.2485428,left,0.5299494,1,15,9,1,1,1,1,TRUE,FALSE,med_2_mask_low,0.75,-1,3,FALSE,7,,,,,,,,,,,,,,,,,,,165,7,3.2.2021,164.9547117
171,"['med', 3, 'high']",3,white,0.15216661,135,right,up,med,high,white_high_135-black_high_135-black_high_45-white_high_135,white_med_135_up,black_med_45_up,10,1.360056347,0.2485695,left,0.6064941,0,10,10,1,0,1,1,TRUE,FALSE,med_3_mask_high,0.75,-1,3,TRUE,5,,,,,,,,,,,,,,,,,,,165,7,3.2.2021,164.9547117
172,"['med', 3, 'low']",3,white,0.384304833,45,left,down,med,low,white_low_135-black_low_45-black_low_135-white_low_45,white_med_45_down,black_med_135_down,11,1.345728365,0.2467847,left,0.2528276,1,11,13,1,1,1,1,TRUE,FALSE,med_3_mask_low,0.75,-1,3,FALSE,6,,,,,,,,,,,,,,,,,,,165,7,3.2.2021,164.9547117
173,"['high', 1, 'low']",1,white,0.731719367,135,right,down,high,low,black_low_45-white_low_135-black_low_135-white_low_45,white_high_135_down,black_high_45_down,19,1.024618028,0.248552,right,0.2090835,1,19,13,1,1,1,1,TRUE,FALSE,high_1_mask_low,0.75,-1,3,FALSE,8,,,,,,,,,,,,,,,,,,,165,7,3.2.2021,164.9547117
174,"['high', 1, 'high']",1,black,0.884820858,135,left,up,high,high,white_high_135-white_high_135-black_high_135-black_high_45,black_high_135_up,white_high_45_up,22,1.871679147,0.250285,left,0.2790817,1,22,10,1,1,1,1,TRUE,FALSE,high_1_mask_high,0.75,-1,3,FALSE,5,,,,,,,,,,,,,,,,,,,165,7,3.2.2021,164.9547117
175,"['low', 2, 'low']",2,white,0.789954214,135,right,up,low,low,white_low_135-black_low_45-white_low_45-black_low_135,white_low_135_up,black_low_45_up,7,1.027494353,0.248548,right,0.331466,1,7,9,1,0,1,1,TRUE,FALSE,low_2_mask_low,0.75,-1,3,FALSE,4,,,,,,,,,,,,,,,,,,,165,7,3.2.2021,164.9547117
176,"['low', 3, 'low']",3,black,0.388038211,45,right,up,low,low,black_low_45-white_low_45-white_low_135-black_low_135,black_low_45_up,white_low_135_up,2,1.359194565,0.248547,left,0.213152,0,2,5,1,0,1,1,TRUE,FALSE,low_3_mask_low,0.75,-1,3,TRUE,2,,,,,,,,,,,,,,,,,,,165,7,3.2.2021,164.9547117
177,"['low', 1, 'low']",1,white,0.443704503,135,right,up,low,low,black_low_135-black_low_45-white_low_45-white_low_135,white_low_135_up,black_low_45_up,13,1.168190272,0.2485478,right,0.2720982,1,13,11,1,0,1,1,TRUE,FALSE,low_1_mask_low,0.75,-1,3,FALSE,3,,,,,,,,,,,,,,,,,,,165,7,3.2.2021,164.9547117
178,"['low', 3, 'high']",3,white,0.164552219,45,left,down,low,high,white_high_135-white_high_135-black_high_45-black_high_135,white_low_45_down,black_low_135_down,5,1.036340959,0.2485801,left,0.7825598,1,5,10,1,1,1,1,TRUE,FALSE,low_3_mask_high,0.75,-1,3,FALSE,5,,,,,,,,,,,,,,,,,,,165,7,3.2.2021,164.9547117
179,"['low', 3, 'high']",3,white,0.322473867,135,right,up,low,high,white_high_135-black_high_135-black_high_45-white_high_135,white_low_135_up,black_low_45_up,4,1.004863901,0.2485484,right,0.3525406,1,4,11,1,1,1,1,TRUE,FALSE,low_3_mask_high,0.75,-1,3,FALSE,5,,,,,,,,,,,,,,,,,,,165,7,3.2.2021,164.9547117
180,"['med', 2, 'low']",2,black,0.913017012,135,left,down,med,low,white_low_135-white_low_45-black_low_135-black_low_45,black_med_135_down,white_med_45_down,14,1.319195364,0.2503089,left,0.3194617,1,14,10,1,1,1,1,TRUE,FALSE,med_2_mask_low,0.75,-1,3,FALSE,7,,,,,,,,,,,,,,,,,,,165,7,3.2.2021,164.9547117
181,"['high', 2, 'low']",2,black,0.251799423,135,left,up,high,low,black_low_45-white_low_45-black_low_135-white_low_135,black_high_135_up,white_high_45_up,16,1.771920468,0.2485372,left,0.2448914,1,16,4,1,0,1,1,TRUE,FALSE,high_2_mask_low,0.75,-1,3,FALSE,1,,,,,,,,,,,,,,,,,,,165,7,3.2.2021,164.9547117
182,"['med', 1, 'high']",1,white,0.185077562,135,right,down,med,high,black_high_135-white_high_135-white_high_135-black_high_45,white_med_135_down,black_med_45_down,16,1.576246925,0.2488492,right,0.7124028,1,16,8,1,1,1,1,TRUE,FALSE,med_1_mask_high,0.75,-1,3,FALSE,6,,,,,,,,,,,,,,,,,,,165,7,3.2.2021,164.9547117
183,"['med', 1, 'high']",1,white,0.275837461,135,right,up,med,high,black_high_135-white_high_135-white_high_135-black_high_45,white_med_135_up,black_med_45_up,15,1.371068133,0.2485588,right,0.4527917,1,15,9,1,1,1,1,TRUE,FALSE,med_1_mask_high,0.75,-1,3,FALSE,6,,,,,,,,,,,,,,,,,,,165,7,3.2.2021,164.9547117
184,"['med', 1, 'high']",1,black,0.075456119,135,left,down,med,high,white_high_135-white_high_135-black_high_135-black_high_45,black_med_135_down,white_med_45_down,14,1.091807219,0.2488448,left,0.2277417,1,14,10,1,1,1,1,TRUE,FALSE,med_1_mask_high,0.75,-1,3,FALSE,6,,,,,,,,,,,,,,,,,,,165,7,3.2.2021,164.9547117
185,"['low', 3, 'low']",3,black,0.793422639,45,right,up,low,low,white_low_135-black_low_45-white_low_45-black_low_135,black_low_45_up,white_low_135_up,5,1.972014712,0.248545,left,0.2491174,0,5,6,0,0,1,1,TRUE,FALSE,low_3_mask_low,0.75,-1,3,FALSE,2,,,,,,,,,,,,,,,,,,,165,7,3.2.2021,164.9547117
186,"['high', 2, 'high']",2,white,0.37061771,45,left,up,high,high,black_high_135-white_high_135-white_high_135-black_high_45,white_high_45_up,black_high_135_up,11,1.164805048,0.2485459,left,0.2131668,1,11,9,1,0,1,1,TRUE,FALSE,high_2_mask_high,0.75,-1,3,FALSE,4,,,,,,,,,,,,,,,,,,,165,7,3.2.2021,164.9547117
187,"['med', 2, 'low']",2,white,0.86728931,135,right,down,med,low,black_low_135-black_low_45-white_low_45-white_low_135,white_med_135_down,black_med_45_down,13,1.999898334,0.2485446,right,0.2973451,1,13,11,1,1,1,1,TRUE,FALSE,med_2_mask_low,0.75,-1,3,FALSE,7,,,,,,,,,,,,,,,,,,,165,7,3.2.2021,164.9547117
188,"['low', 2, 'high']",2,white,0.410905121,135,right,up,low,high,black_high_45-white_high_135-black_high_135-white_high_135,white_low_135_up,black_low_45_up,8,1.905458086,0.2449707,right,1.0484665,1,8,11,1,1,1,1,TRUE,FALSE,low_2_mask_high,0.75,-1,3,FALSE,8,,,,,,,,,,,,,,,,,,,165,7,3.2.2021,164.9547117
189,"['low', 3, 'high']",3,white,0.665816966,45,left,down,low,high,white_high_135-white_high_135-black_high_135-black_high_45,white_low_45_down,black_low_135_down,3,1.266370308,0.2485475,left,0.5584675,1,3,12,1,1,1,1,TRUE,FALSE,low_3_mask_high,0.75,-1,3,FALSE,5,,,,,,,,,,,,,,,,,,,165,7,3.2.2021,164.9547117
190,"['high', 2, 'low']",2,black,0.569953566,135,left,up,high,low,black_low_45-white_low_135-black_low_135-white_low_45,black_high_135_up,white_high_45_up,15,1.820018143,0.2485467,left,0.5867439,1,15,5,1,0,1,1,TRUE,FALSE,high_2_mask_low,0.75,-1,3,FALSE,1,,,,,,,,,,,,,,,,,,,165,7,3.2.2021,164.9547117
191,"['low', 2, 'low']",2,black,0.887720518,135,left,down,low,low,white_low_135-white_low_45-black_low_45-black_low_135,black_low_135_down,white_low_45_down,6,1.01929254,0.2450299,left,1.6003329,1,6,10,1,0,1,1,TRUE,FALSE,low_2_mask_low,0.75,-1,3,FALSE,4,,,,,,,,,,,,,,,,,,,165,7,3.2.2021,164.9547117
192,"['low', 1, 'low']",1,black,0.814212927,135,left,up,low,low,black_low_135-white_low_45-black_low_45-white_low_135,black_low_135_up,white_low_45_up,12,1.563396155,0.2467661,right,0.19809,0,12,12,1,0,1,1,TRUE,FALSE,low_1_mask_low,0.75,-1,3,TRUE,4,,,,,,,,,,,,,,,,,,,165,7,3.2.2021,164.9547117
193,"['high', 2, 'low']",2,black,0.129222867,45,right,up,high,low,white_low_135-black_low_45-white_low_45-black_low_135,black_high_45_up,white_high_135_up,14,1.448636946,0.2485498,right,0.4680316,1,14,6,1,0,1,1,TRUE,FALSE,high_2_mask_low,0.75,-1,3,FALSE,1,,,,,,,,,,,,,,,,,,,165,7,3.2.2021,164.9547117
194,"['low', 2, 'low']",2,black,0.669755988,45,right,up,low,low,white_low_45-white_low_135-black_low_45-black_low_135,black_low_45_up,white_low_135_up,5,1.379198694,0.2468599,right,0.3486213,1,5,11,1,0,1,1,TRUE,FALSE,low_2_mask_low,0.75,-1,3,FALSE,4,,,,,,,,,,,,,,,,,,,165,7,3.2.2021,164.9547117
195,"['high', 1, 'high']",1,black,0.590272685,45,right,down,high,high,black_high_45-white_high_135-white_high_135-black_high_135,black_high_45_down,white_high_135_down,21,1.506898606,0.2488526,right,1.0477713,1,21,11,1,1,1,1,TRUE,FALSE,high_1_mask_high,0.75,-1,3,FALSE,5,,,,,,,,,,,,,,,,,,,165,7,3.2.2021,164.9547117
196,"['high', 2, 'low']",2,white,0.794138579,45,left,down,high,low,black_low_45-black_low_135-white_low_135-white_low_45,white_high_45_down,black_high_135_down,13,1.680020074,0.2485482,left,0.9796246,1,13,7,1,0,1,1,TRUE,FALSE,high_2_mask_low,0.75,-1,3,FALSE,1,,,,,,,,,,,,,,,,,,,165,7,3.2.2021,164.9547117
197,"['high', 1, 'high']",1,black,0.795955817,135,left,up,high,high,white_high_135-white_high_135-black_high_45-black_high_135,black_high_135_up,white_high_45_up,20,1.246869984,0.2485468,left,1.8413243,1,20,12,1,1,1,1,TRUE,FALSE,high_1_mask_high,0.75,-1,3,FALSE,5,,,,,,,,,,,,,,,,,,,165,7,3.2.2021,164.9547117
198,"['med', 1, 'low']",1,black,0.713763659,45,right,up,med,low,white_low_135-black_low_135-black_low_45-white_low_45,black_med_45_up,white_med_135_up,20,1.926106304,0.2451441,left,1.918312,0,20,4,0,0,1,1,TRUE,FALSE,med_1_mask_low,0.75,-1,3,FALSE,2,,,,,,,,,,,,,,,,,,,165,7,3.2.2021,164.9547117
199,"['high', 3, 'high']",3,white,0.736366606,135,right,up,high,high,black_high_45-black_high_135-white_high_135-white_high_135,white_high_135_up,black_high_45_up,11,1.730064856,0.2488501,left,0.5139218,0,11,13,1,1,1,1,TRUE,FALSE,high_3_mask_high,0.75,-1,3,TRUE,8,,,,,,,,,,,,,,,,,,,165,7,3.2.2021,164.9547117
200,"['med', 1, 'high']",1,white,0.520410791,135,right,up,med,high,white_high_135-black_high_135-white_high_135-black_high_45,white_med_135_up,black_med_45_up,13,1.191135108,0.2485438,right,0.3263336,1,13,11,1,1,1,1,TRUE,FALSE,med_1_mask_high,0.75,-1,3,FALSE,6,,,,,,,,,,,,,,,,,,,165,7,3.2.2021,164.9547117
201,"['med', 1, 'low']",1,white,0.312009191,45,left,up,med,low,black_low_135-white_low_45-white_low_135-black_low_45,white_med_45_up,black_med_135_up,23,1.219418052,0.2485412,left,0.2711718,1,23,5,0,0,1,1,TRUE,FALSE,med_1_mask_low,0.75,-1,3,TRUE,3,,,,,,,,,,,,,,,,,,,165,7,3.2.2021,164.9547117
202,"['low', 3, 'low']",3,black,0.734778798,45,right,up,low,low,black_low_135-white_low_135-white_low_45-black_low_45,black_low_45_up,white_low_135_up,8,1.884171859,0.2485476,right,0.5804991,1,8,7,0,0,1,1,TRUE,FALSE,low_3_mask_low,0.75,-1,3,TRUE,3,,,,,,,,,,,,,,,,,,,165,7,3.2.2021,164.9547117
203,"['high', 2, 'low']",2,white,0.720492309,45,left,up,high,low,black_low_135-white_low_135-white_low_45-black_low_45,white_high_45_up,black_high_135_up,12,1.015621908,0.2485512,left,0.2399485,1,12,8,1,0,1,1,TRUE,FALSE,high_2_mask_low,0.75,-1,3,FALSE,1,,,,,,,,,,,,,,,,,,,165,7,3.2.2021,164.9547117
204,"['med', 2, 'high']",2,white,0.458004553,45,left,up,med,high,white_high_135-black_high_45-white_high_135-black_high_135,white_med_45_up,black_med_135_up,10,1.300153603,0.248551,left,0.3708986,1,10,10,0,1,1,1,TRUE,FALSE,med_2_mask_high,0.75,-1,3,TRUE,6,,,,,,,,,,,,,,,,,,,165,7,3.2.2021,164.9547117
205,"['med', 3, 'high']",3,white,0.451909551,135,right,down,med,high,black_high_135-white_high_135-black_high_45-white_high_135,white_med_135_down,black_med_45_down,13,1.704192354,0.2488382,right,0.3697101,1,13,11,0,1,1,1,TRUE,FALSE,med_3_mask_high,0.75,-1,3,TRUE,6,,,,,,,,,,,,,,,,,,,165,7,3.2.2021,164.9547117
206,"['med', 3, 'high']",3,white,0.59420821,45,left,up,med,high,black_high_45-white_high_135-black_high_135-white_high_135,white_med_45_up,black_med_135_up,12,1.797240521,0.2485464,left,0.3913218,1,12,12,1,1,1,1,TRUE,FALSE,med_3_mask_high,0.75,-1,3,FALSE,6,,,,,,,,,,,,,,,,,,,165,7,3.2.2021,164.9547117
207,"['high', 3, 'low']",3,black,0.212553782,135,left,down,high,low,black_low_45-white_low_45-white_low_135-black_low_135,black_high_135_down,white_high_45_down,8,1.618786876,0.2467885,right,0.4002355,0,8,12,1,0,1,1,TRUE,FALSE,high_3_mask_low,0.75,-1,3,TRUE,5,,,,,,,,,,,,,,,,,,,165,7,3.2.2021,164.9547117
208,"['med', 2, 'low']",2,black,0.894959355,45,right,up,med,low,black_low_135-white_low_45-white_low_135-black_low_45,black_med_45_up,white_med_135_up,12,1.69417713,0.2485495,left,0.2599364,0,12,12,1,1,1,1,TRUE,FALSE,med_2_mask_low,0.75,-1,3,TRUE,8,,,,,,,,,,,,,,,,,,,165,7,3.2.2021,164.9547117
209,"['low', 2, 'high']",2,white,0.626849641,135,right,down,low,high,black_high_45-white_high_135-white_high_135-black_high_135,white_low_135_down,black_low_45_down,7,1.40248607,0.2503025,right,0.2656494,1,7,12,1,1,1,1,TRUE,FALSE,low_2_mask_high,0.75,-1,3,FALSE,8,,,,,,,,,,,,,,,,,,,165,7,3.2.2021,164.9547117
210,"['med', 3, 'low']",3,white,0.288458455,135,right,down,med,low,black_low_45-white_low_135-black_low_135-white_low_45,white_med_135_down,black_med_45_down,10,1.720413416,0.2485456,right,0.1789589,1,10,14,1,1,1,1,TRUE,FALSE,med_3_mask_low,0.75,-1,3,FALSE,6,,,,,,,,,,,,,,,,,,,165,7,3.2.2021,164.9547117
211,"['high', 3, 'low']",3,black,0.076006457,135,left,up,high,low,black_low_135-white_low_45-black_low_45-white_low_135,black_high_135_up,white_high_45_up,11,1.162379974,0.2502903,left,0.2489253,1,11,13,0,1,1,1,TRUE,FALSE,high_3_mask_low,0.75,-1,3,TRUE,6,,,,,,,,,,,,,,,,,,,165,7,3.2.2021,164.9547117
212,"['low', 2, 'low']",2,black,0.805347442,135,left,up,low,low,black_low_135-white_low_135-white_low_45-black_low_45,black_low_135_up,white_low_45_up,4,1.439881818,0.2502905,right,0.107757,0,4,12,1,0,1,1,TRUE,FALSE,low_2_mask_low,0.75,-1,3,TRUE,5,,,,,,,,,,,,,,,,,,,165,7,3.2.2021,164.9547117
213,"['high', 2, 'low']",2,white,0.269099177,45,left,up,high,low,white_low_45-black_low_135-black_low_45-white_low_135,white_high_45_up,black_high_135_up,11,1.888094499,0.2485436,right,0.0650165,0,11,9,1,0,1,1,TRUE,FALSE,high_2_mask_low,0.75,-1,3,TRUE,2,,,,,,,,,,,,,,,,,,,165,7,3.2.2021,164.9547117
214,"['med', 1, 'high']",1,black,0.470976942,135,left,up,med,high,black_high_45-black_high_135-white_high_135-white_high_135,black_med_135_up,white_med_45_up,12,1.093462637,0.2485449,right,0.130951,0,12,12,1,1,1,1,TRUE,FALSE,med_1_mask_high,0.75,-1,3,TRUE,7,,,,,,,,,,,,,,,,,,,165,7,3.2.2021,164.9547117
215,"['high', 3, 'low']",3,white,0.623397759,45,left,down,high,low,black_low_135-white_low_135-white_low_45-black_low_45,white_high_45_down,black_high_135_down,10,1.934972389,0.2485486,left,0.0566398,1,10,14,1,1,1,1,TRUE,FALSE,high_3_mask_low,0.75,-1,3,FALSE,6,,,,,,,,,,,,,,,,,,,165,7,3.2.2021,164.9547117
216,"['high', 3, 'low']",3,black,0.284481597,135,left,up,high,low,black_low_135-black_low_45-white_low_45-white_low_135,black_high_135_up,white_high_45_up,9,1.743480345,0.2485562,right,0.4469439,0,9,15,1,1,1,1,TRUE,FALSE,high_3_mask_low,0.75,-1,3,TRUE,7,,,,,,,,,,,,,,,,,,,165,7,3.2.2021,164.9547117
217,"['med', 2, 'high']",2,black,0.049447348,135,left,down,med,high,white_high_135-black_high_45-black_high_135-white_high_135,black_med_135_down,white_med_45_down,9,1.106184722,0.2485373,left,0.1168692,1,9,11,1,1,1,1,TRUE,FALSE,med_2_mask_high,0.75,-1,3,FALSE,6,,,,,,,,,,,,,,,,,,,165,7,3.2.2021,164.9547117
218,"['low', 2, 'high']",2,white,0.086615931,135,right,up,low,high,black_high_45-white_high_135-black_high_135-white_high_135,white_low_135_up,black_low_45_up,6,1.844587551,0.246763,left,0.2079965,0,6,13,1,1,1,1,TRUE,FALSE,low_2_mask_high,0.75,-1,3,TRUE,9,,,,,,,,,,,,,,,,,,,165,7,3.2.2021,164.9547117
219,"['high', 1, 'low']",1,white,0.908294952,45,left,down,high,low,black_low_45-black_low_135-white_low_45-white_low_135,white_high_45_down,black_high_135_down,18,1.365850075,0.2485425,left,0.0142261,1,18,14,1,1,1,1,TRUE,FALSE,high_1_mask_low,0.75,-1,3,FALSE,8,,,,,,,,,,,,,,,,,,,165,7,3.2.2021,164.9547117
220,"['med', 3, 'high']",3,white,0.507461477,45,left,up,med,high,white_high_135-black_high_45-white_high_135-black_high_135,white_med_45_up,black_med_135_up,11,1.437200047,0.2485447,left,0.3893818,1,11,13,1,1,1,1,TRUE,FALSE,med_3_mask_high,0.75,-1,3,FALSE,6,,,,,,,,,,,,,,,,,,,165,7,3.2.2021,164.9547117
221,"['low', 3, 'low']",3,white,0.325683103,45,left,up,low,low,black_low_45-white_low_135-white_low_45-black_low_135,white_low_45_up,black_low_135_up,7,1.67449472,0.2467469,left,0.2861648,1,7,8,1,0,1,1,TRUE,FALSE,low_3_mask_low,0.75,-1,3,FALSE,3,,,,,,,,,,,,,,,,,,,165,7,3.2.2021,164.9547117
222,"['med', 2, 'low']",2,white,0.53449151,45,left,down,med,low,white_low_45-black_low_135-white_low_135-black_low_45,white_med_45_down,black_med_135_down,15,1.163096393,0.2485439,left,0.2355681,1,15,13,0,1,1,1,TRUE,FALSE,med_2_mask_low,0.75,-1,3,TRUE,9,,,,,,,,,,,,,,,,,,,165,7,3.2.2021,164.9547117
223,"['med', 1, 'low']",1,black,0.296670813,135,left,down,med,low,white_low_45-black_low_45-white_low_135-black_low_135,black_med_135_down,white_med_45_down,22,1.665374144,0.2485431,left,0.2919218,1,22,6,1,0,1,1,TRUE,FALSE,med_1_mask_low,0.75,-1,3,FALSE,3,,,,,,,,,,,,,,,,,,,165,7,3.2.2021,164.9547117
224,"['high', 3, 'high']",3,white,0.649421079,45,left,down,high,high,white_high_135-black_high_45-white_high_135-black_high_135,white_high_45_down,black_high_135_down,14,1.994879551,0.2488445,left,0.2177652,1,14,14,0,1,1,1,TRUE,FALSE,high_3_mask_high,0.75,-1,3,TRUE,9,,,,,,,,,,,,,,,,,,,165,7,3.2.2021,164.9547117
225,"['high', 3, 'low']",3,black,0.77851458,135,left,down,high,low,black_low_45-white_low_45-black_low_135-white_low_135,black_high_135_down,white_high_45_down,12,1.052258457,0.2485503,left,0.3327106,1,12,16,0,1,1,1,TRUE,FALSE,high_3_mask_low,0.75,-1,3,TRUE,8,,,,,,,,,,,,,,,,,,,165,7,3.2.2021,164.9547117
226,"['med', 3, 'high']",3,white,0.298315893,45,left,down,med,high,black_high_45-white_high_135-white_high_135-black_high_135,white_med_45_down,black_med_135_down,10,1.712376781,0.2485483,left,0.2205814,1,10,14,1,1,1,1,TRUE,FALSE,med_3_mask_high,0.75,-1,3,FALSE,6,,,,,,,,,,,,,,,,,,,165,7,3.2.2021,164.9547117
227,"['med', 2, 'low']",2,white,0.248056709,135,right,up,med,low,black_low_45-black_low_135-white_low_135-white_low_45,white_med_135_up,black_med_45_up,14,1.597188035,0.2485481,right,0.2511155,1,14,14,1,1,1,1,TRUE,FALSE,med_2_mask_low,0.75,-1,3,FALSE,9,,,,,,,,,,,,,,,,,,,165,7,3.2.2021,164.9547117
228,"['high', 3, 'high']",3,black,0.732164481,45,right,up,high,high,white_high_135-black_high_45-white_high_135-black_high_135,black_high_45_up,white_high_135_up,13,1.297428406,0.2488471,right,0.2392306,1,13,15,1,1,1,1,TRUE,FALSE,high_3_mask_high,0.75,-1,3,FALSE,9,,,,,,,,,,,,,,,,,,,165,7,3.2.2021,164.9547117
229,"['low', 1, 'low']",1,white,0.129711224,135,right,down,low,low,white_low_45-white_low_135-black_low_135-black_low_45,white_low_135_down,black_low_45_down,15,1.363467117,0.2485762,right,0.2253966,1,15,13,0,0,1,1,TRUE,FALSE,low_1_mask_low,0.75,-1,3,TRUE,5,,,,,,,,,,,,,,,,,,,165,7,3.2.2021,164.9547117
230,"['high', 2, 'low']",2,black,0.847087111,45,right,up,high,low,black_low_135-white_low_135-white_low_45-black_low_45,black_high_45_up,white_high_135_up,14,1.338304771,0.2485513,right,0.8865946,1,14,10,0,0,1,1,TRUE,FALSE,high_2_mask_low,0.75,-1,3,TRUE,3,,,,,,,,,,,,,,,,,,,165,7,3.2.2021,164.9547117
231,"['med', 1, 'low']",1,white,0.303077428,135,right,down,med,low,black_low_135-white_low_45-black_low_45-white_low_135,white_med_135_down,black_med_45_down,21,1.29486706,0.2485478,right,0.1789919,1,21,7,1,0,1,1,TRUE,FALSE,med_1_mask_low,0.75,-1,3,FALSE,3,,,,,,,,,,,,,,,,,,,165,7,3.2.2021,164.9547117
232,"['med', 3, 'high']",3,black,0.314341051,135,left,down,med,high,black_high_135-black_high_45-white_high_135-white_high_135,black_med_135_down,white_med_45_down,9,1.062688212,0.2502864,right,0.4039351,0,9,15,1,1,1,1,TRUE,FALSE,med_3_mask_high,0.75,-1,3,TRUE,7,,,,,,,,,,,,,,,,,,,165,7,3.2.2021,164.9547117
233,"['high', 1, 'low']",1,black,0.116403546,135,left,down,high,low,black_low_135-black_low_45-white_low_135-white_low_45,black_high_135_down,white_high_45_down,17,1.764074843,0.2485519,left,0.5109754,1,17,15,1,1,1,1,TRUE,FALSE,high_1_mask_low,0.75,-1,3,FALSE,8,,,,,,,,,,,,,,,,,,,165,7,3.2.2021,164.9547117
234,"['med', 3, 'high']",3,white,0.38881252,45,left,down,med,high,black_high_45-white_high_135-white_high_135-black_high_135,white_med_45_down,black_med_135_down,12,1.322667873,0.2485418,left,0.3497905,1,12,16,0,1,1,1,TRUE,FALSE,med_3_mask_high,0.75,-1,3,TRUE,8,,,,,,,,,,,,,,,,,,,165,7,3.2.2021,164.9547117
235,"['low', 1, 'low']",1,black,0.61895788,45,right,up,low,low,black_low_135-white_low_135-white_low_45-black_low_45,black_low_45_up,white_low_135_up,14,1.449994695,0.248543,right,0.416786,1,14,14,1,1,1,1,TRUE,FALSE,low_1_mask_low,0.75,-1,3,FALSE,5,,,,,,,,,,,,,,,,,,,165,7,3.2.2021,164.9547117
236,"['low', 1, 'low']",1,black,0.754060441,135,left,up,low,low,white_low_135-black_low_45-white_low_45-black_low_135,black_low_135_up,white_low_45_up,13,1.095340668,0.2485433,left,0.2703233,1,13,15,1,1,1,1,TRUE,FALSE,low_1_mask_low,0.75,-1,3,FALSE,5,,,,,,,,,,,,,,,,,,,165,7,3.2.2021,164.9547117
237,"['high', 3, 'low']",3,white,0.378701067,135,right,up,high,low,black_low_45-white_low_135-white_low_45-black_low_135,white_high_135_up,black_high_45_up,11,1.656463503,0.2485528,right,0.218261,1,11,17,1,1,1,1,TRUE,FALSE,high_3_mask_low,0.75,-1,3,FALSE,8,,,,,,,,,,,,,,,,,,,165,7,3.2.2021,164.9547117
238,"['high', 2, 'low']",2,white,0.038629506,45,left,down,high,low,white_low_135-white_low_45-black_low_135-black_low_45,white_high_45_down,black_high_135_down,13,1.245654129,0.2485481,left,0.2104353,1,13,11,1,0,1,1,TRUE,FALSE,high_2_mask_low,0.75,-1,3,FALSE,3,,,,,,,,,,,,,,,,,,,165,7,3.2.2021,164.9547117
239,"['high', 1, 'high']",1,black,0.921709501,45,right,down,high,high,white_high_135-black_high_135-white_high_135-black_high_45,black_high_45_down,white_high_135_down,19,1.287201434,0.2467022,right,0.3319741,1,19,13,1,1,1,1,TRUE,FALSE,high_1_mask_high,0.75,-1,3,FALSE,5,,,,,,,,,,,,,,,,,,,165,7,3.2.2021,164.9547117
240,"['low', 3, 'low']",3,white,0.823409855,135,right,up,low,low,white_low_45-white_low_135-black_low_135-black_low_45,white_low_135_up,black_low_45_up,6,1.28510785,0.2488471,left,0.2420384,0,6,9,1,0,1,1,TRUE,FALSE,low_3_mask_low,0.75,-1,3,TRUE,4,,,,,,,,,,,,,,,,,,,165,7,3.2.2021,164.9547117
241,"['low', 1, 'low']",1,black,0.301566487,135,left,down,low,low,white_low_45-white_low_135-black_low_135-black_low_45,black_low_135_down,white_low_45_down,12,1.262275918,0.2466926,left,0.3876467,1,12,16,1,1,1,1,TRUE,FALSE,low_1_mask_low,0.75,-1,3,FALSE,5,,,,,,,,,,,,,,,,,,,165,7,3.2.2021,164.9547117
242,"['high', 2, 'high']",2,white,0.578672632,45,left,down,high,high,white_high_135-black_high_45-black_high_135-white_high_135,white_high_45_down,black_high_135_down,10,1.336602298,0.2502969,left,0.3095231,1,10,10,1,0,1,1,TRUE,FALSE,high_2_mask_high,0.75,-1,3,FALSE,4,,,,,,,,,,,,,,,,,,,165,7,3.2.2021,164.9547117
243,"['high', 1, 'low']",1,black,0.279166117,45,right,up,high,low,black_low_135-white_low_135-white_low_45-black_low_45,black_high_45_up,white_high_135_up,16,1.647825394,0.2469576,right,0.8540782,1,16,16,1,1,1,1,TRUE,FALSE,high_1_mask_low,0.75,-1,3,FALSE,8,,,,,,,,,,,,,,,,,,,165,7,3.2.2021,164.9547117
244,"['low', 2, 'low']",2,black,0.298435642,45,right,up,low,low,black_low_45-white_low_135-white_low_45-black_low_135,black_low_45_up,white_low_135_up,7,1.061426859,0.2485542,right,0.4478207,1,7,13,0,1,1,1,TRUE,FALSE,low_2_mask_low,0.75,-1,3,TRUE,6,,,,,,,,,,,,,,,,,,,165,7,3.2.2021,164.9547117
245,"['high', 3, 'high']",3,white,0.106171298,45,left,up,high,high,white_high_135-black_high_135-black_high_45-white_high_135,white_high_45_up,black_high_135_up,12,1.222008933,0.2485448,left,0.2498074,1,12,16,1,1,1,1,TRUE,FALSE,high_3_mask_high,0.75,-1,3,FALSE,9,,,,,,,,,,,,,,,,,,,165,7,3.2.2021,164.9547117
246,"['med', 3, 'low']",3,black,0.121864385,45,right,up,med,low,black_low_45-white_low_45-black_low_135-white_low_135,black_med_45_up,white_med_135_up,9,1.578164734,0.248545,right,0.160368,1,9,15,1,1,1,1,TRUE,FALSE,med_3_mask_low,0.75,-1,3,FALSE,6,,,,,,,,,,,,,,,,,,,165,7,3.2.2021,164.9547117
247,"['med', 2, 'high']",2,white,0.905468454,45,left,up,med,high,black_high_135-white_high_135-black_high_45-white_high_135,white_med_45_up,black_med_135_up,8,1.792797481,0.2467599,left,0.0915836,1,8,12,1,1,1,1,TRUE,FALSE,med_2_mask_high,0.75,-1,3,FALSE,6,,,,,,,,,,,,,,,,,,,165,7,3.2.2021,164.9547117
248,"['med', 2, 'high']",2,black,0.840170071,135,left,up,med,high,white_high_135-black_high_45-black_high_135-white_high_135,black_med_135_up,white_med_45_up,7,1.342071943,0.248845,left,0.1355566,1,7,13,1,1,1,1,TRUE,FALSE,med_2_mask_high,0.75,-1,3,FALSE,6,,,,,,,,,,,,,,,,,,,165,7,3.2.2021,164.9547117
249,"['low', 1, 'high']",1,black,0.840566284,45,right,down,low,high,black_high_135-black_high_45-white_high_135-white_high_135,black_low_45_down,white_low_135_down,15,1.417288448,0.2488402,left,0.2056969,0,15,9,0,0,1,1,TRUE,FALSE,low_1_mask_high,0.75,-1,3,FALSE,4,,,,,,,,,,,,,,,,,,,165,7,3.2.2021,164.9547117
250,"['low', 2, 'high']",2,black,0.650317267,135,left,up,low,high,black_high_45-black_high_135-white_high_135-white_high_135,black_low_135_up,white_low_45_up,9,1.03785673,0.2453358,left,0.1653335,1,9,14,0,1,1,1,TRUE,FALSE,low_2_mask_high,0.75,-1,3,TRUE,10,,,,,,,,,,,,,,,,,,,165,7,3.2.2021,164.9547117
251,"['high', 2, 'high']",2,black,0.933147477,45,right,down,high,high,white_high_135-black_high_45-white_high_135-black_high_135,black_high_45_down,white_high_135_down,9,1.599389175,0.2485457,left,0.6172477,0,9,11,1,0,1,1,TRUE,FALSE,high_2_mask_high,0.75,-1,3,TRUE,5,,,,,,,,,,,,,,,,,,,165,7,3.2.2021,164.9547117
252,"['high', 3, 'low']",3,white,0.872805066,135,right,up,high,low,black_low_45-black_low_135-white_low_45-white_low_135,white_high_135_up,black_high_45_up,10,1.226298196,0.2485509,right,0.0856694,1,10,18,1,1,1,1,TRUE,FALSE,high_3_mask_low,0.75,-1,3,FALSE,8,,,,,,,,,,,,,,,,,,,165,7,3.2.2021,164.9547117
253,"['med', 1, 'low']",1,white,0.418266844,45,left,up,med,low,black_low_45-black_low_135-white_low_135-white_low_45,white_med_45_up,black_med_135_up,20,1.989157241,0.2485524,left,0.1194012,1,20,8,1,0,1,1,TRUE,FALSE,med_1_mask_low,0.75,-1,3,FALSE,3,,,,,,,,,,,,,,,,,,,165,7,3.2.2021,164.9547117
254,"['low', 3, 'low']",3,white,0.916529402,135,right,down,low,low,black_low_135-black_low_45-white_low_135-white_low_45,white_low_135_down,black_low_45_down,9,1.664530282,0.2467631,right,0.2059489,1,9,10,0,0,1,1,TRUE,FALSE,low_3_mask_low,0.75,-1,3,TRUE,5,,,,,,,,,,,,,,,,,,,165,7,3.2.2021,164.9547117
255,"['high', 1, 'low']",1,white,0.373790872,45,left,down,high,low,white_low_45-white_low_135-black_low_135-black_low_45,white_high_45_down,black_high_135_down,15,1.014155289,0.2485526,left,0.1730573,1,15,17,1,1,1,1,TRUE,FALSE,high_1_mask_low,0.75,-1,3,FALSE,8,,,,,,,,,,,,,,,,,,,165,7,3.2.2021,164.9547117
256,"['med', 1, 'low']",1,white,0.988054946,45,left,down,med,low,black_low_135-white_low_45-white_low_135-black_low_45,white_med_45_down,black_med_135_down,19,1.172889508,0.2485476,left,0.1416412,1,19,9,1,0,1,1,TRUE,FALSE,med_1_mask_low,0.75,-1,3,FALSE,3,,,,,,,,,,,,,,,,,,,165,7,3.2.2021,164.9547117
257,"['med', 2, 'low']",2,black,0.036239424,135,left,up,med,low,black_low_45-white_low_135-black_low_135-white_low_45,black_med_135_up,white_med_45_up,13,1.985841974,0.2485431,left,0.3126158,1,13,15,1,1,1,1,TRUE,FALSE,med_2_mask_low,0.75,-1,3,FALSE,9,,,,,,,,,,,,,,,,,,,165,7,3.2.2021,164.9547117
258,"['med', 1, 'high']",1,white,0.215743641,45,left,down,med,high,white_high_135-white_high_135-black_high_135-black_high_45,white_med_45_down,black_med_135_down,15,1.599294247,0.2467637,left,0.0555141,1,15,13,0,1,1,1,TRUE,FALSE,med_1_mask_high,0.75,-1,3,TRUE,8,,,,,,,,,,,,,,,,,,,165,7,3.2.2021,164.9547117
259,"['high', 2, 'low']",2,white,0.005856635,135,right,up,high,low,black_low_135-white_low_45-black_low_45-white_low_135,white_high_135_up,black_high_45_up,12,1.192799685,0.2485489,right,0.1430013,1,12,12,1,0,1,1,TRUE,FALSE,high_2_mask_low,0.75,-1,3,FALSE,3,,,,,,,,,,,,,,,,,,,165,7,3.2.2021,164.9547117
260,"['med', 3, 'low']",3,white,0.648924917,135,right,down,med,low,black_low_45-black_low_135-white_low_45-white_low_135,white_med_135_down,black_med_45_down,8,1.124466782,0.2485468,right,0.1859613,1,8,16,1,1,1,1,TRUE,FALSE,med_3_mask_low,0.75,-1,3,FALSE,6,,,,,,,,,,,,,,,,,,,165,7,3.2.2021,164.9547117
261,"['high', 2, 'high']",2,black,0.154946065,135,left,down,high,high,black_high_135-white_high_135-black_high_45-white_high_135,black_high_135_down,white_high_45_down,12,1.455805285,0.2485676,left,0.2008932,1,12,12,0,1,1,1,TRUE,FALSE,high_2_mask_high,0.75,-1,3,TRUE,6,,,,,,,,,,,,,,,,,,,165,7,3.2.2021,164.9547117
262,"['high', 3, 'high']",3,white,0.313299303,135,right,up,high,high,white_high_135-black_high_45-white_high_135-black_high_135,white_high_135_up,black_high_45_up,11,1.050423235,0.2485471,right,0.04986,1,11,17,1,1,1,1,TRUE,FALSE,high_3_mask_high,0.75,-1,3,FALSE,9,,,,,,,,,,,,,,,,,,,165,7,3.2.2021,164.9547117
263,"['low', 2, 'high']",2,white,0.589298336,135,right,up,low,high,black_high_135-white_high_135-black_high_45-white_high_135,white_low_135_up,black_low_45_up,8,1.75349001,0.2502908,right,0.1192717,1,8,15,1,1,1,1,TRUE,FALSE,low_2_mask_high,0.75,-1,3,FALSE,10,,,,,,,,,,,,,,,,,,,165,7,3.2.2021,164.9547117
264,"['low', 1, 'high']",1,white,0.398262098,45,left,down,low,high,black_high_135-white_high_135-black_high_45-white_high_135,white_low_45_down,black_low_135_down,18,1.6586118,0.2467803,left,0.0099327,1,18,10,0,0,1,1,TRUE,FALSE,low_1_mask_high,0.75,-1,3,TRUE,5,,,,,,,,,,,,,,,,,,,165,7,3.2.2021,164.9547117
265,"['low', 2, 'high']",2,white,0.926647719,135,right,down,low,high,black_high_135-black_high_45-white_high_135-white_high_135,white_low_135_down,black_low_45_down,7,1.289784897,0.2485402,right,0.097034,1,7,16,1,1,1,1,TRUE,FALSE,low_2_mask_high,0.75,-1,3,FALSE,10,,,,,,,,,,,,,,,,,,,165,7,3.2.2021,164.9547117
266,"['low', 1, 'high']",1,black,0.819856143,135,left,up,low,high,black_high_45-white_high_135-black_high_135-white_high_135,black_low_135_up,white_low_45_up,17,1.674289415,0.2485429,left,0.3364597,1,17,11,1,1,1,1,TRUE,FALSE,low_1_mask_high,0.75,-1,3,FALSE,5,,,,,,,,,,,,,,,,,,,165,7,3.2.2021,164.9547117
267,"['low', 1, 'high']",1,black,0.242788098,135,left,up,low,high,black_high_135-white_high_135-white_high_135-black_high_45,black_low_135_up,white_low_45_up,16,1.278330888,0.2485538,left,0.4490201,1,16,12,1,1,1,1,TRUE,FALSE,low_1_mask_high,0.75,-1,3,FALSE,5,,,,,,,,,,,,,,,,,,,165,7,3.2.2021,164.9547117
268,"['low', 3, 'high']",3,white,0.959063678,45,left,down,low,high,black_high_45-black_high_135-white_high_135-white_high_135,white_low_45_down,black_low_135_down,2,1.875306076,0.2467211,right,0.2369028,0,2,13,1,1,1,1,TRUE,FALSE,low_3_mask_high,0.75,-1,3,TRUE,6,,,,,,,,,,,,,,,,,,,165,7,3.2.2021,164.9547117
269,"['high', 1, 'low']",1,white,0.134823507,45,left,down,high,low,white_low_45-white_low_135-black_low_45-black_low_135,white_high_45_down,black_high_135_down,14,1.795170958,0.2485421,left,0.3186838,1,14,18,1,1,1,1,TRUE,FALSE,high_1_mask_low,0.75,-1,3,FALSE,8,,,,,,,,,,,,,,,,,,,165,7,3.2.2021,164.9547117
270,"['high', 2, 'high']",2,black,0.044688235,45,right,up,high,high,black_high_135-white_high_135-black_high_45-white_high_135,black_high_45_up,white_high_135_up,11,1.894944169,0.2485459,right,0.248589,1,11,13,1,1,1,1,TRUE,FALSE,high_2_mask_high,0.75,-1,3,FALSE,6,,,,,,,,,,,,,,,,,,,165,7,3.2.2021,164.9547117
271,"['low', 1, 'high']",1,white,0.293722313,45,left,down,low,high,white_high_135-white_high_135-black_high_135-black_high_45,white_low_45_down,black_low_135_down,15,1.831530479,0.2485485,left,0.2689021,1,15,13,1,1,1,1,TRUE,FALSE,low_1_mask_high,0.75,-1,3,FALSE,5,,,,,,,,,,,,,,,,,,,165,7,3.2.2021,164.9547117
272,"['med', 2, 'low']",2,black,0.074608045,135,left,up,med,low,black_low_135-white_low_45-white_low_135-black_low_45,black_med_135_up,white_med_45_up,12,1.049715659,0.2467519,right,0.1887138,0,12,16,1,1,1,1,TRUE,FALSE,med_2_mask_low,0.75,-1,3,TRUE,10,,,,,,,,,,,,,,,,,,,165,7,3.2.2021,164.9547117
273,"['high', 1, 'high']",1,white,0.28527532,45,left,up,high,high,white_high_135-white_high_135-black_high_45-black_high_135,white_high_45_up,black_high_135_up,18,1.945951553,0.2485477,left,0.2150257,1,18,14,1,1,1,1,TRUE,FALSE,high_1_mask_high,0.75,-1,3,FALSE,5,,,,,,,,,,,,,,,,,,,165,7,3.2.2021,164.9547117
274,"['med', 1, 'high']",1,white,0.532734573,45,left,down,med,high,black_high_135-white_high_135-white_high_135-black_high_45,white_med_45_down,black_med_135_down,14,1.272702299,0.2467803,left,0.2355959,1,14,14,1,1,1,1,TRUE,FALSE,med_1_mask_high,0.75,-1,3,FALSE,8,,,,,,,,,,,,,,,,,,,165,7,3.2.2021,164.9547117
275,"['med', 1, 'low']",1,black,0.313069691,135,left,up,med,low,white_low_135-white_low_45-black_low_135-black_low_45,black_med_135_up,white_med_45_up,18,1.58215951,0.2502865,right,0.2348338,0,18,10,1,0,1,1,TRUE,FALSE,med_1_mask_low,0.75,-1,3,TRUE,4,,,,,,,,,,,,,,,,,,,165,7,3.2.2021,164.9547117
276,"['high', 2, 'low']",2,white,0.642872568,45,left,up,high,low,black_low_135-white_low_45-white_low_135-black_low_45,white_high_45_up,black_high_135_up,11,1.890284845,0.2485378,left,0.182894,1,11,13,1,0,1,1,TRUE,FALSE,high_2_mask_low,0.75,-1,3,FALSE,3,,,,,,,,,,,,,,,,,,,165,7,3.2.2021,164.9547117
277,"['med', 3, 'high']",3,black,0.126035857,45,right,down,med,high,white_high_135-white_high_135-black_high_45-black_high_135,black_med_45_down,white_med_135_down,11,1.283071506,0.2485504,right,0.1921183,1,11,17,1,1,1,1,TRUE,FALSE,med_3_mask_high,0.75,-1,3,FALSE,8,,,,,,,,,,,,,,,,,,,165,7,3.2.2021,164.9547117
278,"['low', 2, 'low']",2,white,0.829993432,135,right,up,low,low,black_low_45-black_low_135-white_low_135-white_low_45,white_low_135_up,black_low_45_up,6,1.798229965,0.2485496,right,0.2527227,1,6,14,1,1,1,1,TRUE,FALSE,low_2_mask_low,0.75,-1,3,FALSE,6,,,,,,,,,,,,,,,,,,,165,7,3.2.2021,164.9547117
279,"['low', 1, 'low']",1,black,0.27025058,45,right,up,low,low,black_low_45-black_low_135-white_low_45-white_low_135,black_low_45_up,white_low_135_up,11,1.607977541,0.2485462,left,0.2776794,0,11,17,1,1,1,1,TRUE,FALSE,low_1_mask_low,0.75,-1,3,TRUE,6,,,,,,,,,,,,,,,,,,,165,7,3.2.2021,164.9547117
280,"['med', 1, 'low']",1,black,0.557173074,45,right,up,med,low,white_low_135-white_low_45-black_low_135-black_low_45,black_med_45_up,white_med_135_up,21,1.635469151,0.2485489,right,0.287485,1,21,11,0,0,1,1,TRUE,FALSE,med_1_mask_low,0.75,-1,3,TRUE,5,,,,,,,,,,,,,,,,,,,165,7,3.2.2021,164.9547117
281,"['high', 2, 'high']",2,white,0.736934699,45,left,down,high,high,white_high_135-black_high_135-white_high_135-black_high_45,white_high_45_down,black_high_135_down,10,1.316344699,0.2485466,left,0.2237234,1,10,14,1,1,1,1,TRUE,FALSE,high_2_mask_high,0.75,-1,3,FALSE,6,,,,,,,,,,,,,,,,,,,165,7,3.2.2021,164.9547117
282,"['high', 1, 'high']",1,black,0.053746965,135,left,down,high,high,white_high_135-black_high_45-white_high_135-black_high_135,black_high_135_down,white_high_45_down,17,1.215535259,0.2486049,left,0.2879476,1,17,15,1,1,1,1,TRUE,FALSE,high_1_mask_high,0.75,-1,3,FALSE,5,,,,,,,,,,,,,,,,,,,165,7,3.2.2021,164.9547117
283,"['med', 3, 'high']",3,white,0.097791436,45,left,up,med,high,black_high_135-white_high_135-white_high_135-black_high_45,white_med_45_up,black_med_135_up,10,1.684109732,0.2485542,left,0.2174083,1,10,18,1,1,1,1,TRUE,FALSE,med_3_mask_high,0.75,-1,3,FALSE,8,,,,,,,,,,,,,,,,,,,165,7,3.2.2021,164.9547117
284,"['low', 3, 'low']",3,white,0.74551621,45,left,down,low,low,black_low_45-black_low_135-white_low_135-white_low_45,white_low_45_down,black_low_135_down,8,1.804242623,0.2485427,left,0.2226176,1,8,11,1,1,1,1,TRUE,FALSE,low_3_mask_low,0.75,-1,3,FALSE,5,,,,,,,,,,,,,,,,,,,165,7,3.2.2021,164.9547117
285,"['med', 2, 'low']",2,black,0.658484486,45,right,up,med,low,white_low_135-white_low_45-black_low_45-black_low_135,black_med_45_up,white_med_135_up,15,1.229260122,0.2503147,left,0.1906543,0,15,17,0,1,1,1,TRUE,FALSE,med_2_mask_low,0.75,-1,3,FALSE,10,,,,,,,,,,,,,,,,,,,165,7,3.2.2021,164.9547117
286,"['high', 3, 'high']",3,white,0.48192031,45,left,down,high,high,black_high_45-white_high_135-black_high_135-white_high_135,white_high_45_down,black_high_135_down,10,1.619078888,0.2485496,left,0.1518958,1,10,18,1,1,1,1,TRUE,FALSE,high_3_mask_high,0.75,-1,3,FALSE,9,,,,,,,,,,,,,,,,,,,165,7,3.2.2021,164.9547117
287,"['low', 3, 'low']",3,white,0.811878391,45,left,down,low,low,white_low_45-black_low_45-black_low_135-white_low_135,white_low_45_down,black_low_135_down,7,1.51249668,0.2485563,left,0.0526501,1,7,12,1,1,1,1,TRUE,FALSE,low_3_mask_low,0.75,-1,3,FALSE,5,,,,,,,,,,,,,,,,,,,165,7,3.2.2021,164.9547117
288,"['low', 2, 'high']",2,black,0.403411632,45,right,down,low,high,white_high_135-white_high_135-black_high_45-black_high_135,black_low_45_down,white_low_135_down,6,1.453880883,0.2502964,left,0.2360094,0,6,17,1,1,1,1,TRUE,FALSE,low_2_mask_high,0.75,-1,3,TRUE,11,,,,,,,,,,,,,,,,,,,165,7,3.2.2021,164.9547117
289,"['low', 1, 'low']",1,white,0.682522346,45,left,down,low,low,black_low_135-white_low_135-black_low_45-white_low_45,white_low_45_down,black_low_135_down,14,1.677020065,0.2502806,left,0.0950263,1,14,18,0,1,1,1,TRUE,FALSE,low_1_mask_low,0.75,-1,3,TRUE,7,,,,,,,,,,,,,,,,,,,165,7,3.2.2021,164.9547117
290,"['high', 1, 'low']",1,white,0.458477786,45,left,down,high,low,black_low_45-white_low_45-black_low_135-white_low_135,white_high_45_down,black_high_135_down,13,1.804216186,0.2503239,left,0.216416,1,13,19,1,1,1,1,TRUE,FALSE,high_1_mask_low,0.75,-1,3,FALSE,8,,,,,,,,,,,,,,,,,,,165,7,3.2.2021,164.9547117
291,"['med', 1, 'low']",1,black,0.864736688,45,right,down,med,low,black_low_45-white_low_45-white_low_135-black_low_135,black_med_45_down,white_med_135_down,20,1.555262855,0.2485472,right,0.8202421,1,20,12,1,1,1,1,TRUE,FALSE,med_1_mask_low,0.75,-1,3,FALSE,5,,,,,,,,,,,,,,,,,,,165,7,3.2.2021,164.9547117
292,"['low', 1, 'high']",1,white,0.42210675,135,right,down,low,high,black_high_45-white_high_135-white_high_135-black_high_135,white_low_135_down,black_low_45_down,14,1.895154754,0.2485451,right,0.2489399,1,14,14,1,1,1,1,TRUE,FALSE,low_1_mask_high,0.75,-1,3,FALSE,5,,,,,,,,,,,,,,,,,,,165,7,3.2.2021,164.9547117
293,"['med', 1, 'high']",1,black,0.872797664,45,right,up,med,high,white_high_135-black_high_45-white_high_135-black_high_135,black_med_45_up,white_med_135_up,13,1.298116146,0.2449837,left,0.2171977,0,13,15,1,1,1,1,TRUE,FALSE,med_1_mask_high,0.75,-1,3,TRUE,9,,,,,,,,,,,,,,,,,,,165,7,3.2.2021,164.9547117
294,"['low', 2, 'low']",2,white,0.131557616,135,right,up,low,low,black_low_45-black_low_135-white_low_45-white_low_135,white_low_135_up,black_low_45_up,5,1.587406694,0.2485469,left,0.2150757,0,5,15,1,1,1,1,TRUE,FALSE,low_2_mask_low,0.75,-1,3,TRUE,7,,,,,,,,,,,,,,,,,,,165,7,3.2.2021,164.9547117
295,"['med', 2, 'high']",2,white,0.94658476,135,right,down,med,high,white_high_135-black_high_45-white_high_135-black_high_135,white_med_135_down,black_med_45_down,6,1.465041954,0.2485466,right,0.2265786,1,6,14,1,1,1,1,TRUE,FALSE,med_2_mask_high,0.75,-1,3,FALSE,6,,,,,,,,,,,,,,,,,,,165,7,3.2.2021,164.9547117
296,"['med', 1, 'low']",1,white,0.735695062,45,left,down,med,low,black_low_135-white_low_135-white_low_45-black_low_45,white_med_45_down,black_med_135_down,19,1.133628057,0.2485321,left,0.1575387,1,19,13,1,1,1,1,TRUE,FALSE,med_1_mask_low,0.75,-1,3,FALSE,5,,,,,,,,,,,,,,,,,,,165,7,3.2.2021,164.9547117
297,"['low', 3, 'low']",3,black,0.376874215,45,right,down,low,low,black_low_135-black_low_45-white_low_45-white_low_135,black_low_45_down,white_low_135_down,6,1.596065302,0.2485426,left,0.1886523,0,6,13,1,1,1,1,TRUE,FALSE,low_3_mask_low,0.75,-1,3,TRUE,6,,,,,,,,,,,,,,,,,,,165,7,3.2.2021,164.9547117
298,"['low', 3, 'high']",3,black,0.758498846,135,left,down,low,high,white_high_135-black_high_135-white_high_135-black_high_45,black_low_135_down,white_low_45_down,5,1.337357178,0.2488518,right,0.3734622,0,5,14,0,1,1,1,TRUE,FALSE,low_3_mask_high,0.75,-1,3,FALSE,6,,,,,,,,,,,,,,,,,,,165,7,3.2.2021,164.9547117
299,"['high', 1, 'high']",1,white,0.835474148,135,right,down,high,high,black_high_45-white_high_135-white_high_135-black_high_135,white_high_135_down,black_high_45_down,16,1.322820658,0.2485511,right,0.0910329,1,16,16,1,1,1,1,TRUE,FALSE,high_1_mask_high,0.75,-1,3,FALSE,5,,,,,,,,,,,,,,,,,,,165,7,3.2.2021,164.9547117
300,"['med', 1, 'high']",1,white,0.704197564,135,right,down,med,high,white_high_135-white_high_135-black_high_45-black_high_135,white_med_135_down,black_med_45_down,16,1.393019852,0.2448991,right,0.1591123,1,16,16,0,1,1,1,TRUE,FALSE,med_1_mask_high,0.75,-1,3,TRUE,10,,,,,,,,,,,,,,,,,,,165,7,3.2.2021,164.9547117
301,"['med', 2, 'high']",2,black,0.042798135,135,left,up,med,high,white_high_135-black_high_45-white_high_135-black_high_135,black_med_135_up,white_med_45_up,5,1.687535641,0.2485495,left,0.2968253,1,5,15,1,1,1,1,TRUE,FALSE,med_2_mask_high,0.75,-1,3,FALSE,6,,,,,,,,,,,,,,,,,,,165,7,3.2.2021,164.9547117
302,"['high', 1, 'high']",1,black,0.833923689,45,right,up,high,high,white_high_135-white_high_135-black_high_45-black_high_135,black_high_45_up,white_high_135_up,15,1.740731537,0.2467549,left,0.2459017,0,15,17,1,1,1,1,TRUE,FALSE,high_1_mask_high,0.75,-1,3,TRUE,6,,,,,,,,,,,,,,,,,,,165,7,3.2.2021,164.9547117
303,"['high', 1, 'high']",1,black,0.158082653,45,right,up,high,high,white_high_135-black_high_45-white_high_135-black_high_135,black_high_45_up,white_high_135_up,18,1.810583641,0.248538,right,1.2279943,1,18,18,0,1,1,1,TRUE,FALSE,high_1_mask_high,0.75,-1,3,TRUE,7,,,,,,,,,,,,,,,,,,,165,7,3.2.2021,164.9547117
304,"['high', 1, 'low']",1,white,0.896131515,135,right,up,high,low,white_low_135-black_low_135-white_low_45-black_low_45,white_high_135_up,black_high_45_up,12,1.682770328,0.2503164,right,0.1894432,1,12,20,1,1,1,1,TRUE,FALSE,high_1_mask_low,0.75,-1,3,FALSE,8,,,,,,,,,,,,,,,,,,,165,7,3.2.2021,164.9547117
305,"['high', 3, 'high']",3,white,0.091304758,45,left,down,high,high,white_high_135-black_high_45-white_high_135-black_high_135,white_high_45_down,black_high_135_down,9,1.950084928,0.2485387,left,0.1744406,1,9,19,1,1,1,1,TRUE,FALSE,high_3_mask_high,0.75,-1,3,FALSE,9,,,,,,,,,,,,,,,,,,,165,7,3.2.2021,164.9547117
306,"['low', 2, 'high']",2,white,0.017099015,135,right,down,low,high,black_high_45-white_high_135-white_high_135-black_high_135,white_low_135_down,black_low_45_down,9,1.633862554,0.2485513,right,0.2847373,1,9,18,0,1,1,1,TRUE,FALSE,low_2_mask_high,0.75,-1,3,TRUE,12,,,,,,,,,,,,,,,,,,,165,7,3.2.2021,164.9547117
307,"['med', 2, 'high']",2,black,0.695952182,45,right,up,med,high,black_high_135-black_high_45-white_high_135-white_high_135,black_med_45_up,white_med_135_up,4,1.56156636,0.2485372,right,0.2751783,1,4,16,1,1,1,1,TRUE,FALSE,med_2_mask_high,0.75,-1,3,FALSE,6,,,,,,,,,,,,,,,,,,,165,7,3.2.2021,164.9547117
308,"['low', 1, 'high']",1,white,0.368005182,45,left,down,low,high,black_high_135-white_high_135-white_high_135-black_high_45,white_low_45_down,black_low_135_down,13,1.57162958,0.2488443,left,0.2552549,1,13,15,1,1,1,1,TRUE,FALSE,low_1_mask_high,0.75,-1,3,FALSE,5,,,,,,,,,,,,,,,,,,,165,7,3.2.2021,164.9547117
309,"['med', 1, 'high']",1,white,0.641266162,45,left,down,med,high,white_high_135-black_high_135-white_high_135-black_high_45,white_med_45_down,black_med_135_down,15,1.559419615,0.2485494,left,0.1045216,1,15,17,1,1,1,1,TRUE,FALSE,med_1_mask_high,0.75,-1,3,FALSE,10,,,,,,,,,,,,,,,,,,,165,7,3.2.2021,164.9547117
310,"['high', 1, 'low']",1,white,0.486476917,135,right,down,high,low,white_low_45-white_low_135-black_low_135-black_low_45,white_high_135_down,black_high_45_down,11,1.142690498,0.2485455,right,0.2257632,1,11,21,1,1,1,1,TRUE,FALSE,high_1_mask_low,0.75,-1,3,FALSE,8,,,,,,,,,,,,,,,,,,,165,7,3.2.2021,164.9547117
311,"['low', 3, 'low']",3,white,0.582852025,135,right,up,low,low,black_low_45-black_low_135-white_low_135-white_low_45,white_low_135_up,black_low_45_up,9,1.748925232,0.248543,right,0.1512724,1,9,14,0,1,1,1,TRUE,FALSE,low_3_mask_low,0.75,-1,3,TRUE,7,,,,,,,,,,,,,,,,,,,165,7,3.2.2021,164.9547117
312,"['low', 3, 'high']",3,white,0.783666273,45,left,down,low,high,black_high_135-white_high_135-white_high_135-black_high_45,white_low_45_down,black_low_135_down,8,1.942763685,0.2485459,left,0.4046261,1,8,15,0,1,1,1,TRUE,FALSE,low_3_mask_high,0.75,-1,3,TRUE,7,,,,,,,,,,,,,,,,,,,165,7,3.2.2021,164.9547117
313,"['med', 3, 'high']",3,black,0.71741161,45,right,up,med,high,white_high_135-black_high_45-white_high_135-black_high_135,black_med_45_up,white_med_135_up,9,1.451202538,0.2485519,right,0.2740924,1,9,19,1,1,1,1,TRUE,FALSE,med_3_mask_high,0.75,-1,3,FALSE,8,,,,,,,,,,,,,,,,,,,165,7,3.2.2021,164.9547117
314,"['high', 2, 'low']",2,black,0.420018078,135,left,up,high,low,white_low_45-white_low_135-black_low_45-black_low_135,black_high_135_up,white_high_45_up,10,1.665438005,0.2485419,right,0.3439459,0,10,14,1,0,1,1,TRUE,FALSE,high_2_mask_low,0.75,-1,3,TRUE,4,,,,,,,,,,,,,,,,,,,165,7,3.2.2021,164.9547117
315,"['low', 1, 'low']",1,white,0.36307478,135,right,up,low,low,black_low_135-white_low_45-black_low_45-white_low_135,white_low_135_up,black_low_45_up,13,1.156539345,0.2488479,right,0.2308594,1,13,19,1,1,1,1,TRUE,FALSE,low_1_mask_low,0.75,-1,3,FALSE,7,,,,,,,,,,,,,,,,,,,165,7,3.2.2021,164.9547117
316,"['high', 2, 'low']",2,black,0.563629506,135,left,down,high,low,white_low_135-white_low_45-black_low_45-black_low_135,black_high_135_down,white_high_45_down,13,1.543030842,0.2485424,left,0.3512721,1,13,15,0,0,1,1,TRUE,FALSE,high_2_mask_low,0.75,-1,3,TRUE,5,,,,,,,,,,,,,,,,,,,165,7,3.2.2021,164.9547117
317,"['low', 1, 'low']",1,black,0.433540137,45,right,down,low,low,white_low_135-white_low_45-black_low_45-black_low_135,black_low_45_down,white_low_135_down,12,1.46109506,0.2485535,left,0.2181948,0,12,20,1,1,1,1,TRUE,FALSE,low_1_mask_low,0.75,-1,3,TRUE,8,,,,,,,,,,,,,,,,,,,165,7,3.2.2021,164.9547117
318,"['low', 3, 'low']",3,white,0.347176343,45,left,down,low,low,black_low_135-white_low_45-white_low_135-black_low_45,white_low_45_down,black_low_135_down,8,1.124423576,0.2485405,left,0.9101369,1,8,15,1,1,1,1,TRUE,FALSE,low_3_mask_low,0.75,-1,3,FALSE,7,,,,,,,,,,,,,,,,,,,165,7,3.2.2021,164.9547117
319,"['high', 3, 'low']",3,white,0.187818289,135,right,down,high,low,white_low_135-white_low_45-black_low_45-black_low_135,white_high_135_down,black_high_45_down,9,1.950247358,0.248549,right,0.1803993,1,9,19,1,1,1,1,TRUE,FALSE,high_3_mask_low,0.75,-1,3,FALSE,8,,,,,,,,,,,,,,,,,,,165,7,3.2.2021,164.9547117
320,"['high', 1, 'low']",1,white,0.944376365,135,right,down,high,low,white_low_135-black_low_135-black_low_45-white_low_45,white_high_135_down,black_high_45_down,10,1.090376345,0.2467247,right,0.2450321,1,10,22,1,1,1,1,TRUE,FALSE,high_1_mask_low,0.75,-1,3,FALSE,8,,,,,,,,,,,,,,,,,,,165,7,3.2.2021,164.9547117
321,"['high', 3, 'high']",3,white,0.174803232,45,left,down,high,high,white_high_135-black_high_45-white_high_135-black_high_135,white_high_45_down,black_high_135_down,8,1.564096165,0.2485519,left,0.2242291,1,8,20,1,1,1,1,TRUE,FALSE,high_3_mask_high,0.75,-1,3,FALSE,9,,,,,,,,,,,,,,,,,,,165,7,3.2.2021,164.9547117
322,"['med', 2, 'high']",2,black,0.557032257,45,right,up,med,high,white_high_135-black_high_135-black_high_45-white_high_135,black_med_45_up,white_med_135_up,3,1.421249133,0.2485446,right,0.254759,1,3,17,1,1,1,1,TRUE,FALSE,med_2_mask_high,0.75,-1,3,FALSE,6,,,,,,,,,,,,,,,,,,,165,7,3.2.2021,164.9547117
323,"['med', 2, 'high']",2,white,0.276154105,135,right,up,med,high,black_high_135-white_high_135-white_high_135-black_high_45,white_med_135_up,black_med_45_up,2,1.923020522,0.250288,right,0.3279041,1,2,18,1,1,1,1,TRUE,FALSE,med_2_mask_high,0.75,-1,3,FALSE,6,,,,,,,,,,,,,,,,,,,165,7,3.2.2021,164.9547117
324,"['high', 2, 'low']",2,black,0.442736081,135,left,down,high,low,white_low_135-black_low_45-white_low_45-black_low_135,black_high_135_down,white_high_45_down,12,1.236193307,0.2485438,left,0.5073449,1,12,16,1,1,1,1,TRUE,FALSE,high_2_mask_low,0.75,-1,3,FALSE,5,,,,,,,,,,,,,,,,,,,165,7,3.2.2021,164.9547117
