trial_number,trial_type,cycle_number,first_color,phase,first_orientation,correct_response,visual_field,spatial_frequency,mask_type,mask_images,first_stim,second_stim,stimulus_frame_duration,fixation_duration,mask_duration,answer,rt,accuracy,staircase_dv,staircase_trial_num,staircase_previous_correct,staircase_phase,staircase_step_size,staircase_powers_law,staircase_siam,staircase_over,staircase_name,staircase_conv_p,staircase_step_hit,staircase_step_miss,staircase_reversal,staircase_reversal_num,threshold_low1_mask_low,threshold_low2_mask_low,threshold_low3_mask_low,threshold_high1_mask_low,threshold_high2_mask_low,threshold_high3_mask_low,threshold_low1_mask_high,threshold_low2_mask_high,threshold_low3_mask_high,threshold_high1_mask_high,threshold_high2_mask_high,threshold_high3_mask_high,threshold_med1_mask_low,threshold_med2_mask_low,threshold_med3_mask_low,threshold_med1_mask_high,threshold_med2_mask_high,threshold_med3_mask_high,frame_rate,participant,psychopyVersion,frame_rate_detected
0,"['med', 1, 'high']",1,black,0.186521736,45,right,up,med,high,white_high_135-black_high_45-white_high_135-black_high_135,black_med_45_up,white_med_135_up,12,1.96045006,0.246434,left,0.3210938,0,12,0,None,0,1,1,TRUE,FALSE,med_1_mask_high,0.75,-1,3,FALSE,0,,,,,,,,,,,,,,,,,,,165,10,3.2.2021,164.9849204
1,"['med', 2, 'low']",2,white,0.287590631,45,left,down,med,low,white_low_135-black_low_45-black_low_135-white_low_45,white_med_45_down,black_med_135_down,8,1.773365194,0.2488179,right,0.2941922,0,8,0,None,0,1,1,TRUE,FALSE,med_2_mask_low,0.75,-1,3,FALSE,0,,,,,,,,,,,,,,,,,,,165,10,3.2.2021,164.9849204
2,"['high', 1, 'low']",1,white,0.502852663,135,right,up,high,low,black_low_45-black_low_135-white_low_135-white_low_45,white_high_135_up,black_high_45_up,12,1.597801091,0.2450123,right,0.4297057,1,12,0,None,0,1,1,TRUE,FALSE,high_1_mask_low,0.75,-1,3,FALSE,0,,,,,,,,,,,,,,,,,,,165,10,3.2.2021,164.9849204
3,"['low', 3, 'low']",3,white,0.799689924,45,left,down,low,low,black_low_45-white_low_45-black_low_135-white_low_135,white_low_45_down,black_low_135_down,3,1.748128599,0.2485392,right,0.5086726,0,3,0,None,0,1,1,TRUE,FALSE,low_3_mask_low,0.75,-1,3,FALSE,0,,,,,,,,,,,,,,,,,,,165,10,3.2.2021,164.9849204
4,"['high', 2, 'low']",2,white,0.015635185,135,right,down,high,low,black_low_45-white_low_45-black_low_135-white_low_135,white_high_135_down,black_high_45_down,8,1.349339393,0.2467244,right,0.4191028,1,8,0,None,0,1,1,TRUE,FALSE,high_2_mask_low,0.75,-1,3,FALSE,0,,,,,,,,,,,,,,,,,,,165,10,3.2.2021,164.9849204
5,"['low', 3, 'low']",3,white,0.072278631,45,left,down,low,low,white_low_135-black_low_135-white_low_45-black_low_45,white_low_45_down,black_low_135_down,6,1.963938416,0.2485509,right,0.4229598,0,6,1,0,0,1,1,TRUE,FALSE,low_3_mask_low,0.75,-1,3,FALSE,0,,,,,,,,,,,,,,,,,,,165,10,3.2.2021,164.9849204
6,"['high', 2, 'high']",2,black,0.599336217,45,right,down,high,high,black_high_135-white_high_135-white_high_135-black_high_45,black_high_45_down,white_high_135_down,8,1.41672231,0.2450587,left,0.2633132,0,8,0,None,0,1,1,TRUE,FALSE,high_2_mask_high,0.75,-1,3,FALSE,0,,,,,,,,,,,,,,,,,,,165,10,3.2.2021,164.9849204
7,"['med', 1, 'low']",1,black,0.781324532,135,left,down,med,low,black_low_45-black_low_135-white_low_135-white_low_45,black_med_135_down,white_med_45_down,12,1.225132322,0.2485451,right,0.3800333,0,12,0,None,0,1,1,TRUE,FALSE,med_1_mask_low,0.75,-1,3,FALSE,0,,,,,,,,,,,,,,,,,,,165,10,3.2.2021,164.9849204
8,"['med', 1, 'low']",1,black,0.984940426,45,right,up,med,low,black_low_135-white_low_135-white_low_45-black_low_45,black_med_45_up,white_med_135_up,15,1.082882653,0.2485186,right,0.2750115,1,15,1,0,0,1,1,TRUE,FALSE,med_1_mask_low,0.75,-1,3,TRUE,1,,,,,,,,,,,,,,,,,,,165,10,3.2.2021,164.9849204
9,"['high', 1, 'high']",1,black,0.480687027,135,left,up,high,high,black_high_135-white_high_135-black_high_45-white_high_135,black_high_135_up,white_high_45_up,12,1.918986233,0.248542,right,1.7880403,0,12,0,None,0,1,1,TRUE,FALSE,high_1_mask_high,0.75,-1,3,FALSE,0,,,,,,,,,,,,,,,,,,,165,10,3.2.2021,164.9849204
10,"['low', 2, 'high']",2,white,0.837792159,135,right,up,low,high,white_high_135-white_high_135-black_high_135-black_high_45,white_low_135_up,black_low_45_up,3,1.83580518,0.2467029,right,0.2461083,1,3,0,None,0,1,1,TRUE,FALSE,low_2_mask_high,0.75,-1,3,FALSE,0,,,,,,,,,,,,,,,,,,,165,10,3.2.2021,164.9849204
11,"['low', 1, 'low']",1,white,0.497391568,135,right,down,low,low,black_low_135-white_low_135-white_low_45-black_low_45,white_low_135_down,black_low_45_down,8,1.038519243,0.2485341,right,0.248916,1,8,0,None,0,1,1,TRUE,FALSE,low_1_mask_low,0.75,-1,3,FALSE,0,,,,,,,,,,,,,,,,,,,165,10,3.2.2021,164.9849204
12,"['low', 1, 'low']",1,white,0.477926611,135,right,down,low,low,black_low_135-white_low_135-black_low_45-white_low_45,white_low_135_down,black_low_45_down,7,1.130439359,0.248547,right,0.1825336,1,7,1,1,0,1,1,TRUE,FALSE,low_1_mask_low,0.75,-1,3,FALSE,0,,,,,,,,,,,,,,,,,,,165,10,3.2.2021,164.9849204
13,"['low', 1, 'high']",1,white,0.511518846,45,left,down,low,high,black_high_135-white_high_135-black_high_45-white_high_135,white_low_45_down,black_low_135_down,8,1.904818309,0.2467501,left,0.499322,1,8,0,None,0,1,1,TRUE,FALSE,low_1_mask_high,0.75,-1,3,FALSE,0,,,,,,,,,,,,,,,,,,,165,10,3.2.2021,164.9849204
14,"['low', 1, 'high']",1,white,0.019179372,45,left,down,low,high,black_high_135-white_high_135-white_high_135-black_high_45,white_low_45_down,black_low_135_down,7,1.294067015,0.2467426,left,0.6043951,1,7,1,1,0,1,1,TRUE,FALSE,low_1_mask_high,0.75,-1,3,FALSE,0,,,,,,,,,,,,,,,,,,,165,10,3.2.2021,164.9849204
15,"['low', 2, 'low']",2,white,0.127146191,45,left,up,low,low,white_low_135-black_low_135-black_low_45-white_low_45,white_low_45_up,black_low_135_up,3,1.924598696,0.2467857,left,1.4664363,1,3,0,None,0,1,1,TRUE,FALSE,low_2_mask_low,0.75,-1,3,FALSE,0,,,,,,,,,,,,,,,,,,,165,10,3.2.2021,164.9849204
16,"['low', 2, 'high']",2,black,0.365393266,45,right,up,low,high,white_high_135-white_high_135-black_high_135-black_high_45,black_low_45_up,white_low_135_up,2,1.424094771,0.2467044,left,0.3335374,0,2,1,1,0,1,1,TRUE,FALSE,low_2_mask_high,0.75,-1,3,TRUE,1,,,,,,,,,,,,,,,,,,,165,10,3.2.2021,164.9849204
17,"['high', 3, 'high']",3,white,0.481168894,45,left,down,high,high,white_high_135-white_high_135-black_high_45-black_high_135,white_high_45_down,black_high_135_down,8,1.520932156,0.248549,right,0.3668208,0,8,0,None,0,1,1,TRUE,FALSE,high_3_mask_high,0.75,-1,3,FALSE,0,,,,,,,,,,,,,,,,,,,165,10,3.2.2021,164.9849204
18,"['low', 1, 'high']",1,black,0.425365364,45,right,up,low,high,black_high_135-white_high_135-black_high_45-white_high_135,black_low_45_up,white_low_135_up,6,1.329753344,0.2485524,right,0.2416797,1,6,2,1,0,1,1,TRUE,FALSE,low_1_mask_high,0.75,-1,3,FALSE,0,,,,,,,,,,,,,,,,,,,165,10,3.2.2021,164.9849204
19,"['med', 2, 'high']",2,white,0.505341346,135,right,down,med,high,white_high_135-black_high_135-black_high_45-white_high_135,white_med_135_down,black_med_45_down,8,1.581790364,0.2485508,right,0.85178,1,8,0,None,0,1,1,TRUE,FALSE,med_2_mask_high,0.75,-1,3,FALSE,0,,,,,,,,,,,,,,,,,,,165,10,3.2.2021,164.9849204
20,"['low', 3, 'low']",3,black,0.477542934,45,right,down,low,low,black_low_45-white_low_135-black_low_135-white_low_45,black_low_45_down,white_low_135_down,9,1.176884938,0.2482884,right,0.4170741,1,9,2,0,0,1,1,TRUE,FALSE,low_3_mask_low,0.75,-1,3,TRUE,1,,,,,,,,,,,,,,,,,,,165,10,3.2.2021,164.9849204
21,"['low', 1, 'high']",1,white,0.560704665,45,left,down,low,high,white_high_135-black_high_45-black_high_135-white_high_135,white_low_45_down,black_low_135_down,5,1.175019377,0.2485527,left,0.2796683,1,5,3,1,0,1,1,TRUE,FALSE,low_1_mask_high,0.75,-1,3,FALSE,0,,,,,,,,,,,,,,,,,,,165,10,3.2.2021,164.9849204
22,"['low', 3, 'high']",3,black,0.438500682,45,right,down,low,high,white_high_135-black_high_135-black_high_45-white_high_135,black_low_45_down,white_low_135_down,3,1.001792843,0.2485479,left,0.1899897,0,3,0,None,0,1,1,TRUE,FALSE,low_3_mask_high,0.75,-1,3,FALSE,0,,,,,,,,,,,,,,,,,,,165,10,3.2.2021,164.9849204
23,"['med', 2, 'low']",2,black,0.325014661,135,left,down,med,low,black_low_135-black_low_45-white_low_135-white_low_45,black_med_135_down,white_med_45_down,11,1.966887671,0.2485353,right,2.0675754,0,11,1,0,0,1,1,TRUE,FALSE,med_2_mask_low,0.75,-1,3,FALSE,0,,,,,,,,,,,,,,,,,,,165,10,3.2.2021,164.9849204
24,"['med', 1, 'low']",1,white,0.857496529,45,left,up,med,low,white_low_45-black_low_45-white_low_135-black_low_135,white_med_45_up,black_med_135_up,14,1.334705631,0.2485526,left,0.4268364,1,14,2,1,0,1,1,TRUE,FALSE,med_1_mask_low,0.75,-1,3,FALSE,1,,,,,,,,,,,,,,,,,,,165,10,3.2.2021,164.9849204
25,"['high', 2, 'high']",2,white,0.782837311,45,left,down,high,high,white_high_135-white_high_135-black_high_45-black_high_135,white_high_45_down,black_high_135_down,11,1.796947106,0.2485477,right,0.2515616,0,11,1,0,0,1,1,TRUE,FALSE,high_2_mask_high,0.75,-1,3,FALSE,0,,,,,,,,,,,,,,,,,,,165,10,3.2.2021,164.9849204
26,"['med', 2, 'low']",2,black,0.618391333,45,right,up,med,low,black_low_45-white_low_135-white_low_45-black_low_135,black_med_45_up,white_med_135_up,14,1.710295172,0.2485304,right,1.0863409,1,14,2,0,0,1,1,TRUE,FALSE,med_2_mask_low,0.75,-1,3,TRUE,1,,,,,,,,,,,,,,,,,,,165,10,3.2.2021,164.9849204
27,"['high', 2, 'high']",2,black,0.999246921,45,right,down,high,high,white_high_135-white_high_135-black_high_135-black_high_45,black_high_45_down,white_high_135_down,14,1.121584444,0.2485531,right,1.6645747,1,14,2,0,0,1,1,TRUE,FALSE,high_2_mask_high,0.75,-1,3,TRUE,1,,,,,,,,,,,,,,,,,,,165,10,3.2.2021,164.9849204
28,"['med', 3, 'low']",3,white,0.074060818,45,left,down,med,low,white_low_135-white_low_45-black_low_45-black_low_135,white_med_45_down,black_med_135_down,8,1.592968072,0.2485526,right,0.6114513,0,8,0,None,0,1,1,TRUE,FALSE,med_3_mask_low,0.75,-1,3,FALSE,0,,,,,,,,,,,,,,,,,,,165,10,3.2.2021,164.9849204
29,"['high', 3, 'high']",3,white,0.663997539,45,left,down,high,high,black_high_135-black_high_45-white_high_135-white_high_135,white_high_45_down,black_high_135_down,11,1.465089035,0.2485409,right,0.6291497,0,11,1,0,0,1,1,TRUE,FALSE,high_3_mask_high,0.75,-1,3,FALSE,0,,,,,,,,,,,,,,,,,,,165,10,3.2.2021,164.9849204
30,"['low', 3, 'low']",3,black,0.250686028,135,left,up,low,low,white_low_135-black_low_45-black_low_135-white_low_45,black_low_135_up,white_low_45_up,8,1.375455565,0.2484997,right,0.3523877,0,8,3,1,0,1,1,TRUE,FALSE,low_3_mask_low,0.75,-1,3,TRUE,2,,,,,,,,,,,,,,,,,,,165,10,3.2.2021,164.9849204
31,"['med', 2, 'low']",2,white,0.170420098,45,left,down,med,low,black_low_45-white_low_45-white_low_135-black_low_135,white_med_45_down,black_med_135_down,13,1.356346346,0.2485469,right,0.7083708,0,13,3,1,0,1,1,TRUE,FALSE,med_2_mask_low,0.75,-1,3,TRUE,2,,,,,,,,,,,,,,,,,,,165,10,3.2.2021,164.9849204
32,"['low', 1, 'high']",1,white,0.490450844,45,left,up,low,high,white_high_135-black_high_135-black_high_45-white_high_135,white_low_45_up,black_low_135_up,4,1.095285439,0.2467433,left,1.039441,1,4,4,1,0,1,1,TRUE,FALSE,low_1_mask_high,0.75,-1,3,FALSE,0,,,,,,,,,,,,,,,,,,,165,10,3.2.2021,164.9849204
33,"['high', 3, 'low']",3,white,0.076581123,135,right,down,high,low,black_low_135-white_low_135-black_low_45-white_low_45,white_high_135_down,black_high_45_down,8,1.629346753,0.248817,right,2.9194419,1,8,0,None,0,1,1,TRUE,FALSE,high_3_mask_low,0.75,-1,3,FALSE,0,,,,,,,,,,,,,,,,,,,165,10,3.2.2021,164.9849204
34,"['high', 2, 'high']",2,white,0.173962949,135,right,up,high,high,black_high_45-black_high_135-white_high_135-white_high_135,white_high_135_up,black_high_45_up,13,1.039250655,0.2485463,right,0.2456702,1,13,3,1,0,1,1,TRUE,FALSE,high_2_mask_high,0.75,-1,3,FALSE,1,,,,,,,,,,,,,,,,,,,165,10,3.2.2021,164.9849204
35,"['low', 1, 'high']",1,black,0.669828886,45,right,up,low,high,white_high_135-black_high_135-white_high_135-black_high_45,black_low_45_up,white_low_135_up,3,1.983153673,0.2485523,left,0.6123822,0,3,5,1,0,1,1,TRUE,FALSE,low_1_mask_high,0.75,-1,3,TRUE,1,,,,,,,,,,,,,,,,,,,165,10,3.2.2021,164.9849204
36,"['med', 2, 'high']",2,white,0.373210797,135,right,up,med,high,white_high_135-black_high_45-black_high_135-white_high_135,white_med_135_up,black_med_45_up,7,1.680118121,0.2485451,right,0.3520389,1,7,1,1,0,1,1,TRUE,FALSE,med_2_mask_high,0.75,-1,3,FALSE,0,,,,,,,,,,,,,,,,,,,165,10,3.2.2021,164.9849204
37,"['low', 3, 'high']",3,black,0.694355486,135,left,up,low,high,white_high_135-black_high_45-white_high_135-black_high_135,black_low_135_up,white_low_45_up,6,1.680397145,0.24855,right,0.2588313,0,6,1,0,0,1,1,TRUE,FALSE,low_3_mask_high,0.75,-1,3,FALSE,0,,,,,,,,,,,,,,,,,,,165,10,3.2.2021,164.9849204
38,"['med', 3, 'low']",3,white,0.941102709,135,right,up,med,low,black_low_45-black_low_135-white_low_135-white_low_45,white_med_135_up,black_med_45_up,11,1.937564676,0.2485409,left,1.5161598,0,11,1,0,0,1,1,TRUE,FALSE,med_3_mask_low,0.75,-1,3,FALSE,0,,,,,,,,,,,,,,,,,,,165,10,3.2.2021,164.9849204
39,"['low', 3, 'low']",3,white,0.929326342,135,right,up,low,low,black_low_135-white_low_135-black_low_45-white_low_45,white_low_135_up,black_low_45_up,11,1.905926517,0.2485606,right,0.1472076,1,11,4,0,0,1,1,TRUE,FALSE,low_3_mask_low,0.75,-1,3,TRUE,3,,,,,,,,,,,,,,,,,,,165,10,3.2.2021,164.9849204
40,"['low', 3, 'high']",3,black,0.809088702,135,left,down,low,high,black_high_135-white_high_135-white_high_135-black_high_45,black_low_135_down,white_low_45_down,9,1.854415466,0.2485428,right,0.4888523,0,9,2,0,0,1,1,TRUE,FALSE,low_3_mask_high,0.75,-1,3,FALSE,0,,,,,,,,,,,,,,,,,,,165,10,3.2.2021,164.9849204
41,"['med', 3, 'low']",3,black,0.220778661,45,right,down,med,low,white_low_135-black_low_135-black_low_45-white_low_45,black_med_45_down,white_med_135_down,14,1.39899324,0.2485611,right,1.5622421,1,14,2,0,0,1,1,TRUE,FALSE,med_3_mask_low,0.75,-1,3,TRUE,1,,,,,,,,,,,,,,,,,,,165,10,3.2.2021,164.9849204
42,"['high', 3, 'high']",3,white,0.008612152,135,right,up,high,high,white_high_135-white_high_135-black_high_45-black_high_135,white_high_135_up,black_high_45_up,14,1.427247266,0.24853,right,1.0541348,1,14,2,0,0,1,1,TRUE,FALSE,high_3_mask_high,0.75,-1,3,TRUE,1,,,,,,,,,,,,,,,,,,,165,10,3.2.2021,164.9849204
43,"['med', 2, 'low']",2,white,0.190986503,45,left,up,med,low,black_low_45-white_low_45-white_low_135-black_low_135,white_med_45_up,black_med_135_up,16,1.114532983,0.2488157,left,0.402334,1,16,4,0,0,1,1,TRUE,FALSE,med_2_mask_low,0.75,-1,3,TRUE,3,,,,,,,,,,,,,,,,,,,165,10,3.2.2021,164.9849204
44,"['low', 2, 'high']",2,white,0.766122786,135,right,down,low,high,black_high_45-white_high_135-black_high_135-white_high_135,white_low_135_down,black_low_45_down,5,1.199880786,0.2502899,left,1.0817576,0,5,2,0,0,1,1,TRUE,FALSE,low_2_mask_high,0.75,-1,3,FALSE,1,,,,,,,,,,,,,,,,,,,165,10,3.2.2021,164.9849204
45,"['high', 2, 'high']",2,black,0.851515825,135,left,up,high,high,white_high_135-black_high_135-black_high_45-white_high_135,black_high_135_up,white_high_45_up,12,1.519391901,0.2485482,right,2.5967021,0,12,4,1,0,1,1,TRUE,FALSE,high_2_mask_high,0.75,-1,3,TRUE,2,,,,,,,,,,,,,,,,,,,165,10,3.2.2021,164.9849204
46,"['med', 2, 'high']",2,black,0.284295407,45,right,down,med,high,white_high_135-black_high_135-black_high_45-white_high_135,black_med_45_down,white_med_135_down,6,1.036425721,0.2485324,right,0.2836469,1,6,2,1,0,1,1,TRUE,FALSE,med_2_mask_high,0.75,-1,3,FALSE,0,,,,,,,,,,,,,,,,,,,165,10,3.2.2021,164.9849204
47,"['low', 3, 'low']",3,white,0.896041078,135,right,down,low,low,black_low_135-white_low_45-black_low_45-white_low_135,white_low_135_down,black_low_45_down,10,1.513037204,0.2485555,right,0.1995702,1,10,5,1,0,1,1,TRUE,FALSE,low_3_mask_low,0.75,-1,3,FALSE,3,,,,,,,,,,,,,,,,,,,165,10,3.2.2021,164.9849204
48,"['low', 3, 'high']",3,black,0.69741462,45,right,down,low,high,white_high_135-black_high_45-white_high_135-black_high_135,black_low_45_down,white_low_135_down,12,1.485705699,0.2485569,right,0.9803873,1,12,3,0,0,1,1,TRUE,FALSE,low_3_mask_high,0.75,-1,3,TRUE,1,,,,,,,,,,,,,,,,,,,165,10,3.2.2021,164.9849204
49,"['high', 1, 'low']",1,black,0.262151752,135,left,down,high,low,white_low_45-black_low_135-white_low_135-black_low_45,black_high_135_down,white_high_45_down,11,1.779156797,0.2467588,left,1.1598322,1,11,1,1,0,1,1,TRUE,FALSE,high_1_mask_low,0.75,-1,3,FALSE,0,,,,,,,,,,,,,,,,,,,165,10,3.2.2021,164.9849204
50,"['low', 2, 'low']",2,black,0.53545489,135,left,down,low,low,white_low_45-black_low_135-black_low_45-white_low_135,black_low_135_down,white_low_45_down,2,1.169806498,0.24669,right,0.380038,0,2,1,1,0,1,1,TRUE,FALSE,low_2_mask_low,0.75,-1,3,TRUE,1,,,,,,,,,,,,,,,,,,,165,10,3.2.2021,164.9849204
51,"['med', 2, 'high']",2,black,0.69910272,45,right,up,med,high,white_high_135-black_high_45-white_high_135-black_high_135,black_med_45_up,white_med_135_up,5,1.769134721,0.2467719,left,0.8745523,0,5,3,1,0,1,1,TRUE,FALSE,med_2_mask_high,0.75,-1,3,TRUE,1,,,,,,,,,,,,,,,,,,,165,10,3.2.2021,164.9849204
52,"['high', 1, 'high']",1,black,0.40412836,135,left,down,high,high,white_high_135-white_high_135-black_high_135-black_high_45,black_high_135_down,white_high_45_down,15,1.561499295,0.2485439,right,0.4314626,0,15,1,0,0,1,1,TRUE,FALSE,high_1_mask_high,0.75,-1,3,FALSE,0,,,,,,,,,,,,,,,,,,,165,10,3.2.2021,164.9849204
53,"['low', 3, 'high']",3,black,0.122118686,135,left,up,low,high,black_high_45-black_high_135-white_high_135-white_high_135,black_low_135_up,white_low_45_up,11,1.19066012,0.2485452,right,0.1760532,0,11,4,1,0,1,1,TRUE,FALSE,low_3_mask_high,0.75,-1,3,TRUE,2,,,,,,,,,,,,,,,,,,,165,10,3.2.2021,164.9849204
54,"['high', 1, 'high']",1,black,0.87994773,45,right,up,high,high,white_high_135-white_high_135-black_high_45-black_high_135,black_high_45_up,white_high_135_up,18,1.345052454,0.2502992,right,0.1897625,1,18,2,0,0,1,1,TRUE,FALSE,high_1_mask_high,0.75,-1,3,TRUE,1,,,,,,,,,,,,,,,,,,,165,10,3.2.2021,164.9849204
55,"['low', 1, 'low']",1,white,0.141747965,45,left,down,low,low,black_low_135-white_low_135-black_low_45-white_low_45,white_low_45_down,black_low_135_down,6,1.988020374,0.246774,right,0.504104,0,6,2,1,0,1,1,TRUE,FALSE,low_1_mask_low,0.75,-1,3,TRUE,1,,,,,,,,,,,,,,,,,,,165,10,3.2.2021,164.9849204
56,"['low', 2, 'low']",2,white,0.196164337,45,left,up,low,low,black_low_45-white_low_135-white_low_45-black_low_135,white_low_45_up,black_low_135_up,5,1.515386024,0.2467482,right,0.5915842,0,5,2,0,0,1,1,TRUE,FALSE,low_2_mask_low,0.75,-1,3,FALSE,1,,,,,,,,,,,,,,,,,,,165,10,3.2.2021,164.9849204
57,"['low', 1, 'low']",1,black,0.584402339,45,right,up,low,low,white_low_45-white_low_135-black_low_135-black_low_45,black_low_45_up,white_low_135_up,9,1.739020637,0.2467364,left,0.1323416,0,9,3,0,0,1,1,TRUE,FALSE,low_1_mask_low,0.75,-1,3,FALSE,1,,,,,,,,,,,,,,,,,,,165,10,3.2.2021,164.9849204
58,"['high', 2, 'low']",2,white,0.770865645,135,right,up,high,low,white_low_45-white_low_135-black_low_45-black_low_135,white_high_135_up,black_high_45_up,7,1.092515824,0.2485515,right,0.1154967,1,7,1,1,0,1,1,TRUE,FALSE,high_2_mask_low,0.75,-1,3,FALSE,0,,,,,,,,,,,,,,,,,,,165,10,3.2.2021,164.9849204
59,"['med', 3, 'low']",3,black,0.818843693,135,left,down,med,low,white_low_45-black_low_45-black_low_135-white_low_135,black_med_135_down,white_med_45_down,13,1.180793467,0.2485507,left,0.5211427,1,13,3,1,0,1,1,TRUE,FALSE,med_3_mask_low,0.75,-1,3,FALSE,1,,,,,,,,,,,,,,,,,,,165,10,3.2.2021,164.9849204
60,"['high', 2, 'high']",2,white,0.622789214,45,left,up,high,high,black_high_45-black_high_135-white_high_135-white_high_135,white_high_45_up,black_high_135_up,15,1.386156417,0.2485591,left,0.0341944,1,15,5,0,0,1,1,TRUE,FALSE,high_2_mask_high,0.75,-1,3,TRUE,3,,,,,,,,,,,,,,,,,,,165,10,3.2.2021,164.9849204
61,"['med', 2, 'low']",2,black,0.670019943,135,left,down,med,low,black_low_45-white_low_135-white_low_45-black_low_135,black_med_135_down,white_med_45_down,15,1.437488297,0.2485479,left,0.8869887,1,15,5,1,0,1,1,TRUE,FALSE,med_2_mask_low,0.75,-1,3,FALSE,3,,,,,,,,,,,,,,,,,,,165,10,3.2.2021,164.9849204
62,"['low', 2, 'low']",2,white,0.675250121,135,right,down,low,low,white_low_135-white_low_45-black_low_135-black_low_45,white_low_135_down,black_low_45_down,8,1.134590657,0.248529,left,0.7557048,0,8,3,0,0,1,1,TRUE,FALSE,low_2_mask_low,0.75,-1,3,FALSE,1,,,,,,,,,,,,,,,,,,,165,10,3.2.2021,164.9849204
63,"['high', 2, 'high']",2,white,0.926392156,45,left,up,high,high,black_high_45-black_high_135-white_high_135-white_high_135,white_high_45_up,black_high_135_up,14,1.078618569,0.2485398,left,0.4808151,1,14,6,1,0,1,1,TRUE,FALSE,high_2_mask_high,0.75,-1,3,FALSE,3,,,,,,,,,,,,,,,,,,,165,10,3.2.2021,164.9849204
64,"['high', 1, 'high']",1,black,0.996272281,135,left,up,high,high,white_high_135-white_high_135-black_high_45-black_high_135,black_high_135_up,white_high_45_up,17,1.725930215,0.2485555,right,0.7351319,0,17,3,1,0,1,1,TRUE,FALSE,high_1_mask_high,0.75,-1,3,TRUE,2,,,,,,,,,,,,,,,,,,,165,10,3.2.2021,164.9849204
65,"['med', 3, 'high']",3,white,0.623855221,45,left,down,med,high,black_high_135-white_high_135-white_high_135-black_high_45,white_med_45_down,black_med_135_down,8,1.035924125,0.2485482,left,1.4256316,1,8,0,None,0,1,1,TRUE,FALSE,med_3_mask_high,0.75,-1,3,FALSE,0,,,,,,,,,,,,,,,,,,,165,10,3.2.2021,164.9849204
66,"['low', 2, 'low']",2,black,0.01289384,135,left,up,low,low,black_low_45-white_low_135-black_low_135-white_low_45,black_low_135_up,white_low_45_up,11,1.835604723,0.248551,left,2.5053846,1,11,4,0,0,1,1,TRUE,FALSE,low_2_mask_low,0.75,-1,3,TRUE,2,,,,,,,,,,,,,,,,,,,165,10,3.2.2021,164.9849204
67,"['high', 3, 'high']",3,white,0.246579503,135,right,up,high,high,white_high_135-black_high_45-white_high_135-black_high_135,white_high_135_up,black_high_45_up,13,1.536382497,0.2485499,right,0.2149577,1,13,3,1,0,1,1,TRUE,FALSE,high_3_mask_high,0.75,-1,3,FALSE,1,,,,,,,,,,,,,,,,,,,165,10,3.2.2021,164.9849204
68,"['med', 3, 'low']",3,white,0.850974086,45,left,down,med,low,white_low_135-black_low_45-black_low_135-white_low_45,white_med_45_down,black_med_135_down,12,1.231540237,0.2485581,left,0.4073768,1,12,4,1,0,1,1,TRUE,FALSE,med_3_mask_low,0.75,-1,3,FALSE,1,,,,,,,,,,,,,,,,,,,165,10,3.2.2021,164.9849204
69,"['med', 1, 'low']",1,black,0.90709116,135,left,up,med,low,white_low_45-black_low_45-black_low_135-white_low_135,black_med_135_up,white_med_45_up,13,1.853202397,0.2467517,right,0.3094528,0,13,3,1,0,1,1,TRUE,FALSE,med_1_mask_low,0.75,-1,3,TRUE,2,,,,,,,,,,,,,,,,,,,165,10,3.2.2021,164.9849204
70,"['low', 3, 'low']",3,white,0.451406672,45,left,down,low,low,white_low_135-white_low_45-black_low_135-black_low_45,white_low_45_down,black_low_135_down,9,1.24036962,0.2485492,left,0.2911897,1,9,6,1,0,1,1,TRUE,FALSE,low_3_mask_low,0.75,-1,3,FALSE,3,,,,,,,,,,,,,,,,,,,165,10,3.2.2021,164.9849204
71,"['med', 3, 'high']",3,white,0.861263585,45,left,up,med,high,black_high_135-white_high_135-white_high_135-black_high_45,white_med_45_up,black_med_135_up,7,1.983862126,0.2485492,right,0.2045565,0,7,1,1,0,1,1,TRUE,FALSE,med_3_mask_high,0.75,-1,3,TRUE,1,,,,,,,,,,,,,,,,,,,165,10,3.2.2021,164.9849204
72,"['high', 3, 'high']",3,white,0.680457446,45,left,down,high,high,white_high_135-black_high_135-white_high_135-black_high_45,white_high_45_down,black_high_135_down,12,1.105771961,0.2485417,left,0.2605767,1,12,4,1,0,1,1,TRUE,FALSE,high_3_mask_high,0.75,-1,3,FALSE,1,,,,,,,,,,,,,,,,,,,165,10,3.2.2021,164.9849204
73,"['med', 3, 'high']",3,white,0.925048627,135,right,up,med,high,white_high_135-white_high_135-black_high_45-black_high_135,white_med_135_up,black_med_45_up,10,1.245514699,0.2467656,right,0.4085707,1,10,2,0,0,1,1,TRUE,FALSE,med_3_mask_high,0.75,-1,3,TRUE,2,,,,,,,,,,,,,,,,,,,165,10,3.2.2021,164.9849204
74,"['high', 3, 'high']",3,white,0.416960285,135,right,up,high,high,white_high_135-black_high_135-white_high_135-black_high_45,white_high_135_up,black_high_45_up,11,1.214365337,0.2502976,right,0.4341414,1,11,5,1,0,1,1,TRUE,FALSE,high_3_mask_high,0.75,-1,3,FALSE,1,,,,,,,,,,,,,,,,,,,165,10,3.2.2021,164.9849204
75,"['med', 2, 'low']",2,black,0.972165488,45,right,up,med,low,black_low_45-white_low_45-white_low_135-black_low_135,black_med_45_up,white_med_135_up,14,1.684458904,0.248545,right,0.1413392,1,14,6,1,0,1,1,TRUE,FALSE,med_2_mask_low,0.75,-1,3,FALSE,3,,,,,,,,,,,,,,,,,,,165,10,3.2.2021,164.9849204
76,"['high', 1, 'high']",1,white,0.665141124,135,right,up,high,high,black_high_45-white_high_135-black_high_135-white_high_135,white_high_135_up,black_high_45_up,20,1.530074251,0.248544,right,0.4656555,1,20,4,0,0,1,1,TRUE,FALSE,high_1_mask_high,0.75,-1,3,TRUE,3,,,,,,,,,,,,,,,,,,,165,10,3.2.2021,164.9849204
77,"['med', 3, 'low']",3,white,0.311823076,135,right,up,med,low,white_low_45-black_low_45-black_low_135-white_low_135,white_med_135_up,black_med_45_up,11,1.242541936,0.2485508,right,0.2635323,1,11,5,1,0,1,1,TRUE,FALSE,med_3_mask_low,0.75,-1,3,FALSE,1,,,,,,,,,,,,,,,,,,,165,10,3.2.2021,164.9849204
78,"['med', 2, 'high']",2,white,0.066612526,135,right,down,med,high,white_high_135-black_high_45-white_high_135-black_high_135,white_med_135_down,black_med_45_down,8,1.755529052,0.2485475,left,0.635418,0,8,4,0,0,1,1,TRUE,FALSE,med_2_mask_high,0.75,-1,3,FALSE,1,,,,,,,,,,,,,,,,,,,165,10,3.2.2021,164.9849204
79,"['low', 3, 'high']",3,white,0.656472077,135,right,up,low,high,black_high_45-white_high_135-black_high_135-white_high_135,white_low_135_up,black_low_45_up,14,1.685913492,0.2485462,right,0.3684991,1,14,5,0,0,1,1,TRUE,FALSE,low_3_mask_high,0.75,-1,3,TRUE,3,,,,,,,,,,,,,,,,,,,165,10,3.2.2021,164.9849204
80,"['high', 1, 'low']",1,white,0.620741195,45,left,down,high,low,white_low_135-black_low_135-black_low_45-white_low_45,white_high_45_down,black_high_135_down,10,1.502787879,0.247046,left,2.9357935,1,10,2,1,0,1,1,TRUE,FALSE,high_1_mask_low,0.75,-1,3,FALSE,0,,,,,,,,,,,,,,,,,,,165,10,3.2.2021,164.9849204
81,"['low', 3, 'low']",3,white,0.56531538,45,left,up,low,low,white_low_45-black_low_135-black_low_45-white_low_135,white_low_45_up,black_low_135_up,8,1.520139652,0.2485472,left,0.261033,1,8,7,1,0,1,1,TRUE,FALSE,low_3_mask_low,0.75,-1,3,FALSE,3,,,,,,,,,,,,,,,,,,,165,10,3.2.2021,164.9849204
82,"['low', 1, 'high']",1,white,0.003740348,135,right,up,low,high,black_high_135-white_high_135-black_high_45-white_high_135,white_low_135_up,black_low_45_up,6,1.014068573,0.2485348,right,0.7109386,1,6,6,0,0,1,1,TRUE,FALSE,low_1_mask_high,0.75,-1,3,TRUE,2,,,,,,,,,,,,,,,,,,,165,10,3.2.2021,164.9849204
83,"['high', 1, 'high']",1,black,0.721336694,45,right,up,high,high,white_high_135-white_high_135-black_high_45-black_high_135,black_high_45_up,white_high_135_up,19,1.24266104,0.2485367,right,0.2263265,1,19,5,1,0,1,1,TRUE,FALSE,high_1_mask_high,0.75,-1,3,FALSE,3,,,,,,,,,,,,,,,,,,,165,10,3.2.2021,164.9849204
84,"['low', 1, 'low']",1,black,0.018710182,45,right,down,low,low,white_low_135-white_low_45-black_low_45-black_low_135,black_low_45_down,white_low_135_down,12,1.515972339,0.2467831,right,1.7982858,1,12,4,0,0,1,1,TRUE,FALSE,low_1_mask_low,0.75,-1,3,TRUE,2,,,,,,,,,,,,,,,,,,,165,10,3.2.2021,164.9849204
85,"['med', 3, 'low']",3,white,0.991798812,135,right,up,med,low,white_low_45-black_low_45-black_low_135-white_low_135,white_med_135_up,black_med_45_up,10,1.781233784,0.2485544,right,0.2926612,1,10,6,1,0,1,1,TRUE,FALSE,med_3_mask_low,0.75,-1,3,FALSE,1,,,,,,,,,,,,,,,,,,,165,10,3.2.2021,164.9849204
86,"['high', 3, 'low']",3,black,0.411944789,45,right,down,high,low,black_low_135-black_low_45-white_low_45-white_low_135,black_high_45_down,white_high_135_down,7,1.861782101,0.2469792,left,0.6341891,0,7,1,1,0,1,1,TRUE,FALSE,high_3_mask_low,0.75,-1,3,TRUE,1,,,,,,,,,,,,,,,,,,,165,10,3.2.2021,164.9849204
87,"['low', 2, 'high']",2,white,0.644118527,45,left,down,low,high,black_high_135-black_high_45-white_high_135-white_high_135,white_low_45_down,black_low_135_down,8,1.633788412,0.2485322,left,0.3024992,1,8,3,0,0,1,1,TRUE,FALSE,low_2_mask_high,0.75,-1,3,TRUE,2,,,,,,,,,,,,,,,,,,,165,10,3.2.2021,164.9849204
88,"['low', 1, 'low']",1,black,0.061717645,135,left,up,low,low,white_low_135-white_low_45-black_low_45-black_low_135,black_low_135_up,white_low_45_up,11,1.276012167,0.2502937,left,0.7097759,1,11,5,1,0,1,1,TRUE,FALSE,low_1_mask_low,0.75,-1,3,FALSE,2,,,,,,,,,,,,,,,,,,,165,10,3.2.2021,164.9849204
89,"['high', 1, 'high']",1,black,0.520172988,45,right,down,high,high,white_high_135-white_high_135-black_high_135-black_high_45,black_high_45_down,white_high_135_down,18,1.511581824,0.2485683,right,2.5444435,1,18,6,1,0,1,1,TRUE,FALSE,high_1_mask_high,0.75,-1,3,FALSE,3,,,,,,,,,,,,,,,,,,,165,10,3.2.2021,164.9849204
90,"['med', 2, 'low']",2,white,0.821211639,45,left,down,med,low,white_low_45-white_low_135-black_low_135-black_low_45,white_med_45_down,black_med_135_down,13,1.013848444,0.2485507,left,0.2607977,1,13,7,1,0,1,1,TRUE,FALSE,med_2_mask_low,0.75,-1,3,FALSE,3,,,,,,,,,,,,,,,,,,,165,10,3.2.2021,164.9849204
91,"['low', 3, 'low']",3,white,0.692715023,135,right,up,low,low,black_low_135-white_low_135-black_low_45-white_low_45,white_low_135_up,black_low_45_up,7,1.705211565,0.2485331,right,1.653189,1,7,8,1,0,1,1,TRUE,FALSE,low_3_mask_low,0.75,-1,3,FALSE,3,,,,,,,,,,,,,,,,,,,165,10,3.2.2021,164.9849204
92,"['low', 2, 'high']",2,black,0.037832057,135,left,up,low,high,black_high_135-white_high_135-black_high_45-white_high_135,black_low_135_up,white_low_45_up,7,1.090546396,0.2467193,left,0.264317,1,7,4,1,0,1,1,TRUE,FALSE,low_2_mask_high,0.75,-1,3,FALSE,2,,,,,,,,,,,,,,,,,,,165,10,3.2.2021,164.9849204
93,"['high', 3, 'low']",3,white,0.013588307,135,right,down,high,low,white_low_45-white_low_135-black_low_45-black_low_135,white_high_135_down,black_high_45_down,10,1.612347774,0.2485411,right,0.3357391,1,10,2,0,0,1,1,TRUE,FALSE,high_3_mask_low,0.75,-1,3,TRUE,2,,,,,,,,,,,,,,,,,,,165,10,3.2.2021,164.9849204
94,"['med', 2, 'low']",2,white,0.873960273,45,left,down,med,low,white_low_45-black_low_135-black_low_45-white_low_135,white_med_45_down,black_med_135_down,12,1.909241835,0.2485388,left,0.4106267,1,12,8,1,0,1,1,TRUE,FALSE,med_2_mask_low,0.75,-1,3,FALSE,3,,,,,,,,,,,,,,,,,,,165,10,3.2.2021,164.9849204
95,"['high', 1, 'high']",1,white,0.450446157,45,left,up,high,high,white_high_135-black_high_45-white_high_135-black_high_135,white_high_45_up,black_high_135_up,17,1.936800892,0.2467013,left,0.2597201,1,17,7,1,0,1,1,TRUE,FALSE,high_1_mask_high,0.75,-1,3,FALSE,3,,,,,,,,,,,,,,,,,,,165,10,3.2.2021,164.9849204
96,"['low', 2, 'low']",2,white,0.372596088,135,right,up,low,low,white_low_135-white_low_45-black_low_135-black_low_45,white_low_135_up,black_low_45_up,10,1.607654909,0.2503032,right,0.0752005,1,10,5,1,0,1,1,TRUE,FALSE,low_2_mask_low,0.75,-1,3,FALSE,2,,,,,,,,,,,,,,,,,,,165,10,3.2.2021,164.9849204
97,"['med', 3, 'low']",3,white,0.271154403,45,left,up,med,low,white_low_135-black_low_45-black_low_135-white_low_45,white_med_45_up,black_med_135_up,9,1.71025723,0.248543,right,0.0706491,0,9,7,1,0,1,1,TRUE,FALSE,med_3_mask_low,0.75,-1,3,TRUE,2,,,,,,,,,,,,,,,,,,,165,10,3.2.2021,164.9849204
98,"['med', 3, 'low']",3,black,0.022986555,45,right,up,med,low,white_low_45-black_low_135-black_low_45-white_low_135,black_med_45_up,white_med_135_up,12,1.403189491,0.246781,right,0.1416856,1,12,8,0,0,1,1,TRUE,FALSE,med_3_mask_low,0.75,-1,3,TRUE,3,,,,,,,,,,,,,,,,,,,165,10,3.2.2021,164.9849204
99,"['high', 2, 'low']",2,white,0.055924473,135,right,down,high,low,black_low_135-white_low_135-black_low_45-white_low_45,white_high_135_down,black_high_45_down,6,1.008638254,0.2485405,right,0.5038878,1,6,2,1,0,1,1,TRUE,FALSE,high_2_mask_low,0.75,-1,3,FALSE,0,,,,,,,,,,,,,,,,,,,165,10,3.2.2021,164.9849204
100,"['high', 3, 'low']",3,white,0.544340042,45,left,down,high,low,black_low_135-white_low_135-black_low_45-white_low_45,white_high_45_down,black_high_135_down,9,1.906474965,0.2485583,left,3.3262343,1,9,3,1,0,1,1,TRUE,FALSE,high_3_mask_low,0.75,-1,3,FALSE,2,,,,,,,,,,,,,,,,,,,165,10,3.2.2021,164.9849204
101,"['med', 2, 'high']",2,white,0.957126267,45,left,down,med,high,white_high_135-black_high_135-white_high_135-black_high_45,white_med_45_down,black_med_135_down,11,1.945889907,0.248536,left,1.6026139,1,11,5,0,0,1,1,TRUE,FALSE,med_2_mask_high,0.75,-1,3,TRUE,2,,,,,,,,,,,,,,,,,,,165,10,3.2.2021,164.9849204
102,"['low', 1, 'low']",1,black,0.097423435,135,left,up,low,low,black_low_45-white_low_135-black_low_135-white_low_45,black_low_135_up,white_low_45_up,10,1.106254995,0.248541,right,0.3194533,0,10,6,1,0,1,1,TRUE,FALSE,low_1_mask_low,0.75,-1,3,TRUE,3,,,,,,,,,,,,,,,,,,,165,10,3.2.2021,164.9849204
103,"['low', 1, 'low']",1,white,0.804670234,135,right,up,low,low,white_low_135-black_low_45-white_low_45-black_low_135,white_low_135_up,black_low_45_up,13,1.64057112,0.2485408,right,0.321938,1,13,7,0,0,1,1,TRUE,FALSE,low_1_mask_low,0.75,-1,3,TRUE,4,,,,,,,,,,,,,,,,,,,165,10,3.2.2021,164.9849204
104,"['med', 2, 'high']",2,black,0.163441564,135,left,up,med,high,white_high_135-white_high_135-black_high_135-black_high_45,black_med_135_up,white_med_45_up,10,1.657542146,0.2449128,left,0.9178406,1,10,6,1,0,1,1,TRUE,FALSE,med_2_mask_high,0.75,-1,3,FALSE,2,,,,,,,,,,,,,,,,,,,165,10,3.2.2021,164.9849204
105,"['med', 1, 'high']",1,black,0.28159479,135,left,down,med,high,white_high_135-black_high_135-black_high_45-white_high_135,black_med_135_down,white_med_45_down,15,1.190103694,0.2485401,right,0.1398067,0,15,1,0,0,1,1,TRUE,FALSE,med_1_mask_high,0.75,-1,3,FALSE,0,,,,,,,,,,,,,,,,,,,165,10,3.2.2021,164.9849204
106,"['low', 3, 'low']",3,black,0.35579512,135,left,up,low,low,white_low_45-black_low_135-black_low_45-white_low_135,black_low_135_up,white_low_45_up,6,1.598293609,0.2467334,right,0.2601591,0,6,9,1,0,1,1,TRUE,FALSE,low_3_mask_low,0.75,-1,3,TRUE,4,,,,,,,,,,,,,,,,,,,165,10,3.2.2021,164.9849204
107,"['med', 3, 'high']",3,black,0.523133528,135,left,up,med,high,black_high_45-black_high_135-white_high_135-white_high_135,black_med_135_up,white_med_45_up,9,1.173112965,0.2485514,right,0.3375732,0,9,3,1,0,1,1,TRUE,FALSE,med_3_mask_high,0.75,-1,3,TRUE,3,,,,,,,,,,,,,,,,,,,165,10,3.2.2021,164.9849204
108,"['high', 1, 'high']",1,black,0.343213738,135,left,down,high,high,white_high_135-black_high_45-black_high_135-white_high_135,black_high_135_down,white_high_45_down,16,1.2690014,0.2485378,right,0.5792727,0,16,8,1,0,1,1,TRUE,FALSE,high_1_mask_high,0.75,-1,3,TRUE,4,,,,,,,,,,,,,,,,,,,165,10,3.2.2021,164.9849204
109,"['low', 1, 'high']",1,black,0.878121949,45,right,up,low,high,white_high_135-black_high_135-white_high_135-black_high_45,black_low_45_up,white_low_135_up,5,1.766082416,0.2467337,left,0.6770995,0,5,7,1,0,1,1,TRUE,FALSE,low_1_mask_high,0.75,-1,3,TRUE,3,,,,,,,,,,,,,,,,,,,165,10,3.2.2021,164.9849204
110,"['med', 2, 'low']",2,white,0.74849438,45,left,up,med,low,black_low_45-white_low_135-black_low_135-white_low_45,white_med_45_up,black_med_135_up,11,1.152238175,0.2485321,right,0.2499948,0,11,9,1,0,1,1,TRUE,FALSE,med_2_mask_low,0.75,-1,3,TRUE,4,,,,,,,,,,,,,,,,,,,165,10,3.2.2021,164.9849204
111,"['high', 1, 'high']",1,white,0.294685382,45,left,down,high,high,black_high_135-white_high_135-white_high_135-black_high_45,white_high_45_down,black_high_135_down,19,1.207889528,0.2485355,left,0.251913,1,19,9,0,0,1,1,TRUE,FALSE,high_1_mask_high,0.75,-1,3,TRUE,5,,,,,,,,,,,,,,,,,,,165,10,3.2.2021,164.9849204
112,"['low', 1, 'high']",1,black,0.448588586,135,left,down,low,high,white_high_135-black_high_45-white_high_135-black_high_135,black_low_135_down,white_low_45_down,8,1.104758468,0.2485509,left,1.9923565,1,8,8,0,0,1,1,TRUE,FALSE,low_1_mask_high,0.75,-1,3,TRUE,4,,,,,,,,,,,,,,,,,,,165,10,3.2.2021,164.9849204
113,"['high', 1, 'high']",1,white,0.776537738,135,right,up,high,high,black_high_135-white_high_135-white_high_135-black_high_45,white_high_135_up,black_high_45_up,18,1.741815328,0.2485461,right,0.3728454,1,18,10,1,1,1,1,TRUE,FALSE,high_1_mask_high,0.75,-1,3,FALSE,5,,,,,,,,,,,,,,,,,,,165,10,3.2.2021,164.9849204
114,"['med', 1, 'low']",1,white,0.803625128,135,right,down,med,low,black_low_135-black_low_45-white_low_135-white_low_45,white_med_135_down,black_med_45_down,16,1.3268619,0.2488266,right,0.2588625,1,16,4,0,0,1,1,TRUE,FALSE,med_1_mask_low,0.75,-1,3,TRUE,3,,,,,,,,,,,,,,,,,,,165,10,3.2.2021,164.9849204
115,"['high', 1, 'high']",1,white,0.664791277,45,left,up,high,high,white_high_135-black_high_45-black_high_135-white_high_135,white_high_45_up,black_high_135_up,17,1.55201982,0.2485481,left,0.2775143,1,17,11,1,1,1,1,TRUE,FALSE,high_1_mask_high,0.75,-1,3,FALSE,5,,,,,,,,,,,,,,,,,,,165,10,3.2.2021,164.9849204
116,"['med', 1, 'high']",1,white,0.033028657,45,left,up,med,high,white_high_135-white_high_135-black_high_135-black_high_45,white_med_45_up,black_med_135_up,18,1.632202379,0.2450252,left,0.2663997,1,18,2,0,0,1,1,TRUE,FALSE,med_1_mask_high,0.75,-1,3,TRUE,1,,,,,,,,,,,,,,,,,,,165,10,3.2.2021,164.9849204
117,"['med', 3, 'low']",3,white,0.860131962,135,right,down,med,low,white_low_45-black_low_135-black_low_45-white_low_135,white_med_135_down,black_med_45_down,11,1.205937204,0.2485581,right,0.2413665,1,11,9,1,0,1,1,TRUE,FALSE,med_3_mask_low,0.75,-1,3,FALSE,3,,,,,,,,,,,,,,,,,,,165,10,3.2.2021,164.9849204
118,"['low', 1, 'high']",1,white,0.800673518,135,right,down,low,high,black_high_45-black_high_135-white_high_135-white_high_135,white_low_135_down,black_low_45_down,7,1.480884468,0.2467561,right,0.3620486,1,7,9,1,0,1,1,TRUE,FALSE,low_1_mask_high,0.75,-1,3,FALSE,4,,,,,,,,,,,,,,,,,,,165,10,3.2.2021,164.9849204
119,"['med', 1, 'low']",1,white,0.954564881,135,right,down,med,low,white_low_45-white_low_135-black_low_45-black_low_135,white_med_135_down,black_med_45_down,15,1.385751718,0.2487921,right,0.3465201,1,15,5,1,0,1,1,TRUE,FALSE,med_1_mask_low,0.75,-1,3,FALSE,3,,,,,,,,,,,,,,,,,,,165,10,3.2.2021,164.9849204
120,"['med', 1, 'high']",1,black,0.876495546,45,right,down,med,high,white_high_135-black_high_45-black_high_135-white_high_135,black_med_45_down,white_med_135_down,17,1.827496793,0.2450391,right,1.1798114,1,17,3,1,0,1,1,TRUE,FALSE,med_1_mask_high,0.75,-1,3,FALSE,1,,,,,,,,,,,,,,,,,,,165,10,3.2.2021,164.9849204
121,"['med', 2, 'low']",2,black,0.279629513,45,right,down,med,low,black_low_45-black_low_135-white_low_45-white_low_135,black_med_45_down,white_med_135_down,14,1.680387167,0.2467542,right,0.4598825,1,14,10,0,0,1,1,TRUE,FALSE,med_2_mask_low,0.75,-1,3,TRUE,5,,,,,,,,,,,,,,,,,,,165,10,3.2.2021,164.9849204
122,"['med', 2, 'low']",2,white,0.976063669,45,left,down,med,low,black_low_45-white_low_135-black_low_135-white_low_45,white_med_45_down,black_med_135_down,13,1.298003666,0.2485486,left,0.4887461,1,13,11,1,1,1,1,TRUE,FALSE,med_2_mask_low,0.75,-1,3,FALSE,5,,,,,,,,,,,,,,,,,,,165,10,3.2.2021,164.9849204
123,"['low', 3, 'high']",3,black,0.317930512,135,left,down,low,high,black_high_45-white_high_135-white_high_135-black_high_135,black_low_135_down,white_low_45_down,13,1.32119779,0.2485528,left,1.5109642,1,13,6,1,0,1,1,TRUE,FALSE,low_3_mask_high,0.75,-1,3,FALSE,3,,,,,,,,,,,,,,,,,,,165,10,3.2.2021,164.9849204
124,"['low', 3, 'low']",3,white,0.743607612,135,right,up,low,low,black_low_135-white_low_135-white_low_45-black_low_45,white_low_135_up,black_low_45_up,9,1.229011546,0.2485487,left,0.9312274,0,9,10,0,0,1,1,TRUE,FALSE,low_3_mask_low,0.75,-1,3,FALSE,4,,,,,,,,,,,,,,,,,,,165,10,3.2.2021,164.9849204
125,"['low', 2, 'high']",2,white,0.290362679,135,right,up,low,high,black_high_45-white_high_135-white_high_135-black_high_135,white_low_135_up,black_low_45_up,6,1.186948678,0.2467068,right,0.0640567,1,6,5,1,0,1,1,TRUE,FALSE,low_2_mask_high,0.75,-1,3,FALSE,2,,,,,,,,,,,,,,,,,,,165,10,3.2.2021,164.9849204
126,"['high', 1, 'low']",1,black,0.232648493,135,left,down,high,low,white_low_135-black_low_45-white_low_45-black_low_135,black_high_135_down,white_high_45_down,9,1.256080298,0.2485488,right,2.1868749,0,9,3,1,0,1,1,TRUE,FALSE,high_1_mask_low,0.75,-1,3,TRUE,1,,,,,,,,,,,,,,,,,,,165,10,3.2.2021,164.9849204
127,"['high', 1, 'low']",1,white,0.674040844,45,left,up,high,low,white_low_135-white_low_45-black_low_45-black_low_135,white_high_45_up,black_high_135_up,12,1.53878358,0.2500159,left,0.2656863,1,12,4,0,0,1,1,TRUE,FALSE,high_1_mask_low,0.75,-1,3,TRUE,2,,,,,,,,,,,,,,,,,,,165,10,3.2.2021,164.9849204
128,"['high', 1, 'high']",1,white,0.092175583,135,right,up,high,high,white_high_135-black_high_45-black_high_135-white_high_135,white_high_135_up,black_high_45_up,16,1.520830167,0.2503159,right,0.108215,1,16,12,1,1,1,1,TRUE,FALSE,high_1_mask_high,0.75,-1,3,FALSE,5,,,,,,,,,,,,,,,,,,,165,10,3.2.2021,164.9849204
129,"['low', 1, 'high']",1,black,0.156655747,45,right,up,low,high,white_high_135-white_high_135-black_high_45-black_high_135,black_low_45_up,white_low_135_up,6,1.063942259,0.248542,left,1.3715084,0,6,10,1,0,1,1,TRUE,FALSE,low_1_mask_high,0.75,-1,3,TRUE,5,,,,,,,,,,,,,,,,,,,165,10,3.2.2021,164.9849204
130,"['high', 2, 'low']",2,black,0.427472025,45,right,down,high,low,white_low_45-black_low_45-white_low_135-black_low_135,black_high_45_down,white_high_135_down,5,1.128686893,0.2485425,left,0.3110888,0,5,3,1,0,1,1,TRUE,FALSE,high_2_mask_low,0.75,-1,3,TRUE,1,,,,,,,,,,,,,,,,,,,165,10,3.2.2021,164.9849204
131,"['high', 2, 'high']",2,white,0.081684735,45,left,down,high,high,white_high_135-white_high_135-black_high_135-black_high_45,white_high_45_down,black_high_135_down,13,1.364543787,0.248821,left,0.1287892,1,13,7,1,0,1,1,TRUE,FALSE,high_2_mask_high,0.75,-1,3,FALSE,3,,,,,,,,,,,,,,,,,,,165,10,3.2.2021,164.9849204
132,"['high', 1, 'low']",1,black,0.807896162,45,right,up,high,low,white_low_45-black_low_135-white_low_135-black_low_45,black_high_45_up,white_high_135_up,11,1.36696723,0.2467684,right,1.0484684,1,11,5,1,0,1,1,TRUE,FALSE,high_1_mask_low,0.75,-1,3,FALSE,2,,,,,,,,,,,,,,,,,,,165,10,3.2.2021,164.9849204
133,"['med', 1, 'high']",1,white,0.804191776,45,left,up,med,high,black_high_135-black_high_45-white_high_135-white_high_135,white_med_45_up,black_med_135_up,16,1.406193192,0.2485486,left,0.2903755,1,16,4,1,0,1,1,TRUE,FALSE,med_1_mask_high,0.75,-1,3,FALSE,1,,,,,,,,,,,,,,,,,,,165,10,3.2.2021,164.9849204
134,"['med', 2, 'high']",2,white,0.641039744,135,right,up,med,high,white_high_135-white_high_135-black_high_45-black_high_135,white_med_135_up,black_med_45_up,9,1.24610472,0.2485559,right,0.2989921,1,9,7,1,0,1,1,TRUE,FALSE,med_2_mask_high,0.75,-1,3,FALSE,2,,,,,,,,,,,,,,,,,,,165,10,3.2.2021,164.9849204
135,"['low', 3, 'high']",3,white,0.12859079,45,left,down,low,high,white_high_135-black_high_135-black_high_45-white_high_135,white_low_45_down,black_low_135_down,12,1.62402163,0.2485465,left,0.0383809,1,12,7,1,0,1,1,TRUE,FALSE,low_3_mask_high,0.75,-1,3,FALSE,3,,,,,,,,,,,,,,,,,,,165,10,3.2.2021,164.9849204
136,"['low', 2, 'low']",2,black,0.62993717,45,right,up,low,low,black_low_135-white_low_135-black_low_45-white_low_45,black_low_45_up,white_low_135_up,9,1.339660165,0.2503214,right,0.3656774,1,9,6,1,0,1,1,TRUE,FALSE,low_2_mask_low,0.75,-1,3,FALSE,2,,,,,,,,,,,,,,,,,,,165,10,3.2.2021,164.9849204
137,"['high', 1, 'low']",1,white,0.970766207,45,left,down,high,low,white_low_135-black_low_45-white_low_45-black_low_135,white_high_45_down,black_high_135_down,10,1.975164408,0.2467658,right,0.984753,0,10,6,1,0,1,1,TRUE,FALSE,high_1_mask_low,0.75,-1,3,TRUE,3,,,,,,,,,,,,,,,,,,,165,10,3.2.2021,164.9849204
138,"['high', 2, 'high']",2,white,0.855051366,135,right,up,high,high,black_high_45-white_high_135-black_high_135-white_high_135,white_high_135_up,black_high_45_up,12,1.630617542,0.2485488,left,0.2841507,0,12,8,1,0,1,1,TRUE,FALSE,high_2_mask_high,0.75,-1,3,TRUE,4,,,,,,,,,,,,,,,,,,,165,10,3.2.2021,164.9849204
139,"['high', 1, 'high']",1,black,0.623959453,135,left,down,high,high,white_high_135-black_high_45-white_high_135-black_high_135,black_high_135_down,white_high_45_down,15,1.223626404,0.2485376,left,1.6405867,1,15,13,1,1,1,1,TRUE,FALSE,high_1_mask_high,0.75,-1,3,FALSE,5,,,,,,,,,,,,,,,,,,,165,10,3.2.2021,164.9849204
140,"['high', 1, 'low']",1,black,0.47301253,45,right,up,high,low,black_low_45-white_low_135-white_low_45-black_low_135,black_high_45_up,white_high_135_up,13,1.949981019,0.2467103,left,0.6146466,0,13,7,0,0,1,1,TRUE,FALSE,high_1_mask_low,0.75,-1,3,FALSE,3,,,,,,,,,,,,,,,,,,,165,10,3.2.2021,164.9849204
141,"['high', 2, 'low']",2,white,0.226852589,45,left,down,high,low,black_low_45-black_low_135-white_low_45-white_low_135,white_high_45_down,black_high_135_down,8,1.156549248,0.2485391,left,0.2622476,1,8,4,0,0,1,1,TRUE,FALSE,high_2_mask_low,0.75,-1,3,TRUE,2,,,,,,,,,,,,,,,,,,,165,10,3.2.2021,164.9849204
142,"['high', 3, 'high']",3,black,0.580285967,135,left,down,high,high,black_high_135-white_high_135-white_high_135-black_high_45,black_high_135_down,white_high_45_down,10,1.216876634,0.2502869,left,0.7722781,1,10,6,1,0,1,1,TRUE,FALSE,high_3_mask_high,0.75,-1,3,FALSE,1,,,,,,,,,,,,,,,,,,,165,10,3.2.2021,164.9849204
143,"['high', 1, 'low']",1,white,0.80376953,45,left,down,high,low,white_low_45-white_low_135-black_low_135-black_low_45,white_high_45_down,black_high_135_down,16,1.44476665,0.2485293,left,0.4250776,1,16,8,0,0,1,1,TRUE,FALSE,high_1_mask_low,0.75,-1,3,TRUE,4,,,,,,,,,,,,,,,,,,,165,10,3.2.2021,164.9849204
144,"['med', 3, 'high']",3,black,0.616263514,45,right,up,med,high,white_high_135-black_high_135-white_high_135-black_high_45,black_med_45_up,white_med_135_up,12,1.756379817,0.2485457,right,0.2552091,1,12,4,0,0,1,1,TRUE,FALSE,med_3_mask_high,0.75,-1,3,TRUE,4,,,,,,,,,,,,,,,,,,,165,10,3.2.2021,164.9849204
145,"['high', 3, 'low']",3,black,0.610506165,45,right,down,high,low,white_low_45-black_low_135-white_low_135-black_low_45,black_high_45_down,white_high_135_down,8,1.602868003,0.2485556,left,6.2044336,0,8,4,1,0,1,1,TRUE,FALSE,high_3_mask_low,0.75,-1,3,TRUE,3,,,,,,,,,,,,,,,,,,,165,10,3.2.2021,164.9849204
146,"['med', 2, 'high']",2,black,0.059468751,45,right,up,med,high,white_high_135-white_high_135-black_high_135-black_high_45,black_med_45_up,white_med_135_up,8,1.779231135,0.24854,left,1.8425404,0,8,8,1,0,1,1,TRUE,FALSE,med_2_mask_high,0.75,-1,3,TRUE,3,,,,,,,,,,,,,,,,,,,165,10,3.2.2021,164.9849204
147,"['high', 1, 'low']",1,white,0.410497105,45,left,up,high,low,black_low_45-black_low_135-white_low_135-white_low_45,white_high_45_up,black_high_135_up,15,1.815880524,0.2485373,left,0.3979593,1,15,9,1,0,1,1,TRUE,FALSE,high_1_mask_low,0.75,-1,3,FALSE,4,,,,,,,,,,,,,,,,,,,165,10,3.2.2021,164.9849204
148,"['low', 1, 'low']",1,black,0.747176782,135,left,down,low,low,white_low_135-black_low_45-black_low_135-white_low_45,black_low_135_down,white_low_45_down,12,1.915679727,0.2467646,right,0.5557717,0,12,8,1,0,1,1,TRUE,FALSE,low_1_mask_low,0.75,-1,3,TRUE,5,,,,,,,,,,,,,,,,,,,165,10,3.2.2021,164.9849204
149,"['high', 3, 'high']",3,white,0.517099909,135,right,down,high,high,black_high_45-white_high_135-white_high_135-black_high_135,white_high_135_down,black_high_45_down,9,1.433830344,0.2488272,right,0.158369,1,9,7,1,0,1,1,TRUE,FALSE,high_3_mask_high,0.75,-1,3,FALSE,1,,,,,,,,,,,,,,,,,,,165,10,3.2.2021,164.9849204
150,"['med', 1, 'high']",1,white,0.833825122,135,right,up,med,high,black_high_135-black_high_45-white_high_135-white_high_135,white_med_135_up,black_med_45_up,15,1.804043499,0.2467151,right,0.3263228,1,15,5,1,0,1,1,TRUE,FALSE,med_1_mask_high,0.75,-1,3,FALSE,1,,,,,,,,,,,,,,,,,,,165,10,3.2.2021,164.9849204
151,"['high', 1, 'low']",1,black,0.161501831,135,left,down,high,low,white_low_45-white_low_135-black_low_135-black_low_45,black_high_135_down,white_high_45_down,14,1.438102351,0.2485462,right,0.4075251,0,14,10,1,0,1,1,TRUE,FALSE,high_1_mask_low,0.75,-1,3,TRUE,5,,,,,,,,,,,,,,,,,,,165,10,3.2.2021,164.9849204
152,"['low', 1, 'low']",1,white,0.173744186,45,left,down,low,low,black_low_45-black_low_135-white_low_45-white_low_135,white_low_45_down,black_low_135_down,15,1.787755939,0.2467762,left,0.2822295,1,15,9,0,1,1,1,TRUE,FALSE,low_1_mask_low,0.75,-1,3,TRUE,6,,,,,,,,,,,,,,,,,,,165,10,3.2.2021,164.9849204
153,"['high', 2, 'low']",2,black,0.75923191,135,left,up,high,low,black_low_135-black_low_45-white_low_45-white_low_135,black_high_135_up,white_high_45_up,7,1.290666268,0.2503024,right,0.2419694,0,7,5,1,0,1,1,TRUE,FALSE,high_2_mask_low,0.75,-1,3,TRUE,3,,,,,,,,,,,,,,,,,,,165,10,3.2.2021,164.9849204
154,"['low', 1, 'high']",1,white,0.917707273,135,right,up,low,high,black_high_135-white_high_135-black_high_45-white_high_135,white_low_135_up,black_low_45_up,9,1.159963769,0.2485576,right,0.0489031,1,9,11,0,1,1,1,TRUE,FALSE,low_1_mask_high,0.75,-1,3,TRUE,6,,,,,,,,,,,,,,,,,,,165,10,3.2.2021,164.9849204
155,"['high', 3, 'high']",3,white,0.412685565,45,left,up,high,high,white_high_135-black_high_45-black_high_135-white_high_135,white_high_45_up,black_high_135_up,8,1.14213081,0.2503161,left,0.0769027,1,8,8,1,0,1,1,TRUE,FALSE,high_3_mask_high,0.75,-1,3,FALSE,1,,,,,,,,,,,,,,,,,,,165,10,3.2.2021,164.9849204
156,"['high', 2, 'high']",2,black,0.790916729,135,left,up,high,high,white_high_135-white_high_135-black_high_45-black_high_135,black_high_135_up,white_high_45_up,15,1.917203664,0.248824,right,0.4033852,0,15,9,0,0,1,1,TRUE,FALSE,high_2_mask_high,0.75,-1,3,FALSE,4,,,,,,,,,,,,,,,,,,,165,10,3.2.2021,164.9849204
157,"['high', 1, 'low']",1,white,0.678169567,135,right,down,high,low,black_low_45-black_low_135-white_low_45-white_low_135,white_high_135_down,black_high_45_down,17,1.277454689,0.2485485,right,0.0948685,1,17,11,0,1,1,1,TRUE,FALSE,high_1_mask_low,0.75,-1,3,TRUE,6,,,,,,,,,,,,,,,,,,,165,10,3.2.2021,164.9849204
158,"['high', 1, 'low']",1,white,0.732410169,45,left,up,high,low,white_low_135-white_low_45-black_low_135-black_low_45,white_high_45_up,black_high_135_up,16,1.082771329,0.2485463,left,0.0965792,1,16,12,1,1,1,1,TRUE,FALSE,high_1_mask_low,0.75,-1,3,FALSE,6,,,,,,,,,,,,,,,,,,,165,10,3.2.2021,164.9849204
159,"['low', 2, 'low']",2,white,0.039604164,45,left,up,low,low,white_low_45-black_low_135-white_low_135-black_low_45,white_low_45_up,black_low_135_up,8,1.709711376,0.246608,left,0.1873999,1,8,7,1,0,1,1,TRUE,FALSE,low_2_mask_low,0.75,-1,3,FALSE,2,,,,,,,,,,,,,,,,,,,165,10,3.2.2021,164.9849204
160,"['low', 3, 'low']",3,white,0.579409054,135,right,down,low,low,black_low_45-black_low_135-white_low_45-white_low_135,white_low_135_down,black_low_45_down,12,1.606562101,0.2466235,right,0.2152955,1,12,11,0,0,1,1,TRUE,FALSE,low_3_mask_low,0.75,-1,3,TRUE,5,,,,,,,,,,,,,,,,,,,165,10,3.2.2021,164.9849204
161,"['low', 2, 'high']",2,white,0.125874323,135,right,down,low,high,black_high_135-black_high_45-white_high_135-white_high_135,white_low_135_down,black_low_45_down,5,1.210779328,0.2485517,right,0.247628,1,5,6,1,0,1,1,TRUE,FALSE,low_2_mask_high,0.75,-1,3,FALSE,2,,,,,,,,,,,,,,,,,,,165,10,3.2.2021,164.9849204
162,"['low', 3, 'low']",3,white,0.762066531,135,right,up,low,low,white_low_45-black_low_135-white_low_135-black_low_45,white_low_135_up,black_low_45_up,11,1.892585578,0.2485511,right,0.0540101,1,11,12,1,1,1,1,TRUE,FALSE,low_3_mask_low,0.75,-1,3,FALSE,5,,,,,,,,,,,,,,,,,,,165,10,3.2.2021,164.9849204
163,"['high', 1, 'high']",1,black,0.397356838,45,right,down,high,high,white_high_135-white_high_135-black_high_45-black_high_135,black_high_45_down,white_high_135_down,14,1.114024441,0.246761,left,0.1130693,0,14,14,1,1,1,1,TRUE,FALSE,high_1_mask_high,0.75,-1,3,TRUE,6,,,,,,,,,,,,,,,,,,,165,10,3.2.2021,164.9849204
164,"['low', 2, 'high']",2,white,0.67844745,135,right,up,low,high,white_high_135-white_high_135-black_high_135-black_high_45,white_low_135_up,black_low_45_up,4,1.576369625,0.2502995,left,1.1167925,0,4,7,1,0,1,1,TRUE,FALSE,low_2_mask_high,0.75,-1,3,TRUE,3,,,,,,,,,,,,,,,,,,,165,10,3.2.2021,164.9849204
165,"['low', 2, 'high']",2,white,0.113543152,45,left,down,low,high,black_high_45-white_high_135-black_high_135-white_high_135,white_low_45_down,black_low_135_down,7,1.31913829,0.2467659,left,0.0403019,1,7,8,0,0,1,1,TRUE,FALSE,low_2_mask_high,0.75,-1,3,TRUE,4,,,,,,,,,,,,,,,,,,,165,10,3.2.2021,164.9849204
166,"['med', 2, 'high']",2,white,0.509868285,135,right,down,med,high,white_high_135-black_high_45-white_high_135-black_high_135,white_med_135_down,black_med_45_down,11,1.893277545,0.2488155,right,0.1853963,1,11,9,0,0,1,1,TRUE,FALSE,med_2_mask_high,0.75,-1,3,TRUE,4,,,,,,,,,,,,,,,,,,,165,10,3.2.2021,164.9849204
167,"['low', 3, 'high']",3,black,0.074656194,135,left,up,low,high,white_high_135-white_high_135-black_high_135-black_high_45,black_low_135_up,white_low_45_up,11,1.07611402,0.2467675,left,0.5547817,1,11,8,1,0,1,1,TRUE,FALSE,low_3_mask_high,0.75,-1,3,FALSE,3,,,,,,,,,,,,,,,,,,,165,10,3.2.2021,164.9849204
168,"['med', 2, 'high']",2,black,0.806056657,45,right,down,med,high,white_high_135-white_high_135-black_high_135-black_high_45,black_med_45_down,white_med_135_down,10,1.798242524,0.2485423,left,0.2147259,0,10,10,1,0,1,1,TRUE,FALSE,med_2_mask_high,0.75,-1,3,TRUE,5,,,,,,,,,,,,,,,,,,,165,10,3.2.2021,164.9849204
169,"['med', 1, 'high']",1,black,0.50597782,45,right,up,med,high,black_high_135-white_high_135-white_high_135-black_high_45,black_med_45_up,white_med_135_up,14,1.427125821,0.2485515,right,0.6666255,1,14,6,1,0,1,1,TRUE,FALSE,med_1_mask_high,0.75,-1,3,FALSE,1,,,,,,,,,,,,,,,,,,,165,10,3.2.2021,164.9849204
170,"['med', 1, 'high']",1,white,0.813358154,45,left,down,med,high,black_high_135-white_high_135-white_high_135-black_high_45,white_med_45_down,black_med_135_down,13,1.979708943,0.2467465,left,0.3264397,1,13,7,1,0,1,1,TRUE,FALSE,med_1_mask_high,0.75,-1,3,FALSE,1,,,,,,,,,,,,,,,,,,,165,10,3.2.2021,164.9849204
171,"['high', 2, 'high']",2,white,0.600517188,45,left,up,high,high,black_high_135-white_high_135-black_high_45-white_high_135,white_high_45_up,black_high_135_up,18,1.688108602,0.248549,left,0.4491103,1,18,10,0,0,1,1,TRUE,FALSE,high_2_mask_high,0.75,-1,3,TRUE,5,,,,,,,,,,,,,,,,,,,165,10,3.2.2021,164.9849204
172,"['low', 2, 'high']",2,white,0.022092597,135,right,down,low,high,black_high_135-white_high_135-black_high_45-white_high_135,white_low_135_down,black_low_45_down,6,1.302161943,0.2467296,right,0.0968924,1,6,9,1,0,1,1,TRUE,FALSE,low_2_mask_high,0.75,-1,3,FALSE,4,,,,,,,,,,,,,,,,,,,165,10,3.2.2021,164.9849204
173,"['low', 2, 'high']",2,white,0.689059642,45,left,up,low,high,white_high_135-black_high_45-black_high_135-white_high_135,white_low_45_up,black_low_135_up,5,1.909050498,0.2485324,left,0.2727713,1,5,10,1,0,1,1,TRUE,FALSE,low_2_mask_high,0.75,-1,3,FALSE,4,,,,,,,,,,,,,,,,,,,165,10,3.2.2021,164.9849204
174,"['med', 3, 'low']",3,black,0.064202844,135,left,up,med,low,black_low_135-white_low_45-black_low_45-white_low_135,black_med_135_up,white_med_45_up,10,1.960912405,0.2488192,right,0.4510845,0,10,10,1,0,1,1,TRUE,FALSE,med_3_mask_low,0.75,-1,3,TRUE,4,,,,,,,,,,,,,,,,,,,165,10,3.2.2021,164.9849204
175,"['med', 2, 'high']",2,black,0.593731212,45,right,up,med,high,black_high_135-black_high_45-white_high_135-white_high_135,black_med_45_up,white_med_135_up,13,1.879293584,0.2485532,right,0.2683883,1,13,11,0,1,1,1,TRUE,FALSE,med_2_mask_high,0.75,-1,3,TRUE,6,,,,,,,,,,,,,,,,,,,165,10,3.2.2021,164.9849204
176,"['low', 2, 'high']",2,black,0.686581478,135,left,up,low,high,white_high_135-black_high_45-black_high_135-white_high_135,black_low_135_up,white_low_45_up,4,1.505935631,0.2467909,right,0.4822442,0,4,11,1,0,1,1,TRUE,FALSE,low_2_mask_high,0.75,-1,3,TRUE,5,,,,,,,,,,,,,,,,,,,165,10,3.2.2021,164.9849204
177,"['low', 1, 'low']",1,white,0.921401814,135,right,up,low,low,white_low_45-black_low_45-white_low_135-black_low_135,white_low_135_up,black_low_45_up,14,1.409760584,0.2467653,right,0.2920529,1,14,10,1,1,1,1,TRUE,FALSE,low_1_mask_low,0.75,-1,3,FALSE,6,,,,,,,,,,,,,,,,,,,165,10,3.2.2021,164.9849204
178,"['low', 1, 'high']",1,white,0.259036724,45,left,up,low,high,white_high_135-black_high_135-white_high_135-black_high_45,white_low_45_up,black_low_135_up,8,1.55018076,0.2502904,left,0.3716908,1,8,12,1,1,1,1,TRUE,FALSE,low_1_mask_high,0.75,-1,3,FALSE,6,,,,,,,,,,,,,,,,,,,165,10,3.2.2021,164.9849204
179,"['high', 1, 'high']",1,black,0.418736463,135,left,up,high,high,black_high_45-white_high_135-white_high_135-black_high_135,black_high_135_up,white_high_45_up,17,1.948478571,0.2485479,right,0.2872786,0,17,15,0,1,1,1,TRUE,FALSE,high_1_mask_high,0.75,-1,3,FALSE,6,,,,,,,,,,,,,,,,,,,165,10,3.2.2021,164.9849204
180,"['high', 3, 'low']",3,white,0.010450081,45,left,up,high,low,black_low_135-white_low_45-white_low_135-black_low_45,white_high_45_up,black_high_135_up,11,1.116015285,0.2485435,left,0.5377643,1,11,5,0,0,1,1,TRUE,FALSE,high_3_mask_low,0.75,-1,3,TRUE,4,,,,,,,,,,,,,,,,,,,165,10,3.2.2021,164.9849204
181,"['low', 2, 'low']",2,black,0.00571679,45,right,down,low,low,black_low_45-white_low_45-black_low_135-white_low_135,black_low_45_down,white_low_135_down,7,1.168313416,0.2449945,right,1.1025134,1,7,8,1,0,1,1,TRUE,FALSE,low_2_mask_low,0.75,-1,3,FALSE,2,,,,,,,,,,,,,,,,,,,165,10,3.2.2021,164.9849204
182,"['med', 2, 'high']",2,black,0.436248551,135,left,down,med,high,black_high_135-white_high_135-black_high_45-white_high_135,black_med_135_down,white_med_45_down,12,1.320949042,0.2485457,right,0.9381744,0,12,12,1,1,1,1,TRUE,FALSE,med_2_mask_high,0.75,-1,3,TRUE,7,,,,,,,,,,,,,,,,,,,165,10,3.2.2021,164.9849204
183,"['high', 1, 'low']",1,white,0.181237799,135,right,down,high,low,white_low_45-black_low_45-white_low_135-black_low_135,white_high_135_down,black_high_45_down,15,1.114573627,0.2467244,right,0.1732104,1,15,13,1,1,1,1,TRUE,FALSE,high_1_mask_low,0.75,-1,3,FALSE,6,,,,,,,,,,,,,,,,,,,165,10,3.2.2021,164.9849204
184,"['low', 1, 'high']",1,black,0.480239265,135,left,up,low,high,white_high_135-black_high_45-black_high_135-white_high_135,black_low_135_up,white_low_45_up,7,1.990637962,0.2485446,right,0.2396939,0,7,13,1,1,1,1,TRUE,FALSE,low_1_mask_high,0.75,-1,3,TRUE,7,,,,,,,,,,,,,,,,,,,165,10,3.2.2021,164.9849204
185,"['med', 3, 'low']",3,black,0.660858429,135,left,up,med,low,white_low_135-black_low_135-white_low_45-black_low_45,black_med_135_up,white_med_45_up,13,1.822518585,0.2485386,left,1.3095577,1,13,11,0,0,1,1,TRUE,FALSE,med_3_mask_low,0.75,-1,3,TRUE,5,,,,,,,,,,,,,,,,,,,165,10,3.2.2021,164.9849204
186,"['low', 3, 'low']",3,white,0.851144993,135,right,down,low,low,white_low_135-black_low_135-white_low_45-black_low_45,white_low_135_down,black_low_45_down,10,1.802960795,0.2485644,right,0.0853938,1,10,13,1,1,1,1,TRUE,FALSE,low_3_mask_low,0.75,-1,3,FALSE,5,,,,,,,,,,,,,,,,,,,165,10,3.2.2021,164.9849204
187,"['low', 3, 'high']",3,white,0.574927116,45,left,up,low,high,white_high_135-black_high_135-black_high_45-white_high_135,white_low_45_up,black_low_135_up,10,1.793628875,0.2485466,left,0.6298409,1,10,9,1,0,1,1,TRUE,FALSE,low_3_mask_high,0.75,-1,3,FALSE,3,,,,,,,,,,,,,,,,,,,165,10,3.2.2021,164.9849204
188,"['low', 3, 'high']",3,white,0.632058857,135,right,up,low,high,black_high_45-white_high_135-white_high_135-black_high_135,white_low_135_up,black_low_45_up,9,1.525947597,0.2485399,right,0.2765717,1,9,10,1,0,1,1,TRUE,FALSE,low_3_mask_high,0.75,-1,3,FALSE,3,,,,,,,,,,,,,,,,,,,165,10,3.2.2021,164.9849204
189,"['med', 3, 'high']",3,black,0.247445907,135,left,up,med,high,black_high_45-white_high_135-black_high_135-white_high_135,black_med_135_up,white_med_45_up,11,1.774750326,0.2485522,right,0.2505549,0,11,5,1,0,1,1,TRUE,FALSE,med_3_mask_high,0.75,-1,3,TRUE,5,,,,,,,,,,,,,,,,,,,165,10,3.2.2021,164.9849204
190,"['low', 2, 'low']",2,white,0.187296518,45,left,down,low,low,white_low_135-black_low_135-white_low_45-black_low_45,white_low_45_down,black_low_135_down,6,1.937691729,0.2485529,left,0.31174,1,6,9,1,0,1,1,TRUE,FALSE,low_2_mask_low,0.75,-1,3,FALSE,2,,,,,,,,,,,,,,,,,,,165,10,3.2.2021,164.9849204
191,"['high', 3, 'high']",3,white,0.874559565,135,right,down,high,high,black_high_135-white_high_135-black_high_45-white_high_135,white_high_135_down,black_high_45_down,7,1.035450535,0.2485452,right,0.707059,1,7,9,1,0,1,1,TRUE,FALSE,high_3_mask_high,0.75,-1,3,FALSE,1,,,,,,,,,,,,,,,,,,,165,10,3.2.2021,164.9849204
192,"['high', 3, 'high']",3,white,0.190242433,45,left,down,high,high,black_high_135-black_high_45-white_high_135-white_high_135,white_high_45_down,black_high_135_down,6,1.682266495,0.2485363,left,0.2797214,1,6,10,1,0,1,1,TRUE,FALSE,high_3_mask_high,0.75,-1,3,FALSE,1,,,,,,,,,,,,,,,,,,,165,10,3.2.2021,164.9849204
193,"['low', 2, 'high']",2,black,0.54178342,135,left,down,low,high,white_high_135-black_high_135-black_high_45-white_high_135,black_low_135_down,white_low_45_down,7,1.869744101,0.2450261,left,0.2931173,1,7,12,0,1,1,1,TRUE,FALSE,low_2_mask_high,0.75,-1,3,TRUE,6,,,,,,,,,,,,,,,,,,,165,10,3.2.2021,164.9849204
194,"['med', 1, 'high']",1,white,0.16107397,135,right,up,med,high,white_high_135-white_high_135-black_high_135-black_high_45,white_med_135_up,black_med_45_up,12,1.662187924,0.248539,right,0.3054828,1,12,8,1,0,1,1,TRUE,FALSE,med_1_mask_high,0.75,-1,3,FALSE,1,,,,,,,,,,,,,,,,,,,165,10,3.2.2021,164.9849204
195,"['low', 1, 'high']",1,white,0.847693067,135,right,up,low,high,black_high_45-black_high_135-white_high_135-white_high_135,white_low_135_up,black_low_45_up,10,1.01669379,0.2485328,right,0.3948168,1,10,14,0,1,1,1,TRUE,FALSE,low_1_mask_high,0.75,-1,3,TRUE,8,,,,,,,,,,,,,,,,,,,165,10,3.2.2021,164.9849204
196,"['low', 2, 'low']",2,black,0.228562635,135,left,down,low,low,black_low_45-black_low_135-white_low_45-white_low_135,black_low_135_down,white_low_45_down,5,1.337616321,0.2467654,right,0.2561625,0,5,10,1,0,1,1,TRUE,FALSE,low_2_mask_low,0.75,-1,3,TRUE,3,,,,,,,,,,,,,,,,,,,165,10,3.2.2021,164.9849204
197,"['high', 2, 'low']",2,black,0.443905637,45,right,up,high,low,black_low_45-white_low_45-white_low_135-black_low_135,black_high_45_up,white_high_135_up,10,1.581138803,0.2485269,left,0.2251618,0,10,6,0,0,1,1,TRUE,FALSE,high_2_mask_low,0.75,-1,3,FALSE,3,,,,,,,,,,,,,,,,,,,165,10,3.2.2021,164.9849204
198,"['med', 2, 'low']",2,white,0.161698915,45,left,down,med,low,white_low_45-white_low_135-black_low_45-black_low_135,white_med_45_down,black_med_135_down,12,1.035312794,0.2485441,right,0.4501631,0,12,12,1,1,1,1,TRUE,FALSE,med_2_mask_low,0.75,-1,3,TRUE,6,,,,,,,,,,,,,,,,,,,165,10,3.2.2021,164.9849204
199,"['high', 2, 'low']",2,black,0.125143622,45,right,down,high,low,black_low_135-white_low_45-white_low_135-black_low_45,black_high_45_down,white_high_135_down,13,1.906667425,0.248822,right,0.59514,1,13,7,0,0,1,1,TRUE,FALSE,high_2_mask_low,0.75,-1,3,TRUE,4,,,,,,,,,,,,,,,,,,,165,10,3.2.2021,164.9849204
200,"['high', 3, 'high']",3,black,0.569824771,45,right,up,high,high,white_high_135-white_high_135-black_high_135-black_high_45,black_high_45_up,white_high_135_up,5,1.540864248,0.2467041,left,0.6295223,0,5,11,1,0,1,1,TRUE,FALSE,high_3_mask_high,0.75,-1,3,TRUE,2,,,,,,,,,,,,,,,,,,,165,10,3.2.2021,164.9849204
201,"['med', 1, 'high']",1,black,0.329681928,45,right,down,med,high,white_high_135-white_high_135-black_high_45-black_high_135,black_med_45_down,white_med_135_down,11,1.540687356,0.2485519,left,0.2873842,0,11,9,1,0,1,1,TRUE,FALSE,med_1_mask_high,0.75,-1,3,TRUE,2,,,,,,,,,,,,,,,,,,,165,10,3.2.2021,164.9849204
202,"['low', 3, 'low']",3,black,0.170445265,45,right,down,low,low,black_low_135-white_low_45-black_low_45-white_low_135,black_low_45_down,white_low_135_down,9,1.344865924,0.2485502,right,0.1633569,1,9,14,1,1,1,1,TRUE,FALSE,low_3_mask_low,0.75,-1,3,FALSE,5,,,,,,,,,,,,,,,,,,,165,10,3.2.2021,164.9849204
203,"['med', 1, 'low']",1,black,0.912546013,135,left,up,med,low,black_low_135-black_low_45-white_low_45-white_low_135,black_med_135_up,white_med_45_up,14,1.304528716,0.2467149,right,1.4624535,0,14,6,1,0,1,1,TRUE,FALSE,med_1_mask_low,0.75,-1,3,TRUE,4,,,,,,,,,,,,,,,,,,,165,10,3.2.2021,164.9849204
204,"['high', 1, 'high']",1,white,0.310379307,45,left,up,high,high,black_high_135-white_high_135-black_high_45-white_high_135,white_high_45_up,black_high_135_up,20,1.135217454,0.2485554,left,0.7044707,1,20,16,0,1,1,1,TRUE,FALSE,high_1_mask_high,0.75,-1,3,TRUE,7,,,,,,,,,,,,,,,,,,,165,10,3.2.2021,164.9849204
205,"['high', 3, 'low']",3,black,0.630806838,135,left,up,high,low,white_low_135-black_low_135-white_low_45-black_low_45,black_high_135_up,white_high_45_up,10,1.026281818,0.2485503,left,1.0030746,1,10,6,1,0,1,1,TRUE,FALSE,high_3_mask_low,0.75,-1,3,FALSE,4,,,,,,,,,,,,,,,,,,,165,10,3.2.2021,164.9849204
206,"['low', 2, 'high']",2,black,0.996212909,45,right,up,low,high,black_high_45-white_high_135-white_high_135-black_high_135,black_low_45_up,white_low_135_up,6,1.90056698,0.2485471,right,1.3688932,1,6,13,1,1,1,1,TRUE,FALSE,low_2_mask_high,0.75,-1,3,FALSE,6,,,,,,,,,,,,,,,,,,,165,10,3.2.2021,164.9849204
207,"['med', 2, 'low']",2,white,0.085685069,45,left,down,med,low,black_low_135-white_low_135-white_low_45-black_low_45,white_med_45_down,black_med_135_down,15,1.96475115,0.2485384,left,0.2539436,1,15,13,0,1,1,1,TRUE,FALSE,med_2_mask_low,0.75,-1,3,TRUE,7,,,,,,,,,,,,,,,,,,,165,10,3.2.2021,164.9849204
208,"['med', 1, 'high']",1,black,0.925090907,135,left,down,med,high,white_high_135-black_high_45-white_high_135-black_high_135,black_med_135_down,white_med_45_down,14,1.969086188,0.2485528,right,0.861881,0,14,10,0,0,1,1,TRUE,FALSE,med_1_mask_high,0.75,-1,3,FALSE,2,,,,,,,,,,,,,,,,,,,165,10,3.2.2021,164.9849204
209,"['med', 2, 'low']",2,white,0.825896131,135,right,up,med,low,white_low_45-black_low_135-white_low_135-black_low_45,white_med_135_up,black_med_45_up,14,1.779222637,0.248538,right,0.5316189,1,14,14,1,1,1,1,TRUE,FALSE,med_2_mask_low,0.75,-1,3,FALSE,7,,,,,,,,,,,,,,,,,,,165,10,3.2.2021,164.9849204
210,"['med', 2, 'low']",2,black,0.499689327,135,left,up,med,low,white_low_135-white_low_45-black_low_45-black_low_135,black_med_135_up,white_med_45_up,13,1.663961949,0.248266,left,0.5662952,1,13,15,1,1,1,1,TRUE,FALSE,med_2_mask_low,0.75,-1,3,FALSE,7,,,,,,,,,,,,,,,,,,,165,10,3.2.2021,164.9849204
211,"['low', 1, 'high']",1,white,0.035507666,45,left,up,low,high,white_high_135-black_high_45-white_high_135-black_high_135,white_low_45_up,black_low_135_up,9,1.288945224,0.2466995,right,0.6070486,0,9,15,1,1,1,1,TRUE,FALSE,low_1_mask_high,0.75,-1,3,TRUE,9,,,,,,,,,,,,,,,,,,,165,10,3.2.2021,164.9849204
212,"['high', 3, 'high']",3,black,0.079333425,45,right,down,high,high,black_high_135-black_high_45-white_high_135-white_high_135,black_high_45_down,white_high_135_down,8,1.235007006,0.2485566,right,0.8485055,1,8,12,0,0,1,1,TRUE,FALSE,high_3_mask_high,0.75,-1,3,TRUE,3,,,,,,,,,,,,,,,,,,,165,10,3.2.2021,164.9849204
213,"['med', 1, 'high']",1,white,0.816241525,135,right,up,med,high,black_high_135-white_high_135-black_high_45-white_high_135,white_med_135_up,black_med_45_up,17,1.620840383,0.2485361,right,0.0916653,1,17,11,0,0,1,1,TRUE,FALSE,med_1_mask_high,0.75,-1,3,TRUE,3,,,,,,,,,,,,,,,,,,,165,10,3.2.2021,164.9849204
214,"['low', 3, 'high']",3,black,0.119859075,45,right,up,low,high,white_high_135-white_high_135-black_high_45-black_high_135,black_low_45_up,white_low_135_up,8,1.25797311,0.2488233,right,0.5718763,1,8,11,1,0,1,1,TRUE,FALSE,low_3_mask_high,0.75,-1,3,FALSE,3,,,,,,,,,,,,,,,,,,,165,10,3.2.2021,164.9849204
215,"['med', 1, 'low']",1,black,0.298486201,45,right,up,med,low,black_low_135-black_low_45-white_low_135-white_low_45,black_med_45_up,white_med_135_up,17,1.633764731,0.2468205,right,1.425066,1,17,7,0,0,1,1,TRUE,FALSE,med_1_mask_low,0.75,-1,3,TRUE,5,,,,,,,,,,,,,,,,,,,165,10,3.2.2021,164.9849204
216,"['med', 2, 'low']",2,black,0.266858885,135,left,down,med,low,white_low_45-white_low_135-black_low_135-black_low_45,black_med_135_down,white_med_45_down,12,1.774316229,0.248547,right,0.5075638,0,12,16,1,1,1,1,TRUE,FALSE,med_2_mask_low,0.75,-1,3,TRUE,8,,,,,,,,,,,,,,,,,,,165,10,3.2.2021,164.9849204
217,"['high', 2, 'low']",2,white,0.233030579,45,left,up,high,low,black_low_135-white_low_135-white_low_45-black_low_45,white_high_45_up,black_high_135_up,12,1.528591029,0.248547,left,0.4568373,1,12,8,1,0,1,1,TRUE,FALSE,high_2_mask_low,0.75,-1,3,FALSE,4,,,,,,,,,,,,,,,,,,,165,10,3.2.2021,164.9849204
218,"['low', 1, 'low']",1,black,0.254213363,45,right,down,low,low,black_low_45-white_low_135-black_low_135-white_low_45,black_low_45_down,white_low_135_down,13,1.844223738,0.2467219,left,1.4228608,0,13,11,1,1,1,1,TRUE,FALSE,low_1_mask_low,0.75,-1,3,TRUE,7,,,,,,,,,,,,,,,,,,,165,10,3.2.2021,164.9849204
219,"['med', 1, 'high']",1,white,0.239539117,135,right,up,med,high,black_high_45-white_high_135-black_high_135-white_high_135,white_med_135_up,black_med_45_up,16,1.501580195,0.2485515,right,0.2870005,1,16,12,1,0,1,1,TRUE,FALSE,med_1_mask_high,0.75,-1,3,FALSE,3,,,,,,,,,,,,,,,,,,,165,10,3.2.2021,164.9849204
220,"['high', 3, 'high']",3,white,0.114211757,45,left,up,high,high,white_high_135-black_high_135-white_high_135-black_high_45,white_high_45_up,black_high_135_up,7,1.92693777,0.2485567,left,1.6699161,1,7,13,1,0,1,1,TRUE,FALSE,high_3_mask_high,0.75,-1,3,FALSE,3,,,,,,,,,,,,,,,,,,,165,10,3.2.2021,164.9849204
221,"['high', 3, 'low']",3,white,0.362212326,45,left,down,high,low,black_low_135-white_low_135-white_low_45-black_low_45,white_high_45_down,black_high_135_down,9,1.029099253,0.2485427,right,0.7681968,0,9,7,1,0,1,1,TRUE,FALSE,high_3_mask_low,0.75,-1,3,TRUE,5,,,,,,,,,,,,,,,,,,,165,10,3.2.2021,164.9849204
222,"['low', 1, 'low']",1,white,0.4673189,135,right,up,low,low,black_low_45-white_low_135-black_low_135-white_low_45,white_low_135_up,black_low_45_up,16,1.31356121,0.2485553,right,0.3847566,1,16,12,0,1,1,1,TRUE,FALSE,low_1_mask_low,0.75,-1,3,TRUE,8,,,,,,,,,,,,,,,,,,,165,10,3.2.2021,164.9849204
223,"['high', 1, 'low']",1,black,0.493829606,135,left,down,high,low,black_low_45-black_low_135-white_low_135-white_low_45,black_high_135_down,white_high_45_down,14,1.99740554,0.2467158,right,1.8835663,0,14,14,1,1,1,1,TRUE,FALSE,high_1_mask_low,0.75,-1,3,TRUE,7,,,,,,,,,,,,,,,,,,,165,10,3.2.2021,164.9849204
224,"['med', 3, 'low']",3,white,0.6307244,135,right,down,med,low,black_low_45-black_low_135-white_low_45-white_low_135,white_med_135_down,black_med_45_down,12,1.504761048,0.246746,right,0.3701493,1,12,12,1,1,1,1,TRUE,FALSE,med_3_mask_low,0.75,-1,3,FALSE,5,,,,,,,,,,,,,,,,,,,165,10,3.2.2021,164.9849204
225,"['low', 3, 'low']",3,black,0.393215946,45,right,up,low,low,black_low_135-white_low_45-white_low_135-black_low_45,black_low_45_up,white_low_135_up,8,1.9196243,0.2485523,right,0.2664707,1,8,15,1,1,1,1,TRUE,FALSE,low_3_mask_low,0.75,-1,3,FALSE,5,,,,,,,,,,,,,,,,,,,165,10,3.2.2021,164.9849204
226,"['low', 2, 'high']",2,white,0.552880117,135,right,up,low,high,white_high_135-black_high_135-black_high_45-white_high_135,white_low_135_up,black_low_45_up,5,1.034695289,0.2485475,right,0.5898749,1,5,14,1,1,1,1,TRUE,FALSE,low_2_mask_high,0.75,-1,3,FALSE,6,,,,,,,,,,,,,,,,,,,165,10,3.2.2021,164.9849204
227,"['high', 1, 'high']",1,black,0.006717507,135,left,up,high,high,white_high_135-black_high_45-white_high_135-black_high_135,black_high_135_up,white_high_45_up,19,1.428555272,0.2485326,right,0.5323428,0,19,17,1,1,1,1,TRUE,FALSE,high_1_mask_high,0.75,-1,3,TRUE,8,,,,,,,,,,,,,,,,,,,165,10,3.2.2021,164.9849204
228,"['med', 3, 'high']",3,white,0.693562566,45,left,down,med,high,black_high_45-white_high_135-white_high_135-black_high_135,white_med_45_down,black_med_135_down,14,1.151950868,0.2482672,left,0.4035241,1,14,6,0,1,1,1,TRUE,FALSE,med_3_mask_high,0.75,-1,3,TRUE,6,,,,,,,,,,,,,,,,,,,165,10,3.2.2021,164.9849204
229,"['med', 1, 'high']",1,black,0.723890531,135,left,up,med,high,white_high_135-white_high_135-black_high_45-black_high_135,black_med_135_up,white_med_45_up,15,1.351458728,0.2467137,right,0.4611963,0,15,13,1,0,1,1,TRUE,FALSE,med_1_mask_high,0.75,-1,3,TRUE,4,,,,,,,,,,,,,,,,,,,165,10,3.2.2021,164.9849204
230,"['med', 1, 'low']",1,white,0.984597541,45,left,down,med,low,black_low_135-black_low_45-white_low_135-white_low_45,white_med_45_down,black_med_135_down,16,1.952067186,0.2485459,left,0.0427043,1,16,8,1,1,1,1,TRUE,FALSE,med_1_mask_low,0.75,-1,3,FALSE,5,,,,,,,,,,,,,,,,,,,165,10,3.2.2021,164.9849204
231,"['med', 2, 'low']",2,white,0.571454999,45,left,down,med,low,white_low_45-black_low_135-black_low_45-white_low_135,white_med_45_down,black_med_135_down,15,1.015426276,0.248541,left,0.3947011,1,15,17,0,1,1,1,TRUE,FALSE,med_2_mask_low,0.75,-1,3,TRUE,9,,,,,,,,,,,,,,,,,,,165,10,3.2.2021,164.9849204
232,"['high', 2, 'low']",2,white,0.661623375,135,right,up,high,low,white_low_135-white_low_45-black_low_45-black_low_135,white_high_135_up,black_high_45_up,11,1.340299949,0.2502928,right,0.8472868,1,11,9,1,0,1,1,TRUE,FALSE,high_2_mask_low,0.75,-1,3,FALSE,4,,,,,,,,,,,,,,,,,,,165,10,3.2.2021,164.9849204
233,"['high', 1, 'low']",1,white,0.83372001,45,left,down,high,low,white_low_135-black_low_135-black_low_45-white_low_45,white_high_45_down,black_high_135_down,17,1.233971279,0.2467813,left,0.0780136,1,17,15,0,1,1,1,TRUE,FALSE,high_1_mask_low,0.75,-1,3,TRUE,8,,,,,,,,,,,,,,,,,,,165,10,3.2.2021,164.9849204
234,"['high', 1, 'low']",1,white,0.332459854,135,right,down,high,low,black_low_45-white_low_45-black_low_135-white_low_135,white_high_135_down,black_high_45_down,16,1.676056977,0.2485456,right,0.0469643,1,16,16,1,1,1,1,TRUE,FALSE,high_1_mask_low,0.75,-1,3,FALSE,8,,,,,,,,,,,,,,,,,,,165,10,3.2.2021,164.9849204
235,"['low', 3, 'high']",3,white,0.199763188,135,right,down,low,high,white_high_135-black_high_45-white_high_135-black_high_135,white_low_135_down,black_low_45_down,7,1.622987065,0.2467636,right,0.4124097,1,7,12,1,0,1,1,TRUE,FALSE,low_3_mask_high,0.75,-1,3,FALSE,3,,,,,,,,,,,,,,,,,,,165,10,3.2.2021,164.9849204
236,"['med', 3, 'low']",3,white,0.251783183,135,right,down,med,low,white_low_45-white_low_135-black_low_45-black_low_135,white_med_135_down,black_med_45_down,11,1.277107581,0.2467627,right,0.1336631,1,11,13,1,1,1,1,TRUE,FALSE,med_3_mask_low,0.75,-1,3,FALSE,5,,,,,,,,,,,,,,,,,,,165,10,3.2.2021,164.9849204
237,"['med', 1, 'high']",1,black,0.460567461,45,right,up,med,high,black_high_135-white_high_135-white_high_135-black_high_45,black_med_45_up,white_med_135_up,18,1.860107038,0.2485547,left,0.3474858,0,18,14,0,0,1,1,TRUE,FALSE,med_1_mask_high,0.75,-1,3,FALSE,4,,,,,,,,,,,,,,,,,,,165,10,3.2.2021,164.9849204
238,"['med', 1, 'high']",1,black,0.524389478,135,left,down,med,high,white_high_135-black_high_135-white_high_135-black_high_45,black_med_135_down,white_med_45_down,21,1.432185844,0.2485508,right,0.563145,0,21,15,0,0,1,1,TRUE,FALSE,med_1_mask_high,0.75,-1,3,FALSE,4,,,,,,,,,,,,,,,,,,,165,10,3.2.2021,164.9849204
239,"['med', 2, 'high']",2,black,0.691306747,135,left,up,med,high,white_high_135-white_high_135-black_high_135-black_high_45,black_med_135_up,white_med_45_up,15,1.564404692,0.2485558,left,2.5925563,1,15,13,0,1,1,1,TRUE,FALSE,med_2_mask_high,0.75,-1,3,TRUE,8,,,,,,,,,,,,,,,,,,,165,10,3.2.2021,164.9849204
240,"['low', 3, 'high']",3,white,0.284664276,135,right,up,low,high,white_high_135-black_high_135-black_high_45-white_high_135,white_low_135_up,black_low_45_up,6,1.113710989,0.2485448,right,0.2372774,1,6,13,1,0,1,1,TRUE,FALSE,low_3_mask_high,0.75,-1,3,FALSE,3,,,,,,,,,,,,,,,,,,,165,10,3.2.2021,164.9849204
241,"['med', 1, 'high']",1,white,0.902164642,135,right,down,med,high,black_high_135-white_high_135-black_high_45-white_high_135,white_med_135_down,black_med_45_down,24,1.768190883,0.2485483,right,0.2698367,1,24,16,0,0,1,1,TRUE,FALSE,med_1_mask_high,0.75,-1,3,TRUE,5,,,,,,,,,,,,,,,,,,,165,10,3.2.2021,164.9849204
242,"['low', 2, 'low']",2,white,0.221188766,45,left,up,low,low,white_low_135-black_low_45-black_low_135-white_low_45,white_low_45_up,black_low_135_up,8,1.569374033,0.2485277,left,0.3332197,1,8,11,0,0,1,1,TRUE,FALSE,low_2_mask_low,0.75,-1,3,TRUE,4,,,,,,,,,,,,,,,,,,,165,10,3.2.2021,164.9849204
243,"['med', 3, 'low']",3,black,0.493887015,135,left,up,med,low,black_low_45-black_low_135-white_low_45-white_low_135,black_med_135_up,white_med_45_up,10,1.363009255,0.248535,right,0.3102563,0,10,14,1,1,1,1,TRUE,FALSE,med_3_mask_low,0.75,-1,3,TRUE,6,,,,,,,,,,,,,,,,,,,165,10,3.2.2021,164.9849204
244,"['high', 1, 'low']",1,black,0.993778726,135,left,up,high,low,white_low_135-white_low_45-black_low_45-black_low_135,black_high_135_up,white_high_45_up,15,1.477544519,0.2467781,right,0.4637916,0,15,17,1,1,1,1,TRUE,FALSE,high_1_mask_low,0.75,-1,3,TRUE,9,,,,,,,,,,,,,,,,,,,165,10,3.2.2021,164.9849204
245,"['low', 2, 'high']",2,black,0.149186913,135,left,down,low,high,white_high_135-white_high_135-black_high_135-black_high_45,black_low_135_down,white_low_45_down,4,1.572433008,0.2467701,right,0.3783719,0,4,15,1,1,1,1,TRUE,FALSE,low_2_mask_high,0.75,-1,3,TRUE,7,,,,,,,,,,,,,,,,,,,165,10,3.2.2021,164.9849204
246,"['low', 2, 'high']",2,white,0.520330737,135,right,up,low,high,black_high_45-white_high_135-white_high_135-black_high_135,white_low_135_up,black_low_45_up,7,1.131962284,0.248551,right,0.1991623,1,7,16,0,1,1,1,TRUE,FALSE,low_2_mask_high,0.75,-1,3,TRUE,8,,,,,,,,,,,,,,,,,,,165,10,3.2.2021,164.9849204
247,"['med', 1, 'low']",1,black,0.206570243,45,right,down,med,low,white_low_45-black_low_45-black_low_135-white_low_135,black_med_45_down,white_med_135_down,15,1.7966176,0.2485378,left,0.2546635,0,15,9,1,1,1,1,TRUE,FALSE,med_1_mask_low,0.75,-1,3,TRUE,6,,,,,,,,,,,,,,,,,,,165,10,3.2.2021,164.9849204
248,"['high', 3, 'low']",3,white,0.505006411,45,left,up,high,low,white_low_135-white_low_45-black_low_135-black_low_45,white_high_45_up,black_high_135_up,12,1.91260105,0.2488279,left,0.2642064,1,12,8,0,1,1,1,TRUE,FALSE,high_3_mask_low,0.75,-1,3,TRUE,6,,,,,,,,,,,,,,,,,,,165,10,3.2.2021,164.9849204
249,"['low', 2, 'high']",2,white,0.298984992,135,right,down,low,high,black_high_45-black_high_135-white_high_135-white_high_135,white_low_135_down,black_low_45_down,6,1.45447721,0.2466588,right,0.3900782,1,6,17,1,1,1,1,TRUE,FALSE,low_2_mask_high,0.75,-1,3,FALSE,8,,,,,,,,,,,,,,,,,,,165,10,3.2.2021,164.9849204
250,"['med', 1, 'low']",1,black,0.367637957,135,left,up,med,low,white_low_135-black_low_45-black_low_135-white_low_45,black_med_135_up,white_med_45_up,18,1.856992517,0.2485398,left,0.6706414,1,18,10,0,1,1,1,TRUE,FALSE,med_1_mask_low,0.75,-1,3,TRUE,7,,,,,,,,,,,,,,,,,,,165,10,3.2.2021,164.9849204
251,"['high', 2, 'low']",2,black,0.066896817,135,left,up,high,low,black_low_45-white_low_45-white_low_135-black_low_135,black_high_135_up,white_high_45_up,10,1.657964733,0.2485398,right,0.8644824,0,10,10,1,0,1,1,TRUE,FALSE,high_2_mask_low,0.75,-1,3,TRUE,5,,,,,,,,,,,,,,,,,,,165,10,3.2.2021,164.9849204
252,"['med', 2, 'high']",2,black,0.436125789,45,right,up,med,high,black_high_45-white_high_135-white_high_135-black_high_135,black_med_45_up,white_med_135_up,14,1.017832997,0.2503209,left,0.4071335,0,14,14,1,1,1,1,TRUE,FALSE,med_2_mask_high,0.75,-1,3,TRUE,9,,,,,,,,,,,,,,,,,,,165,10,3.2.2021,164.9849204
253,"['high', 2, 'high']",2,black,0.575522667,135,left,down,high,high,white_high_135-white_high_135-black_high_135-black_high_45,black_high_135_down,white_high_45_down,17,1.075666923,0.2485432,right,0.1296618,0,17,11,1,1,1,1,TRUE,FALSE,high_2_mask_high,0.75,-1,3,TRUE,6,,,,,,,,,,,,,,,,,,,165,10,3.2.2021,164.9849204
254,"['low', 1, 'high']",1,white,0.375086193,45,left,up,low,high,black_high_135-white_high_135-black_high_45-white_high_135,white_low_45_up,black_low_135_up,12,1.181117292,0.2485457,left,0.2143617,1,12,16,0,1,1,1,TRUE,FALSE,low_1_mask_high,0.75,-1,3,TRUE,10,,,,,,,,,,,,,,,,,,,165,10,3.2.2021,164.9849204
255,"['high', 2, 'high']",2,black,0.186940075,45,right,down,high,high,black_high_135-white_high_135-black_high_45-white_high_135,black_high_45_down,white_high_135_down,20,1.635247383,0.2485467,right,0.0818745,1,20,12,0,1,1,1,TRUE,FALSE,high_2_mask_high,0.75,-1,3,TRUE,7,,,,,,,,,,,,,,,,,,,165,10,3.2.2021,164.9849204
256,"['high', 1, 'high']",1,black,0.710463716,135,left,up,high,high,white_high_135-black_high_45-black_high_135-white_high_135,black_high_135_up,white_high_45_up,22,1.523687777,0.2485494,left,0.1198407,1,22,18,0,1,1,1,TRUE,FALSE,high_1_mask_high,0.75,-1,3,TRUE,9,,,,,,,,,,,,,,,,,,,165,10,3.2.2021,164.9849204
257,"['high', 1, 'high']",1,white,0.931197864,45,left,up,high,high,black_high_45-white_high_135-white_high_135-black_high_135,white_high_45_up,black_high_135_up,21,1.961687634,0.2485488,left,1.3207493,1,21,19,1,1,1,1,TRUE,FALSE,high_1_mask_high,0.75,-1,3,FALSE,9,,,,,,,,,,,,,,,,,,,165,10,3.2.2021,164.9849204
258,"['low', 3, 'low']",3,white,0.663305914,135,right,down,low,low,black_low_135-white_low_135-black_low_45-white_low_45,white_low_135_down,black_low_45_down,7,1.5938217,0.2467418,right,0.101099,1,7,16,1,1,1,1,TRUE,FALSE,low_3_mask_low,0.75,-1,3,FALSE,5,,,,,,,,,,,,,,,,,,,165,10,3.2.2021,164.9849204
259,"['high', 1, 'low']",1,white,0.994570939,45,left,down,high,low,white_low_45-black_low_45-black_low_135-white_low_135,white_high_45_down,black_high_135_down,18,1.138365135,0.2485364,left,0.117519,1,18,18,0,1,1,1,TRUE,FALSE,high_1_mask_low,0.75,-1,3,TRUE,10,,,,,,,,,,,,,,,,,,,165,10,3.2.2021,164.9849204
260,"['med', 3, 'low']",3,black,0.103808322,135,left,up,med,low,black_low_45-white_low_45-black_low_135-white_low_135,black_med_135_up,white_med_45_up,13,1.505180631,0.2485485,left,1.6512266,1,13,15,0,1,1,1,TRUE,FALSE,med_3_mask_low,0.75,-1,3,TRUE,7,,,,,,,,,,,,,,,,,,,165,10,3.2.2021,164.9849204
261,"['low', 1, 'high']",1,black,0.833886415,45,right,up,low,high,white_high_135-white_high_135-black_high_135-black_high_45,black_low_45_up,white_low_135_up,11,1.540891631,0.2485494,left,0.2076644,0,11,17,1,1,1,1,TRUE,FALSE,low_1_mask_high,0.75,-1,3,TRUE,11,,,,,,,,,,,,,,,,,,,165,10,3.2.2021,164.9849204
262,"['med', 1, 'high']",1,white,0.366860693,135,right,up,med,high,black_high_45-white_high_135-black_high_135-white_high_135,white_med_135_up,black_med_45_up,23,1.429935017,0.24881,right,0.0394173,1,23,17,1,1,1,1,TRUE,FALSE,med_1_mask_high,0.75,-1,3,FALSE,5,,,,,,,,,,,,,,,,,,,165,10,3.2.2021,164.9849204
263,"['med', 3, 'low']",3,black,0.297546141,135,left,up,med,low,white_low_45-white_low_135-black_low_135-black_low_45,black_med_135_up,white_med_45_up,12,1.681192638,0.248548,right,0.3136749,0,12,16,1,1,1,1,TRUE,FALSE,med_3_mask_low,0.75,-1,3,TRUE,8,,,,,,,,,,,,,,,,,,,165,10,3.2.2021,164.9849204
264,"['med', 1, 'low']",1,black,0.216990362,45,right,down,med,low,white_low_135-black_low_45-black_low_135-white_low_45,black_med_45_down,white_med_135_down,17,1.537123628,0.2485439,left,1.1526819,0,17,11,1,1,1,1,TRUE,FALSE,med_1_mask_low,0.75,-1,3,TRUE,8,,,,,,,,,,,,,,,,,,,165,10,3.2.2021,164.9849204
265,"['med', 2, 'low']",2,black,0.968246474,135,left,down,med,low,white_low_45-black_low_45-black_low_135-white_low_135,black_med_135_down,white_med_45_down,14,1.319125156,0.2503288,left,0.6599566,1,14,18,1,1,1,1,TRUE,FALSE,med_2_mask_low,0.75,-1,3,FALSE,9,,,,,,,,,,,,,,,,,,,165,10,3.2.2021,164.9849204
266,"['low', 2, 'high']",2,white,0.21968299,135,right,up,low,high,black_high_45-white_high_135-white_high_135-black_high_135,white_low_135_up,black_low_45_up,5,1.428156159,0.2467761,right,0.2375081,1,5,18,1,1,1,1,TRUE,FALSE,low_2_mask_high,0.75,-1,3,FALSE,8,,,,,,,,,,,,,,,,,,,165,10,3.2.2021,164.9849204
267,"['high', 3, 'low']",3,white,0.941970293,135,right,down,high,low,black_low_45-white_low_135-black_low_135-white_low_45,white_high_135_down,black_high_45_down,11,1.684037902,0.2485372,right,0.1590909,1,11,9,1,1,1,1,TRUE,FALSE,high_3_mask_low,0.75,-1,3,FALSE,6,,,,,,,,,,,,,,,,,,,165,10,3.2.2021,164.9849204
268,"['low', 3, 'low']",3,white,0.471419885,45,left,up,low,low,white_low_45-white_low_135-black_low_45-black_low_135,white_low_45_up,black_low_135_up,6,1.540171979,0.248554,right,0.195807,0,6,17,1,1,1,1,TRUE,FALSE,low_3_mask_low,0.75,-1,3,TRUE,6,,,,,,,,,,,,,,,,,,,165,10,3.2.2021,164.9849204
269,"['high', 1, 'high']",1,black,0.638815387,45,right,up,high,high,black_high_45-white_high_135-black_high_135-white_high_135,black_high_45_up,white_high_135_up,20,1.300350967,0.2485456,right,0.4590446,1,20,20,1,1,1,1,TRUE,FALSE,high_1_mask_high,0.75,-1,3,FALSE,9,,,,,,,,,,,,,,,,,,,165,10,3.2.2021,164.9849204
270,"['low', 3, 'low']",3,black,0.854985435,135,left,down,low,low,white_low_45-black_low_45-black_low_135-white_low_135,black_low_135_down,white_low_45_down,9,1.305324565,0.2485537,left,0.428242,1,9,18,0,1,1,1,TRUE,FALSE,low_3_mask_low,0.75,-1,3,TRUE,7,,,,,,,,,,,,,,,,,,,165,10,3.2.2021,164.9849204
271,"['med', 2, 'low']",2,white,0.84298386,45,left,down,med,low,black_low_135-black_low_45-white_low_45-white_low_135,white_med_45_down,black_med_135_down,13,1.674779487,0.2485555,left,0.2961721,1,13,19,1,1,1,1,TRUE,FALSE,med_2_mask_low,0.75,-1,3,FALSE,9,,,,,,,,,,,,,,,,,,,165,10,3.2.2021,164.9849204
272,"['med', 1, 'high']",1,white,0.763494822,45,left,up,med,high,black_high_135-white_high_135-white_high_135-black_high_45,white_med_45_up,black_med_135_up,22,1.18159994,0.2485452,left,0.3326299,1,22,18,1,1,1,1,TRUE,FALSE,med_1_mask_high,0.75,-1,3,FALSE,5,,,,,,,,,,,,,,,,,,,165,10,3.2.2021,164.9849204
273,"['low', 2, 'high']",2,white,0.317970646,135,right,down,low,high,black_high_135-white_high_135-black_high_45-white_high_135,white_low_135_down,black_low_45_down,4,1.667102481,0.2467741,left,0.6955896,0,4,19,1,1,1,1,TRUE,FALSE,low_2_mask_high,0.75,-1,3,TRUE,9,,,,,,,,,,,,,,,,,,,165,10,3.2.2021,164.9849204
274,"['low', 1, 'high']",1,black,0.752304364,135,left,down,low,high,white_high_135-white_high_135-black_high_45-black_high_135,black_low_135_down,white_low_45_down,14,1.2692869,0.2485561,right,1.7086061,0,14,18,0,1,1,1,TRUE,FALSE,low_1_mask_high,0.75,-1,3,FALSE,11,,,,,,,,,,,,,,,,,,,165,10,3.2.2021,164.9849204
275,"['med', 3, 'low']",3,black,0.906516767,135,left,up,med,low,white_low_135-black_low_135-white_low_45-black_low_45,black_med_135_up,white_med_45_up,15,1.338284947,0.2485514,left,0.4848083,1,15,17,0,1,1,1,TRUE,FALSE,med_3_mask_low,0.75,-1,3,TRUE,9,,,,,,,,,,,,,,,,,,,165,10,3.2.2021,164.9849204
276,"['high', 2, 'high']",2,black,0.925805077,135,left,up,high,high,black_high_45-white_high_135-black_high_135-white_high_135,black_high_135_up,white_high_45_up,19,1.925420147,0.2485475,right,0.6604032,0,19,13,1,1,1,1,TRUE,FALSE,high_2_mask_high,0.75,-1,3,TRUE,8,,,,,,,,,,,,,,,,,,,165,10,3.2.2021,164.9849204
277,"['med', 2, 'low']",2,white,0.418900235,135,right,down,med,low,black_low_45-black_low_135-white_low_45-white_low_135,white_med_135_down,black_med_45_down,12,1.314551001,0.2485494,right,0.5923287,1,12,20,1,1,1,1,TRUE,FALSE,med_2_mask_low,0.75,-1,3,FALSE,9,,,,,,,,,,,,,,,,,,,165,10,3.2.2021,164.9849204
278,"['high', 2, 'high']",2,white,0.337069438,45,left,up,high,high,white_high_135-black_high_45-white_high_135-black_high_135,white_high_45_up,black_high_135_up,22,1.730315139,0.2485475,left,0.4170329,1,22,14,0,1,1,1,TRUE,FALSE,high_2_mask_high,0.75,-1,3,TRUE,9,,,,,,,,,,,,,,,,,,,165,10,3.2.2021,164.9849204
279,"['med', 1, 'high']",1,black,0.394447421,135,left,down,med,high,black_high_45-white_high_135-white_high_135-black_high_135,black_med_135_down,white_med_45_down,21,1.833742006,0.2485577,left,0.8645698,1,21,19,1,1,1,1,TRUE,FALSE,med_1_mask_high,0.75,-1,3,FALSE,5,,,,,,,,,,,,,,,,,,,165,10,3.2.2021,164.9849204
280,"['med', 2, 'low']",2,black,0.321028035,45,right,up,med,low,black_low_135-white_low_135-white_low_45-black_low_45,black_med_45_up,white_med_135_up,11,1.372443813,0.2466801,left,0.3157957,0,11,21,1,1,1,1,TRUE,FALSE,med_2_mask_low,0.75,-1,3,TRUE,10,,,,,,,,,,,,,,,,,,,165,10,3.2.2021,164.9849204
281,"['low', 2, 'low']",2,white,0.669332632,135,right,up,low,low,black_low_135-black_low_45-white_low_135-white_low_45,white_low_135_up,black_low_45_up,7,1.286349139,0.2485559,right,0.053921,1,7,12,1,0,1,1,TRUE,FALSE,low_2_mask_low,0.75,-1,3,FALSE,4,,,,,,,,,,,,,,,,,,,165,10,3.2.2021,164.9849204
282,"['low', 2, 'high']",2,white,0.871715164,135,right,up,low,high,white_high_135-white_high_135-black_high_45-black_high_135,white_low_135_up,black_low_45_up,7,1.917539381,0.2485483,left,0.3227698,0,7,20,0,1,1,1,TRUE,FALSE,low_2_mask_high,0.75,-1,3,FALSE,9,,,,,,,,,,,,,,,,,,,165,10,3.2.2021,164.9849204
283,"['med', 1, 'high']",1,white,0.517684261,135,right,up,med,high,white_high_135-black_high_45-black_high_135-white_high_135,white_med_135_up,black_med_45_up,20,1.076448496,0.2502857,right,0.0816741,1,20,20,1,1,1,1,TRUE,FALSE,med_1_mask_high,0.75,-1,3,FALSE,5,,,,,,,,,,,,,,,,,,,165,10,3.2.2021,164.9849204
284,"['low', 2, 'low']",2,black,0.270111538,135,left,down,low,low,black_low_45-white_low_45-white_low_135-black_low_135,black_low_135_down,white_low_45_down,6,1.139988044,0.2485596,right,0.045309,0,6,13,1,0,1,1,TRUE,FALSE,low_2_mask_low,0.75,-1,3,TRUE,5,,,,,,,,,,,,,,,,,,,165,10,3.2.2021,164.9849204
285,"['high', 1, 'high']",1,black,0.832908513,135,left,down,high,high,white_high_135-white_high_135-black_high_45-black_high_135,black_high_135_down,white_high_45_down,19,1.497444618,0.2503323,right,0.4886658,0,19,21,1,1,1,1,TRUE,FALSE,high_1_mask_high,0.75,-1,3,TRUE,10,,,,,,,,,,,,,,,,,,,165,10,3.2.2021,164.9849204
286,"['low', 1, 'high']",1,white,0.218689267,135,right,down,low,high,black_high_135-white_high_135-black_high_45-white_high_135,white_low_135_down,black_low_45_down,17,1.455627509,0.2485503,right,0.3171189,1,17,19,0,1,1,1,TRUE,FALSE,low_1_mask_high,0.75,-1,3,TRUE,12,,,,,,,,,,,,,,,,,,,165,10,3.2.2021,164.9849204
287,"['high', 2, 'low']",2,black,0.619429252,45,right,up,high,low,black_low_45-white_low_45-black_low_135-white_low_135,black_high_45_up,white_high_135_up,13,1.046857008,0.248542,right,0.3547262,1,13,11,0,1,1,1,TRUE,FALSE,high_2_mask_low,0.75,-1,3,TRUE,6,,,,,,,,,,,,,,,,,,,165,10,3.2.2021,164.9849204
288,"['med', 3, 'high']",3,black,0.854538176,135,left,down,med,high,black_high_45-white_high_135-white_high_135-black_high_135,black_med_135_down,white_med_45_down,13,1.706714964,0.2482627,right,0.5013831,0,13,7,1,1,1,1,TRUE,FALSE,med_3_mask_high,0.75,-1,3,TRUE,7,,,,,,,,,,,,,,,,,,,165,10,3.2.2021,164.9849204
289,"['high', 3, 'low']",3,white,0.485691518,45,left,down,high,low,white_low_45-black_low_135-black_low_45-white_low_135,white_high_45_down,black_high_135_down,10,1.807344004,0.2485488,right,0.3750642,0,10,10,1,1,1,1,TRUE,FALSE,high_3_mask_low,0.75,-1,3,TRUE,7,,,,,,,,,,,,,,,,,,,165,10,3.2.2021,164.9849204
290,"['low', 2, 'low']",2,white,0.761610262,45,left,down,low,low,white_low_45-white_low_135-black_low_45-black_low_135,white_low_45_down,black_low_135_down,9,1.334896185,0.2485541,left,0.2870979,1,9,14,0,1,1,1,TRUE,FALSE,low_2_mask_low,0.75,-1,3,TRUE,6,,,,,,,,,,,,,,,,,,,165,10,3.2.2021,164.9849204
291,"['high', 1, 'low']",1,white,0.682004894,135,right,down,high,low,white_low_45-black_low_135-white_low_135-black_low_45,white_high_135_down,black_high_45_down,17,1.710559583,0.2485567,right,0.3149307,1,17,19,1,1,1,1,TRUE,FALSE,high_1_mask_low,0.75,-1,3,FALSE,10,,,,,,,,,,,,,,,,,,,165,10,3.2.2021,164.9849204
292,"['med', 3, 'high']",3,white,0.482858582,45,left,down,med,high,black_high_45-white_high_135-black_high_135-white_high_135,white_med_45_down,black_med_135_down,16,1.437606937,0.2485444,left,0.4345485,1,16,8,0,1,1,1,TRUE,FALSE,med_3_mask_high,0.75,-1,3,TRUE,8,,,,,,,,,,,,,,,,,,,165,10,3.2.2021,164.9849204
293,"['low', 2, 'low']",2,white,0.962077868,135,right,up,low,low,black_low_135-white_low_135-white_low_45-black_low_45,white_low_135_up,black_low_45_up,8,1.577494477,0.2485515,right,0.4095282,1,8,15,1,1,1,1,TRUE,FALSE,low_2_mask_low,0.75,-1,3,FALSE,6,,,,,,,,,,,,,,,,,,,165,10,3.2.2021,164.9849204
294,"['low', 3, 'low']",3,black,0.83087143,135,left,down,low,low,black_low_45-white_low_45-black_low_135-white_low_135,black_low_135_down,white_low_45_down,8,1.927996109,0.2488325,left,0.1827244,1,8,19,1,1,1,1,TRUE,FALSE,low_3_mask_low,0.75,-1,3,FALSE,7,,,,,,,,,,,,,,,,,,,165,10,3.2.2021,164.9849204
295,"['med', 2, 'high']",2,black,0.169050696,135,left,down,med,high,white_high_135-white_high_135-black_high_45-black_high_135,black_med_135_down,white_med_45_down,17,1.40871984,0.2485534,left,1.198533,1,17,15,0,1,1,1,TRUE,FALSE,med_2_mask_high,0.75,-1,3,TRUE,10,,,,,,,,,,,,,,,,,,,165,10,3.2.2021,164.9849204
296,"['low', 2, 'low']",2,black,0.350499614,45,right,down,low,low,white_low_45-black_low_135-black_low_45-white_low_135,black_low_45_down,white_low_135_down,7,1.221905234,0.2450293,left,0.2466924,0,7,16,1,1,1,1,TRUE,FALSE,low_2_mask_low,0.75,-1,3,TRUE,7,,,,,,,,,,,,,,,,,,,165,10,3.2.2021,164.9849204
297,"['low', 2, 'high']",2,white,0.982009068,135,right,down,low,high,white_high_135-black_high_45-black_high_135-white_high_135,white_low_135_down,black_low_45_down,10,1.649261889,0.2485481,right,0.3144341,1,10,21,0,1,1,1,TRUE,FALSE,low_2_mask_high,0.75,-1,3,TRUE,10,,,,,,,,,,,,,,,,,,,165,10,3.2.2021,164.9849204
298,"['low', 2, 'low']",2,white,0.613728203,135,right,down,low,low,black_low_135-white_low_45-white_low_135-black_low_45,white_low_135_down,black_low_45_down,10,1.385110741,0.246706,right,0.3721353,1,10,17,0,1,1,1,TRUE,FALSE,low_2_mask_low,0.75,-1,3,TRUE,8,,,,,,,,,,,,,,,,,,,165,10,3.2.2021,164.9849204
299,"['high', 1, 'low']",1,white,0.514303643,45,left,up,high,low,black_low_135-white_low_45-black_low_45-white_low_135,white_high_45_up,black_high_135_up,16,1.874373017,0.2488245,left,0.3573199,1,16,20,1,1,1,1,TRUE,FALSE,high_1_mask_low,0.75,-1,3,FALSE,10,,,,,,,,,,,,,,,,,,,165,10,3.2.2021,164.9849204
300,"['med', 1, 'low']",1,black,0.562045293,45,right,down,med,low,black_low_135-white_low_45-white_low_135-black_low_45,black_med_45_down,white_med_135_down,20,1.857492637,0.2485507,right,0.9202234,1,20,12,0,1,1,1,TRUE,FALSE,med_1_mask_low,0.75,-1,3,TRUE,9,,,,,,,,,,,,,,,,,,,165,10,3.2.2021,164.9849204
301,"['med', 2, 'high']",2,black,0.951480396,45,right,up,med,high,white_high_135-black_high_45-black_high_135-white_high_135,black_med_45_up,white_med_135_up,16,1.955922224,0.2485371,left,0.4930287,0,16,16,1,1,1,1,TRUE,FALSE,med_2_mask_high,0.75,-1,3,TRUE,11,,,,,,,,,,,,,,,,,,,165,10,3.2.2021,164.9849204
302,"['med', 2, 'low']",2,white,0.967053461,45,left,down,med,low,black_low_135-white_low_135-black_low_45-white_low_45,white_med_45_down,black_med_135_down,14,1.62636449,0.2485483,left,0.0204373,1,14,22,0,1,1,1,TRUE,FALSE,med_2_mask_low,0.75,-1,3,TRUE,11,,,,,,,,,,,,,,,,,,,165,10,3.2.2021,164.9849204
303,"['high', 2, 'high']",2,white,0.438342812,135,right,up,high,high,black_high_45-black_high_135-white_high_135-white_high_135,white_high_135_up,black_high_45_up,21,1.035142806,0.2485578,right,0.129742,1,21,15,1,1,1,1,TRUE,FALSE,high_2_mask_high,0.75,-1,3,FALSE,9,,,,,,,,,,,,,,,,,,,165,10,3.2.2021,164.9849204
304,"['low', 2, 'low']",2,black,0.38828294,45,right,up,low,low,black_low_135-black_low_45-white_low_135-white_low_45,black_low_45_up,white_low_135_up,9,1.257587938,0.2485364,left,0.3091518,0,9,18,1,1,1,1,TRUE,FALSE,low_2_mask_low,0.75,-1,3,TRUE,9,,,,,,,,,,,,,,,,,,,165,10,3.2.2021,164.9849204
305,"['low', 3, 'high']",3,black,0.210150563,45,right,up,low,high,white_high_135-black_high_45-white_high_135-black_high_135,black_low_45_up,white_low_135_up,5,1.307567177,0.246718,left,0.5180749,0,5,14,1,0,1,1,TRUE,FALSE,low_3_mask_high,0.75,-1,3,TRUE,4,,,,,,,,,,,,,,,,,,,165,10,3.2.2021,164.9849204
306,"['low', 2, 'low']",2,white,0.703098285,135,right,up,low,low,black_low_135-white_low_135-white_low_45-black_low_45,white_low_135_up,black_low_45_up,12,1.780445143,0.2467789,right,0.1247901,1,12,19,0,1,1,1,TRUE,FALSE,low_2_mask_low,0.75,-1,3,TRUE,10,,,,,,,,,,,,,,,,,,,165,10,3.2.2021,164.9849204
307,"['low', 1, 'low']",1,white,0.305588068,45,left,up,low,low,white_low_45-black_low_45-white_low_135-black_low_135,white_low_45_up,black_low_135_up,15,1.36985847,0.2485515,left,0.1717641,1,15,13,1,1,1,1,TRUE,FALSE,low_1_mask_low,0.75,-1,3,FALSE,8,,,,,,,,,,,,,,,,,,,165,10,3.2.2021,164.9849204
308,"['high', 3, 'high']",3,black,0.075188213,135,left,down,high,high,white_high_135-black_high_45-black_high_135-white_high_135,black_high_135_down,white_high_45_down,6,1.096878385,0.2485544,right,2.3599474,0,6,14,1,0,1,1,TRUE,FALSE,high_3_mask_high,0.75,-1,3,TRUE,4,,,,,,,,,,,,,,,,,,,165,10,3.2.2021,164.9849204
309,"['med', 3, 'low']",3,white,0.203458795,135,right,up,med,low,black_low_135-white_low_45-white_low_135-black_low_45,white_med_135_up,black_med_45_up,14,1.665547759,0.2485569,right,0.2104909,1,14,18,1,1,1,1,TRUE,FALSE,med_3_mask_low,0.75,-1,3,FALSE,9,,,,,,,,,,,,,,,,,,,165,10,3.2.2021,164.9849204
310,"['high', 2, 'low']",2,black,0.016554286,45,right,down,high,low,white_low_135-black_low_135-black_low_45-white_low_45,black_high_45_down,white_high_135_down,12,1.248005332,0.2485577,right,0.6177762,1,12,12,1,1,1,1,TRUE,FALSE,high_2_mask_low,0.75,-1,3,FALSE,6,,,,,,,,,,,,,,,,,,,165,10,3.2.2021,164.9849204
311,"['med', 1, 'low']",1,white,0.92273133,45,left,up,med,low,white_low_45-white_low_135-black_low_135-black_low_45,white_med_45_up,black_med_135_up,19,1.911115307,0.2485462,left,1.4217726,1,19,13,1,1,1,1,TRUE,FALSE,med_1_mask_low,0.75,-1,3,FALSE,9,,,,,,,,,,,,,,,,,,,165,10,3.2.2021,164.9849204
312,"['med', 3, 'low']",3,black,0.211737789,135,left,down,med,low,black_low_45-white_low_45-white_low_135-black_low_135,black_med_135_down,white_med_45_down,13,1.363923983,0.248553,right,1.5497734,0,13,19,1,1,1,1,TRUE,FALSE,med_3_mask_low,0.75,-1,3,TRUE,10,,,,,,,,,,,,,,,,,,,165,10,3.2.2021,164.9849204
313,"['low', 1, 'low']",1,white,0.430677982,135,right,down,low,low,black_low_45-white_low_45-white_low_135-black_low_135,white_low_135_down,black_low_45_down,14,1.294723846,0.2485478,right,0.2450313,1,14,14,1,1,1,1,TRUE,FALSE,low_1_mask_low,0.75,-1,3,FALSE,8,,,,,,,,,,,,,,,,,,,165,10,3.2.2021,164.9849204
314,"['high', 1, 'low']",1,white,0.057955688,135,right,down,high,low,white_low_135-black_low_135-black_low_45-white_low_45,white_high_135_down,black_high_45_down,15,1.653874367,0.2467736,right,0.2247376,1,15,21,1,1,1,1,TRUE,FALSE,high_1_mask_low,0.75,-1,3,FALSE,10,,,,,,,,,,,,,,,,,,,165,10,3.2.2021,164.9849204
315,"['low', 1, 'low']",1,black,0.897824256,135,left,down,low,low,black_low_45-white_low_135-black_low_135-white_low_45,black_low_135_down,white_low_45_down,13,1.080923531,0.2485517,right,0.4345514,0,13,15,1,1,1,1,TRUE,FALSE,low_1_mask_low,0.75,-1,3,TRUE,9,,,,,,,,,,,,,,,,,,,165,10,3.2.2021,164.9849204
316,"['low', 1, 'high']",1,white,0.813183928,135,right,down,low,high,white_high_135-black_high_45-black_high_135-white_high_135,white_low_135_down,black_low_45_down,16,1.802956275,0.2467554,right,0.105062,1,16,20,1,1,1,1,TRUE,FALSE,low_1_mask_high,0.75,-1,3,FALSE,12,,,,,,,,,,,,,,,,,,,165,10,3.2.2021,164.9849204
317,"['med', 2, 'high']",2,black,0.802089871,135,left,up,med,high,white_high_135-black_high_135-white_high_135-black_high_45,black_med_135_up,white_med_45_up,19,1.270227489,0.2485537,left,0.1668054,1,19,17,0,1,1,1,TRUE,FALSE,med_2_mask_high,0.75,-1,3,TRUE,12,,,,,,,,,,,,,,,,,,,165,10,3.2.2021,164.9849204
318,"['low', 2, 'high']",2,white,0.696652261,135,right,down,low,high,black_high_135-white_high_135-white_high_135-black_high_45,white_low_135_down,black_low_45_down,9,1.383825728,0.2485531,right,0.1200849,1,9,22,1,1,1,1,TRUE,FALSE,low_2_mask_high,0.75,-1,3,FALSE,10,,,,,,,,,,,,,,,,,,,165,10,3.2.2021,164.9849204
319,"['high', 3, 'high']",3,black,0.565098048,45,right,down,high,high,white_high_135-black_high_45-black_high_135-white_high_135,black_high_45_down,white_high_135_down,9,1.228288242,0.250332,right,0.2724856,1,9,15,0,0,1,1,TRUE,FALSE,high_3_mask_high,0.75,-1,3,TRUE,5,,,,,,,,,,,,,,,,,,,165,10,3.2.2021,164.9849204
320,"['med', 1, 'high']",1,white,0.443750583,45,left,down,med,high,white_high_135-black_high_135-black_high_45-white_high_135,white_med_45_down,black_med_135_down,19,1.667444544,0.248829,left,0.2877354,1,19,21,1,1,1,1,TRUE,FALSE,med_1_mask_high,0.75,-1,3,FALSE,5,,,,,,,,,,,,,,,,,,,165,10,3.2.2021,164.9849204
321,"['high', 3, 'low']",3,white,0.977140044,45,left,up,high,low,white_low_45-black_low_45-white_low_135-black_low_135,white_high_45_up,black_high_135_up,13,1.555920937,0.2485489,left,0.1557913,1,13,11,0,1,1,1,TRUE,FALSE,high_3_mask_low,0.75,-1,3,TRUE,8,,,,,,,,,,,,,,,,,,,165,10,3.2.2021,164.9849204
322,"['med', 3, 'high']",3,black,0.644771254,45,right,down,med,high,black_high_45-white_high_135-black_high_135-white_high_135,black_med_45_down,white_med_135_down,15,1.674302007,0.2483359,right,0.3864469,1,15,9,1,1,1,1,TRUE,FALSE,med_3_mask_high,0.75,-1,3,FALSE,8,,,,,,,,,,,,,,,,,,,165,10,3.2.2021,164.9849204
323,"['high', 1, 'low']",1,black,0.892116325,45,right,down,high,low,white_low_135-black_low_45-black_low_135-white_low_45,black_high_45_down,white_high_135_down,14,1.703187719,0.2467712,right,1.097597,1,14,22,1,1,1,1,TRUE,FALSE,high_1_mask_low,0.75,-1,3,FALSE,10,,,,,,,,,,,,,,,,,,,165,10,3.2.2021,164.9849204
